subj_idx,gender,year,education,dist,trial_type,rt,response,key_press,condition,correct_response,correct,word,Image,shape_en,valence,ACC,exp,matchness,trial_id
40,0,2001,5,420.87,psychophysics,591,j,j,simultaneous,j,True,方形,img/C_ambi40.png,circle,circle,1,exp1,mismatch,142
26,0,2001,5,732.87,psychophysics,692,f,f,simultaneous,f,True,方形,img/S_ambi40.png,square,square,1,exp1,match,165
9,0,2003,4,467.59,psychophysics,602,j,j,simultaneous,f,False,方形,img/T_ambi40.png,triangle,triangle,0,exp1,mismatch,111
20,1,2001,5,644.35,psychophysics,871,f,f,simultaneous,f,True,三角,img/T_ambi40.png,triangle,triangle,1,exp1,match,145
2,0,2000,5,650.78,psychophysics,498,f,f,simultaneous,f,True,三角,img/T_ambi40.png,triangle,triangle,1,exp1,match,62
40,0,2001,5,420.87,psychophysics,744,f,f,simultaneous,f,True,圆形,img/C_ambi40.png,circle,circle,1,exp1,match,235
31,1,1999,5,429.67,psychophysics,775,f,f,simultaneous,f,True,圆形,img/T_ambi40.png,triangle,triangle,1,exp1,mismatch,204
17,1,2002,5,446.22,psychophysics,672,j,j,simultaneous,j,True,方形,img/S_ambi40.png,square,square,1,exp1,match,216
36,0,2000,5,564.96,psychophysics,852,j,j,simultaneous,j,True,三角,img/S_ambi40.png,square,square,1,exp1,mismatch,10
39,1,2000,5,592.33,psychophysics,762,f,f,simultaneous,f,True,三角,img/S_ambi40.png,square,square,1,exp1,mismatch,49
14,1,2003,5,460.48,psychophysics,647,f,f,simultaneous,f,True,圆形,img/C_ambi40.png,circle,circle,1,exp1,match,31
33,0,2000,5,628.58,psychophysics,607,f,f,simultaneous,j,False,圆形,img/C_ambi40.png,circle,circle,0,exp1,match,28
14,1,2003,5,460.48,psychophysics,431,j,j,simultaneous,f,False,圆形,img/C_ambi40.png,circle,circle,0,exp1,match,45
3,0,1995,7,452.95,psychophysics,563,f,f,simultaneous,j,False,三角,img/T_ambi40.png,triangle,triangle,0,exp1,match,83
35,1,2002,5,454.73,psychophysics,470,j,j,simultaneous,j,True,圆形,img/C_ambi40.png,circle,circle,1,exp1,match,196
20,1,2001,5,644.35,psychophysics,696,j,j,simultaneous,j,True,三角,img/S_ambi40.png,square,square,1,exp1,mismatch,123
15,1,2003,5,599.88,psychophysics,613,f,f,simultaneous,f,True,圆形,img/T_ambi40.png,triangle,triangle,1,exp1,mismatch,31
37,1,2000,5,560.45,psychophysics,808,f,f,simultaneous,f,True,方形,img/C_ambi40.png,circle,circle,1,exp1,mismatch,111
15,1,2003,5,599.88,psychophysics,635,j,j,simultaneous,j,True,三角,img/T_ambi40.png,triangle,triangle,1,exp1,match,154
16,1,2001,5,502.74,psychophysics,588,j,j,simultaneous,j,True,方形,img/T_ambi40.png,triangle,triangle,1,exp1,mismatch,157
7,0,2001,5,611.97,psychophysics,693,j,j,simultaneous,j,True,三角,img/T_ambi40.png,triangle,triangle,1,exp1,match,14
40,0,2001,5,420.87,psychophysics,536,f,f,simultaneous,f,True,方形,img/S_ambi40.png,square,square,1,exp1,match,92
20,1,2001,5,644.35,psychophysics,977,f,f,simultaneous,f,True,圆形,img/C_ambi40.png,circle,circle,1,exp1,match,229
38,0,2001,5,450.33,psychophysics,789,f,f,simultaneous,f,True,圆形,img/C_ambi40.png,circle,circle,1,exp1,match,115
1,0,2000,5,434.97,psychophysics,636,j,j,simultaneous,j,True,三角,img/T_ambi40.png,triangle,triangle,1,exp1,match,162
20,1,2001,5,644.35,psychophysics,1211,f,f,simultaneous,f,True,方形,img/S_ambi40.png,square,square,1,exp1,match,136
25,1,2000,5,596.57,psychophysics,635,f,f,simultaneous,f,True,方形,img/C_ambi40.png,circle,circle,1,exp1,mismatch,20
24,1,2001,5,627.24,psychophysics,658,f,f,simultaneous,f,True,圆形,img/C_ambi40.png,circle,circle,1,exp1,match,61
6,0,1997,6,518.58,psychophysics,556,j,j,simultaneous,j,True,圆形,img/S_ambi40.png,square,square,1,exp1,mismatch,109
14,1,2003,5,460.48,psychophysics,533,j,j,simultaneous,j,True,圆形,img/S_ambi40.png,square,square,1,exp1,mismatch,94
15,1,2003,5,599.88,psychophysics,691,j,j,simultaneous,j,True,方形,img/S_ambi40.png,square,square,1,exp1,match,225
13,1,2002,5,506.35,psychophysics,871,j,j,simultaneous,j,True,方形,img/S_ambi40.png,square,square,1,exp1,match,180
15,1,2003,5,599.88,psychophysics,927,j,j,simultaneous,j,True,方形,img/S_ambi40.png,square,square,1,exp1,match,128
20,1,2001,5,644.35,psychophysics,929,j,j,simultaneous,j,True,圆形,img/T_ambi40.png,triangle,triangle,1,exp1,mismatch,70
1,0,2000,5,434.97,psychophysics,685,j,j,simultaneous,j,True,三角,img/T_ambi40.png,triangle,triangle,1,exp1,match,63
14,1,2003,5,460.48,psychophysics,677,f,f,simultaneous,f,True,三角,img/T_ambi40.png,triangle,triangle,1,exp1,match,29
22,0,2001,5,608.11,psychophysics,608,j,j,simultaneous,j,True,三角,img/C_ambi40.png,circle,circle,1,exp1,mismatch,221
10,1,2000,5,634.76,psychophysics,596,f,f,simultaneous,f,True,三角,img/T_ambi40.png,triangle,triangle,1,exp1,match,146
30,1,2004,5,559.03,psychophysics,571,j,j,simultaneous,j,True,三角,img/C_ambi40.png,circle,circle,1,exp1,mismatch,126
29,0,2001,5,511.11,psychophysics,603,j,j,simultaneous,j,True,圆形,img/C_ambi40.png,circle,circle,1,exp1,match,139
18,1,2003,5,396.17,psychophysics,988,f,f,simultaneous,f,True,圆形,img/C_ambi40.png,circle,circle,1,exp1,match,83
1,0,2000,5,434.97,psychophysics,620,j,j,simultaneous,j,True,三角,img/T_ambi40.png,triangle,triangle,1,exp1,match,224
40,0,2001,5,420.87,psychophysics,627,j,j,simultaneous,f,False,圆形,img/C_ambi40.png,circle,circle,0,exp1,match,133
18,1,2003,5,396.17,psychophysics,692,j,j,simultaneous,j,True,方形,img/T_ambi40.png,triangle,triangle,1,exp1,mismatch,30
36,0,2000,5,564.96,psychophysics,670,f,f,simultaneous,f,True,圆形,img/C_ambi40.png,circle,circle,1,exp1,match,66
19,1,2003,5,424.97,psychophysics,588,j,j,simultaneous,j,True,三角,img/T_ambi40.png,triangle,triangle,1,exp1,match,239
33,0,2000,5,628.58,psychophysics,947,j,j,simultaneous,j,True,三角,img/T_ambi40.png,triangle,triangle,1,exp1,match,92
29,0,2001,5,511.11,psychophysics,758,f,f,simultaneous,f,True,三角,img/C_ambi40.png,circle,circle,1,exp1,mismatch,93
20,1,2001,5,644.35,psychophysics,1217,f,f,simultaneous,f,True,三角,img/T_ambi40.png,triangle,triangle,1,exp1,match,161
8,0,2000,5,712.49,psychophysics,661,j,j,simultaneous,j,True,三角,img/S_ambi40.png,square,square,1,exp1,mismatch,170
4,0,2001,5,590.64,psychophysics,629,f,f,simultaneous,f,True,三角,img/T_ambi40.png,triangle,triangle,1,exp1,match,66
29,0,2001,5,511.11,psychophysics,671,j,j,simultaneous,j,True,三角,img/T_ambi40.png,triangle,triangle,1,exp1,match,25
10,1,2000,5,634.76,psychophysics,778,f,f,simultaneous,f,True,方形,img/S_ambi40.png,square,square,1,exp1,match,235
13,1,2002,5,506.35,psychophysics,618,j,j,simultaneous,j,True,方形,img/S_ambi40.png,square,square,1,exp1,match,128
35,1,2002,5,454.73,psychophysics,565,j,j,simultaneous,j,True,三角,img/T_ambi40.png,triangle,triangle,1,exp1,match,223
6,0,1997,6,518.58,psychophysics,580,j,j,simultaneous,j,True,方形,img/C_ambi40.png,circle,circle,1,exp1,mismatch,111
28,1,2003,5,503.53,psychophysics,622,j,j,simultaneous,j,True,圆形,img/S_ambi40.png,square,square,1,exp1,mismatch,211
19,1,2003,5,424.97,psychophysics,801,j,j,simultaneous,j,True,方形,img/S_ambi40.png,square,square,1,exp1,match,43
17,1,2002,5,446.22,psychophysics,720,f,f,simultaneous,f,True,圆形,img/T_ambi40.png,triangle,triangle,1,exp1,mismatch,15
26,0,2001,5,732.87,psychophysics,635,f,f,simultaneous,f,True,三角,img/T_ambi40.png,triangle,triangle,1,exp1,match,115
16,1,2001,5,502.74,psychophysics,672,f,f,simultaneous,f,True,方形,img/S_ambi40.png,square,square,1,exp1,match,192
2,0,2000,5,650.78,psychophysics,627,j,j,simultaneous,j,True,三角,img/C_ambi40.png,circle,circle,1,exp1,mismatch,166
22,0,2001,5,608.11,psychophysics,624,f,f,simultaneous,f,True,方形,img/S_ambi40.png,square,square,1,exp1,match,120
24,1,2001,5,627.24,psychophysics,661,f,f,simultaneous,f,True,圆形,img/C_ambi40.png,circle,circle,1,exp1,match,211
40,0,2001,5,420.87,psychophysics,904,f,f,simultaneous,f,True,方形,img/S_ambi40.png,square,square,1,exp1,match,65
39,1,2000,5,592.33,psychophysics,1309,f,f,simultaneous,j,False,方形,img/S_ambi40.png,square,square,0,exp1,match,153
32,1,2004,5,449.09,psychophysics,865,f,f,simultaneous,f,True,方形,img/S_ambi40.png,square,square,1,exp1,match,147
18,1,2003,5,396.17,psychophysics,899,j,j,simultaneous,j,True,圆形,img/S_ambi40.png,square,square,1,exp1,mismatch,36
23,1,2003,5,580.70,psychophysics,824,j,j,simultaneous,j,True,圆形,img/C_ambi40.png,circle,circle,1,exp1,match,103
4,0,2001,5,590.64,psychophysics,589,f,f,simultaneous,f,True,圆形,img/C_ambi40.png,circle,circle,1,exp1,match,119
6,0,1997,6,518.58,psychophysics,785,j,j,simultaneous,j,True,三角,img/C_ambi40.png,circle,circle,1,exp1,mismatch,10
2,0,2000,5,650.78,psychophysics,641,f,f,simultaneous,f,True,圆形,img/C_ambi40.png,circle,circle,1,exp1,match,219
1,0,2000,5,434.97,psychophysics,677,j,j,simultaneous,j,True,三角,img/T_ambi40.png,triangle,triangle,1,exp1,match,151
28,1,2003,5,503.53,psychophysics,549,f,f,simultaneous,f,True,圆形,img/C_ambi40.png,circle,circle,1,exp1,match,148
12,1,2002,5,574.86,psychophysics,764,j,j,simultaneous,j,True,三角,img/S_ambi40.png,square,square,1,exp1,mismatch,77
38,0,2001,5,450.33,psychophysics,967,j,j,simultaneous,j,True,方形,img/T_ambi40.png,triangle,triangle,1,exp1,mismatch,92
25,1,2000,5,596.57,psychophysics,645,f,f,simultaneous,f,True,方形,img/C_ambi40.png,circle,circle,1,exp1,mismatch,222
20,1,2001,5,644.35,psychophysics,957,f,f,simultaneous,f,True,三角,img/T_ambi40.png,triangle,triangle,1,exp1,match,9
30,1,2004,5,559.03,psychophysics,644,j,j,simultaneous,j,True,圆形,img/S_ambi40.png,square,square,1,exp1,mismatch,207
26,0,2001,5,732.87,psychophysics,777,j,j,simultaneous,f,False,方形,img/S_ambi40.png,square,square,0,exp1,match,173
25,1,2000,5,596.57,psychophysics,448,j,j,simultaneous,j,True,圆形,img/C_ambi40.png,circle,circle,1,exp1,match,53
10,1,2000,5,634.76,psychophysics,693,j,j,simultaneous,f,False,方形,img/S_ambi40.png,square,square,0,exp1,match,200
39,1,2000,5,592.33,psychophysics,698,j,j,simultaneous,j,True,三角,img/T_ambi40.png,triangle,triangle,1,exp1,match,150
20,1,2001,5,644.35,psychophysics,749,f,f,simultaneous,j,False,三角,img/S_ambi40.png,square,square,0,exp1,mismatch,179
6,0,1997,6,518.58,psychophysics,761,f,f,simultaneous,f,True,方形,img/S_ambi40.png,square,square,1,exp1,match,21
9,0,2003,4,467.59,psychophysics,979,f,f,simultaneous,f,True,三角,img/C_ambi40.png,circle,circle,1,exp1,mismatch,10
4,0,2001,5,590.64,psychophysics,773,f,f,simultaneous,f,True,方形,img/S_ambi40.png,square,square,1,exp1,match,46
1,0,2000,5,434.97,psychophysics,709,f,f,simultaneous,f,True,方形,img/T_ambi40.png,triangle,triangle,1,exp1,mismatch,227
10,1,2000,5,634.76,psychophysics,642,j,j,simultaneous,j,True,三角,img/C_ambi40.png,circle,circle,1,exp1,mismatch,188
23,1,2003,5,580.70,psychophysics,681,j,j,simultaneous,j,True,三角,img/T_ambi40.png,triangle,triangle,1,exp1,match,226
23,1,2003,5,580.70,psychophysics,530,j,j,simultaneous,j,True,三角,img/T_ambi40.png,triangle,triangle,1,exp1,match,166
22,0,2001,5,608.11,psychophysics,559,j,j,simultaneous,j,True,方形,img/T_ambi40.png,triangle,triangle,1,exp1,mismatch,196
22,0,2001,5,608.11,psychophysics,696,j,j,simultaneous,f,False,三角,img/T_ambi40.png,triangle,triangle,0,exp1,match,52
21,0,2001,5,568.37,psychophysics,578,f,f,simultaneous,f,True,三角,img/S_ambi40.png,square,square,1,exp1,mismatch,106
25,1,2000,5,596.57,psychophysics,614,j,j,simultaneous,j,True,三角,img/T_ambi40.png,triangle,triangle,1,exp1,match,71
14,1,2003,5,460.48,psychophysics,630,f,f,simultaneous,f,True,方形,img/S_ambi40.png,square,square,1,exp1,match,109
25,1,2000,5,596.57,psychophysics,692,j,j,simultaneous,j,True,圆形,img/C_ambi40.png,circle,circle,1,exp1,match,109
2,0,2000,5,650.78,psychophysics,651,j,j,simultaneous,j,True,三角,img/S_ambi40.png,square,square,1,exp1,mismatch,66
21,0,2001,5,568.37,psychophysics,429,j,j,simultaneous,j,True,圆形,img/C_ambi40.png,circle,circle,1,exp1,match,55
16,1,2001,5,502.74,psychophysics,744,f,f,simultaneous,f,True,圆形,img/C_ambi40.png,circle,circle,1,exp1,match,63
38,0,2001,5,450.33,psychophysics,607,j,j,simultaneous,j,True,三角,img/C_ambi40.png,circle,circle,1,exp1,mismatch,194
29,0,2001,5,511.11,psychophysics,890,f,f,simultaneous,f,True,三角,img/C_ambi40.png,circle,circle,1,exp1,mismatch,140
26,0,2001,5,732.87,psychophysics,651,j,j,simultaneous,j,True,三角,img/S_ambi40.png,square,square,1,exp1,mismatch,153
24,1,2001,5,627.24,psychophysics,943,f,f,simultaneous,f,True,方形,img/S_ambi40.png,square,square,1,exp1,match,91
38,0,2001,5,450.33,psychophysics,768,j,j,simultaneous,j,True,圆形,img/T_ambi40.png,triangle,triangle,1,exp1,mismatch,150
39,1,2000,5,592.33,psychophysics,523,j,j,simultaneous,f,False,方形,img/T_ambi40.png,triangle,triangle,0,exp1,mismatch,195
12,1,2002,5,574.86,psychophysics,714,j,j,simultaneous,j,True,圆形,img/T_ambi40.png,triangle,triangle,1,exp1,mismatch,63
11,0,1999,5,529.13,psychophysics,768,j,j,simultaneous,j,True,方形,img/S_ambi40.png,square,square,1,exp1,match,36
33,0,2000,5,628.58,psychophysics,731,f,f,simultaneous,f,True,方形,img/T_ambi40.png,triangle,triangle,1,exp1,mismatch,119
11,0,1999,5,529.13,psychophysics,620,j,j,simultaneous,j,True,圆形,img/C_ambi40.png,circle,circle,1,exp1,match,198
23,1,2003,5,580.70,psychophysics,518,f,f,simultaneous,f,True,方形,img/T_ambi40.png,triangle,triangle,1,exp1,mismatch,122
23,1,2003,5,580.70,psychophysics,558,f,f,simultaneous,j,False,方形,img/S_ambi40.png,square,square,0,exp1,match,192
22,0,2001,5,608.11,psychophysics,564,j,j,simultaneous,j,True,方形,img/T_ambi40.png,triangle,triangle,1,exp1,mismatch,157
13,1,2002,5,506.35,psychophysics,595,f,f,simultaneous,f,True,圆形,img/T_ambi40.png,triangle,triangle,1,exp1,mismatch,183
34,0,2000,5,558.95,psychophysics,725,f,f,simultaneous,f,True,方形,img/S_ambi40.png,square,square,1,exp1,match,87
7,0,2001,5,611.97,psychophysics,661,j,j,simultaneous,j,True,圆形,img/C_ambi40.png,circle,circle,1,exp1,match,28
37,1,2000,5,560.45,psychophysics,948,j,j,simultaneous,j,True,圆形,img/C_ambi40.png,circle,circle,1,exp1,match,114
30,1,2004,5,559.03,psychophysics,438,f,f,simultaneous,f,True,方形,img/S_ambi40.png,square,square,1,exp1,match,184
33,0,2000,5,628.58,psychophysics,1150,f,f,simultaneous,f,True,圆形,img/T_ambi40.png,triangle,triangle,1,exp1,mismatch,74
38,0,2001,5,450.33,psychophysics,661,f,f,simultaneous,f,True,方形,img/S_ambi40.png,square,square,1,exp1,match,213
30,1,2004,5,559.03,psychophysics,490,f,f,simultaneous,f,True,圆形,img/C_ambi40.png,circle,circle,1,exp1,match,13
24,1,2001,5,627.24,psychophysics,664,j,j,simultaneous,j,True,三角,img/S_ambi40.png,square,square,1,exp1,mismatch,149
14,1,2003,5,460.48,psychophysics,417,f,f,simultaneous,j,False,方形,img/C_ambi40.png,circle,circle,0,exp1,mismatch,15
8,0,2000,5,712.49,psychophysics,681,j,j,simultaneous,j,True,三角,img/C_ambi40.png,circle,circle,1,exp1,mismatch,197
36,0,2000,5,564.96,psychophysics,542,j,j,simultaneous,f,False,方形,img/S_ambi40.png,square,square,0,exp1,match,214
4,0,2001,5,590.64,psychophysics,767,j,j,simultaneous,j,True,三角,img/S_ambi40.png,square,square,1,exp1,mismatch,110
28,1,2003,5,503.53,psychophysics,544,f,f,simultaneous,f,True,三角,img/T_ambi40.png,triangle,triangle,1,exp1,match,207
3,0,1995,7,452.95,psychophysics,618,j,j,simultaneous,f,False,圆形,img/T_ambi40.png,triangle,triangle,0,exp1,mismatch,211
15,1,2003,5,599.88,psychophysics,898,j,j,simultaneous,j,True,方形,img/S_ambi40.png,square,square,1,exp1,match,169
18,1,2003,5,396.17,psychophysics,734,j,j,simultaneous,j,True,三角,img/S_ambi40.png,square,square,1,exp1,mismatch,151
27,1,2002,5,523.50,psychophysics,672,f,f,simultaneous,f,True,三角,img/S_ambi40.png,square,square,1,exp1,mismatch,50
38,0,2001,5,450.33,psychophysics,652,f,f,simultaneous,f,True,方形,img/S_ambi40.png,square,square,1,exp1,match,137
4,0,2001,5,590.64,psychophysics,656,f,f,simultaneous,f,True,圆形,img/C_ambi40.png,circle,circle,1,exp1,match,131
15,1,2003,5,599.88,psychophysics,690,f,f,simultaneous,f,True,三角,img/C_ambi40.png,circle,circle,1,exp1,mismatch,81
25,1,2000,5,596.57,psychophysics,573,j,j,simultaneous,j,True,方形,img/S_ambi40.png,square,square,1,exp1,match,100
38,0,2001,5,450.33,psychophysics,595,j,j,simultaneous,j,True,方形,img/T_ambi40.png,triangle,triangle,1,exp1,mismatch,240
33,0,2000,5,628.58,psychophysics,644,f,f,simultaneous,f,True,圆形,img/T_ambi40.png,triangle,triangle,1,exp1,mismatch,160
35,1,2002,5,454.73,psychophysics,536,j,j,simultaneous,j,True,圆形,img/C_ambi40.png,circle,circle,1,exp1,match,226
11,0,1999,5,529.13,psychophysics,770,f,f,simultaneous,f,True,三角,img/S_ambi40.png,square,square,1,exp1,mismatch,213
29,0,2001,5,511.11,psychophysics,792,f,f,simultaneous,f,True,方形,img/C_ambi40.png,circle,circle,1,exp1,mismatch,218
11,0,1999,5,529.13,psychophysics,1018,j,j,simultaneous,j,True,圆形,img/C_ambi40.png,circle,circle,1,exp1,match,53
25,1,2000,5,596.57,psychophysics,761,f,f,simultaneous,f,True,三角,img/S_ambi40.png,square,square,1,exp1,mismatch,131
10,1,2000,5,634.76,psychophysics,641,j,j,simultaneous,j,True,方形,img/T_ambi40.png,triangle,triangle,1,exp1,mismatch,183
24,1,2001,5,627.24,psychophysics,683,j,j,simultaneous,j,True,三角,img/C_ambi40.png,circle,circle,1,exp1,mismatch,175
5,1,1998,6,480.02,psychophysics,549,j,j,simultaneous,j,True,三角,img/T_ambi40.png,triangle,triangle,1,exp1,match,157
30,1,2004,5,559.03,psychophysics,547,f,f,simultaneous,f,True,圆形,img/C_ambi40.png,circle,circle,1,exp1,match,194
39,1,2000,5,592.33,psychophysics,1377,f,f,simultaneous,f,True,圆形,img/T_ambi40.png,triangle,triangle,1,exp1,mismatch,159
36,0,2000,5,564.96,psychophysics,611,f,f,simultaneous,f,True,圆形,img/C_ambi40.png,circle,circle,1,exp1,match,94
23,1,2003,5,580.70,psychophysics,560,f,f,simultaneous,f,True,圆形,img/T_ambi40.png,triangle,triangle,1,exp1,mismatch,135
17,1,2002,5,446.22,psychophysics,768,f,f,simultaneous,f,True,方形,img/T_ambi40.png,triangle,triangle,1,exp1,mismatch,164
13,1,2002,5,506.35,psychophysics,602,j,j,simultaneous,f,False,三角,img/C_ambi40.png,circle,circle,0,exp1,mismatch,187
10,1,2000,5,634.76,psychophysics,659,f,f,simultaneous,f,True,三角,img/T_ambi40.png,triangle,triangle,1,exp1,match,25
6,0,1997,6,518.58,psychophysics,738,j,j,simultaneous,j,True,三角,img/C_ambi40.png,circle,circle,1,exp1,mismatch,33
15,1,2003,5,599.88,psychophysics,670,f,f,simultaneous,f,True,方形,img/T_ambi40.png,triangle,triangle,1,exp1,mismatch,162
40,0,2001,5,420.87,psychophysics,605,f,f,simultaneous,f,True,方形,img/S_ambi40.png,square,square,1,exp1,match,237
14,1,2003,5,460.48,psychophysics,741,j,j,simultaneous,j,True,三角,img/C_ambi40.png,circle,circle,1,exp1,mismatch,144
34,0,2000,5,558.95,psychophysics,921,f,f,simultaneous,f,True,三角,img/T_ambi40.png,triangle,triangle,1,exp1,match,57
14,1,2003,5,460.48,psychophysics,620,j,j,simultaneous,j,True,三角,img/C_ambi40.png,circle,circle,1,exp1,mismatch,196
40,0,2001,5,420.87,psychophysics,543,f,f,simultaneous,f,True,方形,img/S_ambi40.png,square,square,1,exp1,match,136
29,0,2001,5,511.11,psychophysics,801,f,f,simultaneous,f,True,三角,img/C_ambi40.png,circle,circle,1,exp1,mismatch,69
39,1,2000,5,592.33,psychophysics,636,j,j,simultaneous,j,True,三角,img/T_ambi40.png,triangle,triangle,1,exp1,match,85
4,0,2001,5,590.64,psychophysics,609,f,f,simultaneous,f,True,圆形,img/C_ambi40.png,circle,circle,1,exp1,match,190
6,0,1997,6,518.58,psychophysics,741,j,j,simultaneous,j,True,圆形,img/S_ambi40.png,square,square,1,exp1,mismatch,177
36,0,2000,5,564.96,psychophysics,765,j,j,simultaneous,j,True,三角,img/S_ambi40.png,square,square,1,exp1,mismatch,91
22,0,2001,5,608.11,psychophysics,844,f,f,simultaneous,f,True,圆形,img/C_ambi40.png,circle,circle,1,exp1,match,56
25,1,2000,5,596.57,psychophysics,634,j,j,simultaneous,j,True,方形,img/S_ambi40.png,square,square,1,exp1,match,221
37,1,2000,5,560.45,psychophysics,846,f,f,simultaneous,f,True,圆形,img/S_ambi40.png,square,square,1,exp1,mismatch,172
32,1,2004,5,449.09,psychophysics,659,j,j,simultaneous,j,True,圆形,img/S_ambi40.png,square,square,1,exp1,mismatch,28
31,1,1999,5,429.67,psychophysics,659,j,j,simultaneous,j,True,圆形,img/C_ambi40.png,circle,circle,1,exp1,match,34
26,0,2001,5,732.87,psychophysics,748,f,f,simultaneous,f,True,方形,img/S_ambi40.png,square,square,1,exp1,match,62
30,1,2004,5,559.03,psychophysics,595,j,j,simultaneous,f,False,圆形,img/C_ambi40.png,circle,circle,0,exp1,match,210
34,0,2000,5,558.95,psychophysics,769,f,f,simultaneous,f,True,方形,img/S_ambi40.png,square,square,1,exp1,match,98
37,1,2000,5,560.45,psychophysics,820,f,f,simultaneous,f,True,三角,img/S_ambi40.png,square,square,1,exp1,mismatch,187
18,1,2003,5,396.17,psychophysics,669,j,j,simultaneous,j,True,方形,img/T_ambi40.png,triangle,triangle,1,exp1,mismatch,186
40,0,2001,5,420.87,psychophysics,968,f,f,simultaneous,f,True,方形,img/S_ambi40.png,square,square,1,exp1,match,204
35,1,2002,5,454.73,psychophysics,463,j,j,simultaneous,j,True,方形,img/S_ambi40.png,square,square,1,exp1,match,160
10,1,2000,5,634.76,psychophysics,720,j,j,simultaneous,j,True,圆形,img/T_ambi40.png,triangle,triangle,1,exp1,mismatch,212
37,1,2000,5,560.45,psychophysics,732,f,f,simultaneous,f,True,圆形,img/S_ambi40.png,square,square,1,exp1,mismatch,27
19,1,2003,5,424.97,psychophysics,702,j,j,simultaneous,j,True,圆形,img/C_ambi40.png,circle,circle,1,exp1,match,115
29,0,2001,5,511.11,psychophysics,883,f,f,simultaneous,f,True,方形,img/C_ambi40.png,circle,circle,1,exp1,mismatch,185
34,0,2000,5,558.95,psychophysics,775,j,j,simultaneous,j,True,三角,img/S_ambi40.png,square,square,1,exp1,mismatch,77
38,0,2001,5,450.33,psychophysics,970,j,j,simultaneous,j,True,方形,img/T_ambi40.png,triangle,triangle,1,exp1,mismatch,110
34,0,2000,5,558.95,psychophysics,693,f,f,simultaneous,f,True,圆形,img/C_ambi40.png,circle,circle,1,exp1,match,109
38,0,2001,5,450.33,psychophysics,932,f,f,simultaneous,f,True,方形,img/S_ambi40.png,square,square,1,exp1,match,1
7,0,2001,5,611.97,psychophysics,642,f,f,simultaneous,f,True,三角,img/C_ambi40.png,circle,circle,1,exp1,mismatch,155
16,1,2001,5,502.74,psychophysics,683,f,f,simultaneous,f,True,方形,img/S_ambi40.png,square,square,1,exp1,match,20
1,0,2000,5,434.97,psychophysics,729,f,f,simultaneous,f,True,三角,img/S_ambi40.png,square,square,1,exp1,mismatch,40
17,1,2002,5,446.22,psychophysics,753,f,f,simultaneous,j,False,圆形,img/C_ambi40.png,circle,circle,0,exp1,match,71
28,1,2003,5,503.53,psychophysics,499,f,f,simultaneous,f,True,圆形,img/C_ambi40.png,circle,circle,1,exp1,match,107
19,1,2003,5,424.97,psychophysics,687,f,f,simultaneous,f,True,圆形,img/T_ambi40.png,triangle,triangle,1,exp1,mismatch,198
21,0,2001,5,568.37,psychophysics,508,j,j,simultaneous,j,True,圆形,img/C_ambi40.png,circle,circle,1,exp1,match,128
28,1,2003,5,503.53,psychophysics,498,f,f,simultaneous,f,True,三角,img/T_ambi40.png,triangle,triangle,1,exp1,match,36
18,1,2003,5,396.17,psychophysics,610,j,j,simultaneous,f,False,方形,img/S_ambi40.png,square,square,0,exp1,match,210
38,0,2001,5,450.33,psychophysics,727,f,f,simultaneous,f,True,圆形,img/C_ambi40.png,circle,circle,1,exp1,match,155
40,0,2001,5,420.87,psychophysics,844,j,j,simultaneous,j,True,方形,img/C_ambi40.png,circle,circle,1,exp1,mismatch,5
23,1,2003,5,580.70,psychophysics,609,f,f,simultaneous,f,True,三角,img/S_ambi40.png,square,square,1,exp1,mismatch,194
25,1,2000,5,596.57,psychophysics,668,j,j,simultaneous,j,True,方形,img/S_ambi40.png,square,square,1,exp1,match,94
7,0,2001,5,611.97,psychophysics,648,f,f,simultaneous,f,True,方形,img/T_ambi40.png,triangle,triangle,1,exp1,mismatch,173
27,1,2002,5,523.50,psychophysics,677,f,f,simultaneous,f,True,三角,img/S_ambi40.png,square,square,1,exp1,mismatch,231
17,1,2002,5,446.22,psychophysics,657,j,j,simultaneous,j,True,三角,img/T_ambi40.png,triangle,triangle,1,exp1,match,38
25,1,2000,5,596.57,psychophysics,609,f,f,simultaneous,f,True,圆形,img/S_ambi40.png,square,square,1,exp1,mismatch,183
32,1,2004,5,449.09,psychophysics,642,f,f,simultaneous,f,True,三角,img/T_ambi40.png,triangle,triangle,1,exp1,match,81
29,0,2001,5,511.11,psychophysics,573,j,j,simultaneous,j,True,圆形,img/C_ambi40.png,circle,circle,1,exp1,match,159
10,1,2000,5,634.76,psychophysics,638,j,j,simultaneous,j,True,三角,img/S_ambi40.png,square,square,1,exp1,mismatch,215
29,0,2001,5,511.11,psychophysics,526,j,j,simultaneous,j,True,圆形,img/C_ambi40.png,circle,circle,1,exp1,match,51
23,1,2003,5,580.70,psychophysics,712,f,f,simultaneous,f,True,方形,img/C_ambi40.png,circle,circle,1,exp1,mismatch,51
26,0,2001,5,732.87,psychophysics,671,j,j,simultaneous,j,True,三角,img/S_ambi40.png,square,square,1,exp1,mismatch,57
27,1,2002,5,523.50,psychophysics,669,j,j,simultaneous,j,True,圆形,img/C_ambi40.png,circle,circle,1,exp1,match,99
15,1,2003,5,599.88,psychophysics,654,j,j,simultaneous,j,True,方形,img/S_ambi40.png,square,square,1,exp1,match,189
32,1,2004,5,449.09,psychophysics,823,j,j,simultaneous,j,True,三角,img/C_ambi40.png,circle,circle,1,exp1,mismatch,12
21,0,2001,5,568.37,psychophysics,646,f,f,simultaneous,f,True,圆形,img/T_ambi40.png,triangle,triangle,1,exp1,mismatch,133
15,1,2003,5,599.88,psychophysics,857,f,f,simultaneous,f,True,圆形,img/T_ambi40.png,triangle,triangle,1,exp1,mismatch,92
39,1,2000,5,592.33,psychophysics,1057,f,f,simultaneous,f,True,方形,img/C_ambi40.png,circle,circle,1,exp1,mismatch,233
11,0,1999,5,529.13,psychophysics,761,f,f,simultaneous,f,True,三角,img/C_ambi40.png,circle,circle,1,exp1,mismatch,16
1,0,2000,5,434.97,psychophysics,731,f,f,simultaneous,f,True,方形,img/C_ambi40.png,circle,circle,1,exp1,mismatch,19
16,1,2001,5,502.74,psychophysics,716,f,f,simultaneous,f,True,方形,img/S_ambi40.png,square,square,1,exp1,match,23
5,1,1998,6,480.02,psychophysics,1030,f,f,simultaneous,f,True,三角,img/S_ambi40.png,square,square,1,exp1,mismatch,165
30,1,2004,5,559.03,psychophysics,459,f,f,simultaneous,f,True,方形,img/S_ambi40.png,square,square,1,exp1,match,150
12,1,2002,5,574.86,psychophysics,607,j,j,simultaneous,j,True,三角,img/C_ambi40.png,circle,circle,1,exp1,mismatch,193
10,1,2000,5,634.76,psychophysics,654,f,f,simultaneous,f,True,方形,img/S_ambi40.png,square,square,1,exp1,match,58
13,1,2002,5,506.35,psychophysics,734,j,j,simultaneous,j,True,方形,img/S_ambi40.png,square,square,1,exp1,match,25
15,1,2003,5,599.88,psychophysics,593,j,j,simultaneous,j,True,圆形,img/C_ambi40.png,circle,circle,1,exp1,match,151
13,1,2002,5,506.35,psychophysics,869,j,j,simultaneous,f,False,圆形,img/S_ambi40.png,square,square,0,exp1,mismatch,107
21,0,2001,5,568.37,psychophysics,694,f,f,simultaneous,f,True,圆形,img/S_ambi40.png,square,square,1,exp1,mismatch,177
2,0,2000,5,650.78,psychophysics,684,f,f,simultaneous,f,True,圆形,img/C_ambi40.png,circle,circle,1,exp1,match,70
14,1,2003,5,460.48,psychophysics,610,f,f,simultaneous,f,True,圆形,img/C_ambi40.png,circle,circle,1,exp1,match,157
29,0,2001,5,511.11,psychophysics,690,f,f,simultaneous,f,True,圆形,img/T_ambi40.png,triangle,triangle,1,exp1,mismatch,233
9,0,2003,4,467.59,psychophysics,875,f,f,simultaneous,f,True,圆形,img/T_ambi40.png,triangle,triangle,1,exp1,mismatch,153
34,0,2000,5,558.95,psychophysics,920,j,j,simultaneous,j,True,方形,img/C_ambi40.png,circle,circle,1,exp1,mismatch,180
3,0,1995,7,452.95,psychophysics,647,f,f,simultaneous,f,True,方形,img/C_ambi40.png,circle,circle,1,exp1,mismatch,16
4,0,2001,5,590.64,psychophysics,933,j,j,simultaneous,j,True,三角,img/S_ambi40.png,square,square,1,exp1,mismatch,124
11,0,1999,5,529.13,psychophysics,730,j,j,simultaneous,j,True,圆形,img/C_ambi40.png,circle,circle,1,exp1,match,189
2,0,2000,5,650.78,psychophysics,624,f,f,simultaneous,f,True,方形,img/S_ambi40.png,square,square,1,exp1,match,124
38,0,2001,5,450.33,psychophysics,671,f,f,simultaneous,f,True,方形,img/S_ambi40.png,square,square,1,exp1,match,85
4,0,2001,5,590.64,psychophysics,658,f,f,simultaneous,f,True,圆形,img/C_ambi40.png,circle,circle,1,exp1,match,185
9,0,2003,4,467.59,psychophysics,811,j,j,simultaneous,j,True,方形,img/S_ambi40.png,square,square,1,exp1,match,141
31,1,1999,5,429.67,psychophysics,618,f,f,simultaneous,f,True,三角,img/C_ambi40.png,circle,circle,1,exp1,mismatch,97
12,1,2002,5,574.86,psychophysics,731,j,j,simultaneous,j,True,方形,img/T_ambi40.png,triangle,triangle,1,exp1,mismatch,134
31,1,1999,5,429.67,psychophysics,674,f,f,simultaneous,f,True,三角,img/C_ambi40.png,circle,circle,1,exp1,mismatch,30
21,0,2001,5,568.37,psychophysics,590,j,j,simultaneous,j,True,圆形,img/C_ambi40.png,circle,circle,1,exp1,match,151
34,0,2000,5,558.95,psychophysics,824,f,f,simultaneous,f,True,圆形,img/C_ambi40.png,circle,circle,1,exp1,match,166
40,0,2001,5,420.87,psychophysics,634,j,j,simultaneous,j,True,圆形,img/S_ambi40.png,square,square,1,exp1,mismatch,81
34,0,2000,5,558.95,psychophysics,819,f,f,simultaneous,j,False,方形,img/T_ambi40.png,triangle,triangle,0,exp1,mismatch,51
20,1,2001,5,644.35,psychophysics,771,j,j,simultaneous,j,True,圆形,img/S_ambi40.png,square,square,1,exp1,mismatch,94
32,1,2004,5,449.09,psychophysics,862,j,j,simultaneous,j,True,三角,img/S_ambi40.png,square,square,1,exp1,mismatch,25
8,0,2000,5,712.49,psychophysics,804,j,j,simultaneous,j,True,圆形,img/S_ambi40.png,square,square,1,exp1,mismatch,100
39,1,2000,5,592.33,psychophysics,808,j,j,simultaneous,j,True,方形,img/S_ambi40.png,square,square,1,exp1,match,104
2,0,2000,5,650.78,psychophysics,829,j,j,simultaneous,j,True,方形,img/C_ambi40.png,circle,circle,1,exp1,mismatch,240
15,1,2003,5,599.88,psychophysics,554,f,f,simultaneous,f,True,圆形,img/T_ambi40.png,triangle,triangle,1,exp1,mismatch,135
15,1,2003,5,599.88,psychophysics,865,f,f,simultaneous,f,True,三角,img/C_ambi40.png,circle,circle,1,exp1,mismatch,99
16,1,2001,5,502.74,psychophysics,637,f,f,simultaneous,j,False,方形,img/C_ambi40.png,circle,circle,0,exp1,mismatch,164
9,0,2003,4,467.59,psychophysics,654,j,j,simultaneous,j,True,方形,img/S_ambi40.png,square,square,1,exp1,match,64
40,0,2001,5,420.87,psychophysics,593,j,j,simultaneous,j,True,方形,img/C_ambi40.png,circle,circle,1,exp1,mismatch,170
10,1,2000,5,634.76,psychophysics,570,f,f,simultaneous,f,True,三角,img/T_ambi40.png,triangle,triangle,1,exp1,match,198
5,1,1998,6,480.02,psychophysics,817,f,f,simultaneous,f,True,方形,img/C_ambi40.png,circle,circle,1,exp1,mismatch,227
25,1,2000,5,596.57,psychophysics,914,f,f,simultaneous,f,True,三角,img/S_ambi40.png,square,square,1,exp1,mismatch,16
38,0,2001,5,450.33,psychophysics,905,f,f,simultaneous,f,True,三角,img/T_ambi40.png,triangle,triangle,1,exp1,match,224
34,0,2000,5,558.95,psychophysics,714,f,f,simultaneous,f,True,三角,img/T_ambi40.png,triangle,triangle,1,exp1,match,148
24,1,2001,5,627.24,psychophysics,1075,f,f,simultaneous,f,True,圆形,img/C_ambi40.png,circle,circle,1,exp1,match,195
1,0,2000,5,434.97,psychophysics,804,j,j,simultaneous,j,True,三角,img/T_ambi40.png,triangle,triangle,1,exp1,match,97
4,0,2001,5,590.64,psychophysics,834,j,j,simultaneous,j,True,圆形,img/S_ambi40.png,square,square,1,exp1,mismatch,2
2,0,2000,5,650.78,psychophysics,528,j,j,simultaneous,j,True,圆形,img/S_ambi40.png,square,square,1,exp1,mismatch,107
9,0,2003,4,467.59,psychophysics,696,f,f,simultaneous,f,True,三角,img/S_ambi40.png,square,square,1,exp1,mismatch,223
25,1,2000,5,596.57,psychophysics,571,j,j,simultaneous,j,True,方形,img/S_ambi40.png,square,square,1,exp1,match,87
39,1,2000,5,592.33,psychophysics,646,j,j,simultaneous,j,True,方形,img/S_ambi40.png,square,square,1,exp1,match,86
15,1,2003,5,599.88,psychophysics,810,f,f,simultaneous,f,True,圆形,img/T_ambi40.png,triangle,triangle,1,exp1,mismatch,53
26,0,2001,5,732.87,psychophysics,549,f,f,simultaneous,f,True,三角,img/T_ambi40.png,triangle,triangle,1,exp1,match,98
19,1,2003,5,424.97,psychophysics,702,f,f,simultaneous,f,True,方形,img/T_ambi40.png,triangle,triangle,1,exp1,mismatch,156
21,0,2001,5,568.37,psychophysics,864,j,j,simultaneous,j,True,圆形,img/C_ambi40.png,circle,circle,1,exp1,match,199
36,0,2000,5,564.96,psychophysics,376,f,f,simultaneous,f,True,圆形,img/C_ambi40.png,circle,circle,1,exp1,match,35
31,1,1999,5,429.67,psychophysics,736,f,f,simultaneous,f,True,圆形,img/S_ambi40.png,square,square,1,exp1,mismatch,144
1,0,2000,5,434.97,psychophysics,946,f,f,simultaneous,f,True,方形,img/T_ambi40.png,triangle,triangle,1,exp1,mismatch,180
39,1,2000,5,592.33,psychophysics,482,j,j,simultaneous,f,False,方形,img/T_ambi40.png,triangle,triangle,0,exp1,mismatch,168
3,0,1995,7,452.95,psychophysics,570,j,j,simultaneous,j,True,方形,img/S_ambi40.png,square,square,1,exp1,match,148
21,0,2001,5,568.37,psychophysics,569,f,f,simultaneous,f,True,三角,img/S_ambi40.png,square,square,1,exp1,mismatch,143
25,1,2000,5,596.57,psychophysics,776,j,j,simultaneous,j,True,圆形,img/C_ambi40.png,circle,circle,1,exp1,match,175
16,1,2001,5,502.74,psychophysics,636,j,j,simultaneous,j,True,圆形,img/S_ambi40.png,square,square,1,exp1,mismatch,92
21,0,2001,5,568.37,psychophysics,589,j,j,simultaneous,j,True,方形,img/S_ambi40.png,square,square,1,exp1,match,208
1,0,2000,5,434.97,psychophysics,737,j,j,simultaneous,j,True,方形,img/S_ambi40.png,square,square,1,exp1,match,7
40,0,2001,5,420.87,psychophysics,637,j,j,simultaneous,j,True,三角,img/C_ambi40.png,circle,circle,1,exp1,mismatch,198
13,1,2002,5,506.35,psychophysics,689,j,j,simultaneous,j,True,圆形,img/C_ambi40.png,circle,circle,1,exp1,match,177
4,0,2001,5,590.64,psychophysics,660,j,j,simultaneous,j,True,方形,img/C_ambi40.png,circle,circle,1,exp1,mismatch,126
33,0,2000,5,628.58,psychophysics,685,j,j,simultaneous,j,True,方形,img/S_ambi40.png,square,square,1,exp1,match,110
7,0,2001,5,611.97,psychophysics,676,j,j,simultaneous,j,True,方形,img/S_ambi40.png,square,square,1,exp1,match,81
35,1,2002,5,454.73,psychophysics,440,j,j,simultaneous,j,True,方形,img/S_ambi40.png,square,square,1,exp1,match,224
16,1,2001,5,502.74,psychophysics,636,f,f,simultaneous,f,True,圆形,img/C_ambi40.png,circle,circle,1,exp1,match,2
28,1,2003,5,503.53,psychophysics,567,j,j,simultaneous,j,True,三角,img/C_ambi40.png,circle,circle,1,exp1,mismatch,228
15,1,2003,5,599.88,psychophysics,596,j,j,simultaneous,f,False,圆形,img/S_ambi40.png,square,square,0,exp1,mismatch,139
29,0,2001,5,511.11,psychophysics,893,j,j,simultaneous,j,True,方形,img/S_ambi40.png,square,square,1,exp1,match,23
14,1,2003,5,460.48,psychophysics,647,f,f,simultaneous,f,True,三角,img/T_ambi40.png,triangle,triangle,1,exp1,match,239
13,1,2002,5,506.35,psychophysics,624,f,f,simultaneous,f,True,方形,img/T_ambi40.png,triangle,triangle,1,exp1,mismatch,217
24,1,2001,5,627.24,psychophysics,1054,j,j,simultaneous,j,True,圆形,img/S_ambi40.png,square,square,1,exp1,mismatch,52
16,1,2001,5,502.74,psychophysics,572,f,f,simultaneous,f,True,三角,img/T_ambi40.png,triangle,triangle,1,exp1,match,133
9,0,2003,4,467.59,psychophysics,801,f,f,simultaneous,f,True,方形,img/T_ambi40.png,triangle,triangle,1,exp1,mismatch,238
40,0,2001,5,420.87,psychophysics,878,j,j,simultaneous,j,True,圆形,img/T_ambi40.png,triangle,triangle,1,exp1,mismatch,187
36,0,2000,5,564.96,psychophysics,511,f,f,simultaneous,f,True,圆形,img/C_ambi40.png,circle,circle,1,exp1,match,222
34,0,2000,5,558.95,psychophysics,710,j,j,simultaneous,j,True,圆形,img/T_ambi40.png,triangle,triangle,1,exp1,mismatch,33
19,1,2003,5,424.97,psychophysics,525,j,j,simultaneous,j,True,方形,img/S_ambi40.png,square,square,1,exp1,match,149
1,0,2000,5,434.97,psychophysics,767,f,f,simultaneous,f,True,方形,img/C_ambi40.png,circle,circle,1,exp1,mismatch,10
33,0,2000,5,628.58,psychophysics,724,f,f,simultaneous,f,True,圆形,img/S_ambi40.png,square,square,1,exp1,mismatch,24
30,1,2004,5,559.03,psychophysics,534,j,j,simultaneous,j,True,圆形,img/T_ambi40.png,triangle,triangle,1,exp1,mismatch,16
33,0,2000,5,628.58,psychophysics,613,j,j,simultaneous,j,True,圆形,img/C_ambi40.png,circle,circle,1,exp1,match,120
31,1,1999,5,429.67,psychophysics,665,f,f,simultaneous,f,True,圆形,img/S_ambi40.png,square,square,1,exp1,mismatch,75
39,1,2000,5,592.33,psychophysics,960,f,f,simultaneous,f,True,三角,img/S_ambi40.png,square,square,1,exp1,mismatch,70
30,1,2004,5,559.03,psychophysics,495,j,j,simultaneous,f,False,圆形,img/C_ambi40.png,circle,circle,0,exp1,match,183
38,0,2001,5,450.33,psychophysics,680,f,f,simultaneous,f,True,圆形,img/C_ambi40.png,circle,circle,1,exp1,match,38
33,0,2000,5,628.58,psychophysics,857,f,f,simultaneous,f,True,方形,img/C_ambi40.png,circle,circle,1,exp1,mismatch,208
6,0,1997,6,518.58,psychophysics,667,f,f,simultaneous,f,True,三角,img/T_ambi40.png,triangle,triangle,1,exp1,match,229
9,0,2003,4,467.59,psychophysics,764,j,j,simultaneous,j,True,方形,img/S_ambi40.png,square,square,1,exp1,match,214
11,0,1999,5,529.13,psychophysics,982,f,f,simultaneous,f,True,方形,img/T_ambi40.png,triangle,triangle,1,exp1,mismatch,173
27,1,2002,5,523.50,psychophysics,602,j,j,simultaneous,j,True,方形,img/S_ambi40.png,square,square,1,exp1,match,36
32,1,2004,5,449.09,psychophysics,567,f,f,simultaneous,f,True,三角,img/T_ambi40.png,triangle,triangle,1,exp1,match,166
26,0,2001,5,732.87,psychophysics,569,j,j,simultaneous,j,True,圆形,img/T_ambi40.png,triangle,triangle,1,exp1,mismatch,151
6,0,1997,6,518.58,psychophysics,518,f,f,simultaneous,f,True,方形,img/S_ambi40.png,square,square,1,exp1,match,53
17,1,2002,5,446.22,psychophysics,699,j,j,simultaneous,j,True,方形,img/S_ambi40.png,square,square,1,exp1,match,193
26,0,2001,5,732.87,psychophysics,620,f,f,simultaneous,f,True,三角,img/T_ambi40.png,triangle,triangle,1,exp1,match,174
31,1,1999,5,429.67,psychophysics,617,f,f,simultaneous,f,True,圆形,img/S_ambi40.png,square,square,1,exp1,mismatch,125
32,1,2004,5,449.09,psychophysics,499,j,j,simultaneous,j,True,三角,img/S_ambi40.png,square,square,1,exp1,mismatch,144
15,1,2003,5,599.88,psychophysics,654,f,f,simultaneous,f,True,圆形,img/T_ambi40.png,triangle,triangle,1,exp1,mismatch,191
26,0,2001,5,732.87,psychophysics,609,j,j,simultaneous,j,True,三角,img/C_ambi40.png,circle,circle,1,exp1,mismatch,131
12,1,2002,5,574.86,psychophysics,598,j,j,simultaneous,j,True,三角,img/C_ambi40.png,circle,circle,1,exp1,mismatch,213
20,1,2001,5,644.35,psychophysics,1165,j,j,simultaneous,j,True,三角,img/C_ambi40.png,circle,circle,1,exp1,mismatch,13
7,0,2001,5,611.97,psychophysics,522,j,j,simultaneous,j,True,三角,img/T_ambi40.png,triangle,triangle,1,exp1,match,225
21,0,2001,5,568.37,psychophysics,699,f,f,simultaneous,f,True,方形,img/T_ambi40.png,triangle,triangle,1,exp1,mismatch,227
3,0,1995,7,452.95,psychophysics,691,f,f,simultaneous,f,True,圆形,img/T_ambi40.png,triangle,triangle,1,exp1,mismatch,22
34,0,2000,5,558.95,psychophysics,847,j,j,simultaneous,j,True,圆形,img/T_ambi40.png,triangle,triangle,1,exp1,mismatch,220
14,1,2003,5,460.48,psychophysics,732,j,j,simultaneous,j,True,三角,img/C_ambi40.png,circle,circle,1,exp1,mismatch,131
2,0,2000,5,650.78,psychophysics,512,f,f,simultaneous,f,True,三角,img/T_ambi40.png,triangle,triangle,1,exp1,match,183
22,0,2001,5,608.11,psychophysics,541,j,j,simultaneous,j,True,圆形,img/T_ambi40.png,triangle,triangle,1,exp1,mismatch,206
24,1,2001,5,627.24,psychophysics,1208,f,f,simultaneous,f,True,方形,img/S_ambi40.png,square,square,1,exp1,match,97
33,0,2000,5,628.58,psychophysics,854,f,f,simultaneous,f,True,方形,img/T_ambi40.png,triangle,triangle,1,exp1,mismatch,187
11,0,1999,5,529.13,psychophysics,848,j,j,simultaneous,j,True,圆形,img/C_ambi40.png,circle,circle,1,exp1,match,39
6,0,1997,6,518.58,psychophysics,627,j,j,simultaneous,j,True,圆形,img/T_ambi40.png,triangle,triangle,1,exp1,mismatch,191
35,1,2002,5,454.73,psychophysics,594,f,f,simultaneous,f,True,方形,img/C_ambi40.png,circle,circle,1,exp1,mismatch,203
22,0,2001,5,608.11,psychophysics,597,j,j,simultaneous,j,True,三角,img/S_ambi40.png,square,square,1,exp1,mismatch,41
3,0,1995,7,452.95,psychophysics,638,f,f,simultaneous,f,True,三角,img/C_ambi40.png,circle,circle,1,exp1,mismatch,173
20,1,2001,5,644.35,psychophysics,829,f,f,simultaneous,f,True,圆形,img/C_ambi40.png,circle,circle,1,exp1,match,51
27,1,2002,5,523.50,psychophysics,711,j,j,simultaneous,j,True,三角,img/T_ambi40.png,triangle,triangle,1,exp1,match,236
34,0,2000,5,558.95,psychophysics,779,f,f,simultaneous,f,True,方形,img/S_ambi40.png,square,square,1,exp1,match,235
20,1,2001,5,644.35,psychophysics,800,j,j,simultaneous,j,True,圆形,img/T_ambi40.png,triangle,triangle,1,exp1,mismatch,191
16,1,2001,5,502.74,psychophysics,757,j,j,simultaneous,j,True,三角,img/C_ambi40.png,circle,circle,1,exp1,mismatch,222
22,0,2001,5,608.11,psychophysics,594,f,f,simultaneous,f,True,方形,img/S_ambi40.png,square,square,1,exp1,match,38
9,0,2003,4,467.59,psychophysics,753,j,j,simultaneous,j,True,圆形,img/C_ambi40.png,circle,circle,1,exp1,match,25
40,0,2001,5,420.87,psychophysics,993,j,j,simultaneous,f,False,圆形,img/C_ambi40.png,circle,circle,0,exp1,match,106
15,1,2003,5,599.88,psychophysics,597,j,j,simultaneous,j,True,方形,img/S_ambi40.png,square,square,1,exp1,match,213
36,0,2000,5,564.96,psychophysics,775,f,f,simultaneous,f,True,方形,img/S_ambi40.png,square,square,1,exp1,match,124
24,1,2001,5,627.24,psychophysics,719,j,j,simultaneous,j,True,方形,img/T_ambi40.png,triangle,triangle,1,exp1,mismatch,90
26,0,2001,5,732.87,psychophysics,743,j,j,simultaneous,f,False,圆形,img/C_ambi40.png,circle,circle,0,exp1,match,87
21,0,2001,5,568.37,psychophysics,710,f,f,simultaneous,f,True,圆形,img/S_ambi40.png,square,square,1,exp1,mismatch,107
27,1,2002,5,523.50,psychophysics,698,j,j,simultaneous,j,True,方形,img/S_ambi40.png,square,square,1,exp1,match,201
11,0,1999,5,529.13,psychophysics,685,f,f,simultaneous,f,True,三角,img/S_ambi40.png,square,square,1,exp1,mismatch,187
11,0,1999,5,529.13,psychophysics,737,j,j,simultaneous,j,True,圆形,img/C_ambi40.png,circle,circle,1,exp1,match,89
20,1,2001,5,644.35,psychophysics,796,f,f,simultaneous,f,True,圆形,img/C_ambi40.png,circle,circle,1,exp1,match,218
17,1,2002,5,446.22,psychophysics,900,f,f,simultaneous,f,True,方形,img/C_ambi40.png,circle,circle,1,exp1,mismatch,151
18,1,2003,5,396.17,psychophysics,684,j,j,simultaneous,j,True,圆形,img/T_ambi40.png,triangle,triangle,1,exp1,mismatch,228
21,0,2001,5,568.37,psychophysics,899,f,f,simultaneous,f,True,方形,img/C_ambi40.png,circle,circle,1,exp1,mismatch,29
11,0,1999,5,529.13,psychophysics,825,j,j,simultaneous,j,True,方形,img/S_ambi40.png,square,square,1,exp1,match,181
35,1,2002,5,454.73,psychophysics,734,j,j,simultaneous,j,True,方形,img/S_ambi40.png,square,square,1,exp1,match,212
12,1,2002,5,574.86,psychophysics,606,f,f,simultaneous,f,True,圆形,img/C_ambi40.png,circle,circle,1,exp1,match,154
34,0,2000,5,558.95,psychophysics,713,f,f,simultaneous,f,True,方形,img/S_ambi40.png,square,square,1,exp1,match,37
39,1,2000,5,592.33,psychophysics,750,j,j,simultaneous,j,True,三角,img/T_ambi40.png,triangle,triangle,1,exp1,match,239
28,1,2003,5,503.53,psychophysics,525,f,f,simultaneous,f,True,方形,img/S_ambi40.png,square,square,1,exp1,match,68
35,1,2002,5,454.73,psychophysics,532,f,f,simultaneous,f,True,三角,img/S_ambi40.png,square,square,1,exp1,mismatch,154
24,1,2001,5,627.24,psychophysics,828,f,f,simultaneous,f,True,方形,img/S_ambi40.png,square,square,1,exp1,match,154
9,0,2003,4,467.59,psychophysics,1043,j,j,simultaneous,j,True,圆形,img/C_ambi40.png,circle,circle,1,exp1,match,3
27,1,2002,5,523.50,psychophysics,688,j,j,simultaneous,f,False,方形,img/C_ambi40.png,circle,circle,0,exp1,mismatch,114
28,1,2003,5,503.53,psychophysics,658,j,j,simultaneous,j,True,方形,img/C_ambi40.png,circle,circle,1,exp1,mismatch,100
1,0,2000,5,434.97,psychophysics,587,j,j,simultaneous,j,True,三角,img/T_ambi40.png,triangle,triangle,1,exp1,match,124
6,0,1997,6,518.58,psychophysics,596,j,j,simultaneous,j,True,圆形,img/S_ambi40.png,square,square,1,exp1,mismatch,205
20,1,2001,5,644.35,psychophysics,1080,f,f,simultaneous,f,True,三角,img/T_ambi40.png,triangle,triangle,1,exp1,match,167
38,0,2001,5,450.33,psychophysics,691,f,f,simultaneous,f,True,方形,img/S_ambi40.png,square,square,1,exp1,match,203
38,0,2001,5,450.33,psychophysics,766,f,f,simultaneous,f,True,方形,img/S_ambi40.png,square,square,1,exp1,match,173
9,0,2003,4,467.59,psychophysics,659,f,f,simultaneous,f,True,圆形,img/T_ambi40.png,triangle,triangle,1,exp1,mismatch,46
31,1,1999,5,429.67,psychophysics,634,j,j,simultaneous,j,True,圆形,img/C_ambi40.png,circle,circle,1,exp1,match,81
29,0,2001,5,511.11,psychophysics,780,j,j,simultaneous,j,True,方形,img/S_ambi40.png,square,square,1,exp1,match,196
31,1,1999,5,429.67,psychophysics,845,f,f,simultaneous,f,True,方形,img/T_ambi40.png,triangle,triangle,1,exp1,mismatch,42
20,1,2001,5,644.35,psychophysics,858,j,j,simultaneous,j,True,方形,img/T_ambi40.png,triangle,triangle,1,exp1,mismatch,119
28,1,2003,5,503.53,psychophysics,495,f,f,simultaneous,f,True,三角,img/T_ambi40.png,triangle,triangle,1,exp1,match,98
15,1,2003,5,599.88,psychophysics,735,f,f,simultaneous,f,True,三角,img/C_ambi40.png,circle,circle,1,exp1,mismatch,19
18,1,2003,5,396.17,psychophysics,639,f,f,simultaneous,j,False,三角,img/C_ambi40.png,circle,circle,0,exp1,mismatch,57
31,1,1999,5,429.67,psychophysics,902,f,f,simultaneous,f,True,圆形,img/S_ambi40.png,square,square,1,exp1,mismatch,179
33,0,2000,5,628.58,psychophysics,670,f,f,simultaneous,f,True,三角,img/C_ambi40.png,circle,circle,1,exp1,mismatch,159
14,1,2003,5,460.48,psychophysics,522,f,f,simultaneous,f,True,三角,img/T_ambi40.png,triangle,triangle,1,exp1,match,60
11,0,1999,5,529.13,psychophysics,703,f,f,simultaneous,f,True,圆形,img/S_ambi40.png,square,square,1,exp1,mismatch,122
12,1,2002,5,574.86,psychophysics,623,j,j,simultaneous,j,True,三角,img/S_ambi40.png,square,square,1,exp1,mismatch,30
23,1,2003,5,580.70,psychophysics,476,j,j,simultaneous,j,True,三角,img/T_ambi40.png,triangle,triangle,1,exp1,match,240
38,0,2001,5,450.33,psychophysics,994,j,j,simultaneous,j,True,方形,img/T_ambi40.png,triangle,triangle,1,exp1,mismatch,162
9,0,2003,4,467.59,psychophysics,676,f,f,simultaneous,f,True,方形,img/C_ambi40.png,circle,circle,1,exp1,mismatch,57
34,0,2000,5,558.95,psychophysics,972,j,j,simultaneous,j,True,圆形,img/T_ambi40.png,triangle,triangle,1,exp1,mismatch,73
13,1,2002,5,506.35,psychophysics,926,j,j,simultaneous,j,True,圆形,img/C_ambi40.png,circle,circle,1,exp1,match,41
15,1,2003,5,599.88,psychophysics,656,j,j,simultaneous,j,True,圆形,img/C_ambi40.png,circle,circle,1,exp1,match,36
10,1,2000,5,634.76,psychophysics,857,j,j,simultaneous,j,True,圆形,img/T_ambi40.png,triangle,triangle,1,exp1,mismatch,82
15,1,2003,5,599.88,psychophysics,643,j,j,simultaneous,j,True,圆形,img/C_ambi40.png,circle,circle,1,exp1,match,150
10,1,2000,5,634.76,psychophysics,927,j,j,simultaneous,j,True,方形,img/C_ambi40.png,circle,circle,1,exp1,mismatch,178
1,0,2000,5,434.97,psychophysics,676,f,f,simultaneous,f,True,圆形,img/T_ambi40.png,triangle,triangle,1,exp1,mismatch,189
22,0,2001,5,608.11,psychophysics,568,j,j,simultaneous,j,True,圆形,img/T_ambi40.png,triangle,triangle,1,exp1,mismatch,152
31,1,1999,5,429.67,psychophysics,608,j,j,simultaneous,f,False,方形,img/T_ambi40.png,triangle,triangle,0,exp1,mismatch,115
21,0,2001,5,568.37,psychophysics,552,j,j,simultaneous,j,True,三角,img/T_ambi40.png,triangle,triangle,1,exp1,match,81
21,0,2001,5,568.37,psychophysics,595,f,f,simultaneous,f,True,圆形,img/S_ambi40.png,square,square,1,exp1,mismatch,88
20,1,2001,5,644.35,psychophysics,786,j,j,simultaneous,j,True,三角,img/C_ambi40.png,circle,circle,1,exp1,mismatch,210
13,1,2002,5,506.35,psychophysics,726,f,f,simultaneous,f,True,方形,img/T_ambi40.png,triangle,triangle,1,exp1,mismatch,200
34,0,2000,5,558.95,psychophysics,648,f,f,simultaneous,f,True,三角,img/T_ambi40.png,triangle,triangle,1,exp1,match,199
2,0,2000,5,650.78,psychophysics,892,j,j,simultaneous,j,True,方形,img/C_ambi40.png,circle,circle,1,exp1,mismatch,200
4,0,2001,5,590.64,psychophysics,1153,f,f,simultaneous,f,True,三角,img/T_ambi40.png,triangle,triangle,1,exp1,match,200
17,1,2002,5,446.22,psychophysics,594,f,f,simultaneous,f,True,圆形,img/S_ambi40.png,square,square,1,exp1,mismatch,89
17,1,2002,5,446.22,psychophysics,724,f,f,simultaneous,f,True,三角,img/C_ambi40.png,circle,circle,1,exp1,mismatch,200
22,0,2001,5,608.11,psychophysics,557,j,j,simultaneous,f,False,三角,img/T_ambi40.png,triangle,triangle,0,exp1,match,159
24,1,2001,5,627.24,psychophysics,790,f,f,simultaneous,f,True,方形,img/S_ambi40.png,square,square,1,exp1,match,134
14,1,2003,5,460.48,psychophysics,429,f,f,simultaneous,f,True,圆形,img/C_ambi40.png,circle,circle,1,exp1,match,9
29,0,2001,5,511.11,psychophysics,1135,j,j,simultaneous,j,True,圆形,img/C_ambi40.png,circle,circle,1,exp1,match,188
7,0,2001,5,611.97,psychophysics,589,f,f,simultaneous,f,True,方形,img/C_ambi40.png,circle,circle,1,exp1,mismatch,175
27,1,2002,5,523.50,psychophysics,714,j,j,simultaneous,j,True,圆形,img/C_ambi40.png,circle,circle,1,exp1,match,61
13,1,2002,5,506.35,psychophysics,825,f,f,simultaneous,f,True,圆形,img/S_ambi40.png,square,square,1,exp1,mismatch,202
38,0,2001,5,450.33,psychophysics,758,f,f,simultaneous,f,True,方形,img/S_ambi40.png,square,square,1,exp1,match,34
1,0,2000,5,434.97,psychophysics,656,j,j,simultaneous,j,True,三角,img/T_ambi40.png,triangle,triangle,1,exp1,match,217
34,0,2000,5,558.95,psychophysics,755,j,j,simultaneous,j,True,方形,img/T_ambi40.png,triangle,triangle,1,exp1,mismatch,105
13,1,2002,5,506.35,psychophysics,726,f,f,simultaneous,f,True,方形,img/C_ambi40.png,circle,circle,1,exp1,mismatch,235
40,0,2001,5,420.87,psychophysics,708,f,f,simultaneous,f,True,方形,img/S_ambi40.png,square,square,1,exp1,match,197
19,1,2003,5,424.97,psychophysics,601,j,j,simultaneous,j,True,三角,img/T_ambi40.png,triangle,triangle,1,exp1,match,219
36,0,2000,5,564.96,psychophysics,812,f,f,simultaneous,f,True,方形,img/S_ambi40.png,square,square,1,exp1,match,88
7,0,2001,5,611.97,psychophysics,576,j,j,simultaneous,j,True,方形,img/S_ambi40.png,square,square,1,exp1,match,216
27,1,2002,5,523.50,psychophysics,625,f,f,simultaneous,f,True,圆形,img/T_ambi40.png,triangle,triangle,1,exp1,mismatch,211
19,1,2003,5,424.97,psychophysics,903,j,j,simultaneous,j,True,三角,img/T_ambi40.png,triangle,triangle,1,exp1,match,141
3,0,1995,7,452.95,psychophysics,633,f,f,simultaneous,j,False,圆形,img/C_ambi40.png,circle,circle,0,exp1,match,91
38,0,2001,5,450.33,psychophysics,619,f,f,simultaneous,f,True,圆形,img/C_ambi40.png,circle,circle,1,exp1,match,199
34,0,2000,5,558.95,psychophysics,762,j,j,simultaneous,j,True,圆形,img/S_ambi40.png,square,square,1,exp1,mismatch,227
39,1,2000,5,592.33,psychophysics,760,j,j,simultaneous,j,True,方形,img/S_ambi40.png,square,square,1,exp1,match,15
17,1,2002,5,446.22,psychophysics,798,j,j,simultaneous,f,False,方形,img/C_ambi40.png,circle,circle,0,exp1,mismatch,35
9,0,2003,4,467.59,psychophysics,732,j,j,simultaneous,j,True,方形,img/S_ambi40.png,square,square,1,exp1,match,235
18,1,2003,5,396.17,psychophysics,713,j,j,simultaneous,j,True,圆形,img/T_ambi40.png,triangle,triangle,1,exp1,mismatch,37
36,0,2000,5,564.96,psychophysics,836,j,j,simultaneous,j,True,方形,img/T_ambi40.png,triangle,triangle,1,exp1,mismatch,106
25,1,2000,5,596.57,psychophysics,676,f,f,simultaneous,f,True,方形,img/T_ambi40.png,triangle,triangle,1,exp1,mismatch,151
22,0,2001,5,608.11,psychophysics,753,f,f,simultaneous,f,True,三角,img/T_ambi40.png,triangle,triangle,1,exp1,match,49
37,1,2000,5,560.45,psychophysics,923,f,f,simultaneous,f,True,圆形,img/S_ambi40.png,square,square,1,exp1,mismatch,145
7,0,2001,5,611.97,psychophysics,658,f,f,simultaneous,f,True,圆形,img/T_ambi40.png,triangle,triangle,1,exp1,mismatch,152
11,0,1999,5,529.13,psychophysics,720,j,j,simultaneous,j,True,圆形,img/C_ambi40.png,circle,circle,1,exp1,match,116
34,0,2000,5,558.95,psychophysics,817,j,j,simultaneous,j,True,圆形,img/S_ambi40.png,square,square,1,exp1,mismatch,231
4,0,2001,5,590.64,psychophysics,922,f,f,simultaneous,f,True,方形,img/S_ambi40.png,square,square,1,exp1,match,137
36,0,2000,5,564.96,psychophysics,751,j,j,simultaneous,j,True,方形,img/C_ambi40.png,circle,circle,1,exp1,mismatch,239
2,0,2000,5,650.78,psychophysics,534,f,f,simultaneous,f,True,圆形,img/C_ambi40.png,circle,circle,1,exp1,match,92
20,1,2001,5,644.35,psychophysics,707,j,j,simultaneous,j,True,方形,img/C_ambi40.png,circle,circle,1,exp1,mismatch,90
26,0,2001,5,732.87,psychophysics,665,f,f,simultaneous,f,True,圆形,img/C_ambi40.png,circle,circle,1,exp1,match,134
14,1,2003,5,460.48,psychophysics,522,f,f,simultaneous,j,False,方形,img/T_ambi40.png,triangle,triangle,0,exp1,mismatch,11
36,0,2000,5,564.96,psychophysics,608,f,f,simultaneous,f,True,三角,img/T_ambi40.png,triangle,triangle,1,exp1,match,67
31,1,1999,5,429.67,psychophysics,690,f,f,simultaneous,f,True,三角,img/S_ambi40.png,square,square,1,exp1,mismatch,170
34,0,2000,5,558.95,psychophysics,805,j,j,simultaneous,f,False,三角,img/T_ambi40.png,triangle,triangle,0,exp1,match,70
10,1,2000,5,634.76,psychophysics,726,j,j,simultaneous,j,True,方形,img/T_ambi40.png,triangle,triangle,1,exp1,mismatch,87
12,1,2002,5,574.86,psychophysics,953,j,j,simultaneous,j,True,圆形,img/T_ambi40.png,triangle,triangle,1,exp1,mismatch,51
35,1,2002,5,454.73,psychophysics,528,j,j,simultaneous,j,True,三角,img/T_ambi40.png,triangle,triangle,1,exp1,match,44
16,1,2001,5,502.74,psychophysics,624,j,j,simultaneous,j,True,圆形,img/S_ambi40.png,square,square,1,exp1,mismatch,232
13,1,2002,5,506.35,psychophysics,841,j,j,simultaneous,j,True,方形,img/S_ambi40.png,square,square,1,exp1,match,96
28,1,2003,5,503.53,psychophysics,506,f,f,simultaneous,f,True,方形,img/S_ambi40.png,square,square,1,exp1,match,7
25,1,2000,5,596.57,psychophysics,607,f,f,simultaneous,f,True,圆形,img/T_ambi40.png,triangle,triangle,1,exp1,mismatch,209
6,0,1997,6,518.58,psychophysics,911,f,f,simultaneous,f,True,方形,img/S_ambi40.png,square,square,1,exp1,match,203
32,1,2004,5,449.09,psychophysics,508,f,f,simultaneous,f,True,圆形,img/C_ambi40.png,circle,circle,1,exp1,match,93
13,1,2002,5,506.35,psychophysics,769,f,f,simultaneous,f,True,方形,img/T_ambi40.png,triangle,triangle,1,exp1,mismatch,173
16,1,2001,5,502.74,psychophysics,564,f,f,simultaneous,f,True,圆形,img/C_ambi40.png,circle,circle,1,exp1,match,96
26,0,2001,5,732.87,psychophysics,529,j,j,simultaneous,f,False,圆形,img/C_ambi40.png,circle,circle,0,exp1,match,194
17,1,2002,5,446.22,psychophysics,728,j,j,simultaneous,f,False,三角,img/S_ambi40.png,square,square,0,exp1,mismatch,27
8,0,2000,5,712.49,psychophysics,824,f,f,simultaneous,f,True,方形,img/S_ambi40.png,square,square,1,exp1,match,134
8,0,2000,5,712.49,psychophysics,929,f,f,simultaneous,f,True,方形,img/S_ambi40.png,square,square,1,exp1,match,33
22,0,2001,5,608.11,psychophysics,558,j,j,simultaneous,j,True,圆形,img/S_ambi40.png,square,square,1,exp1,mismatch,173
29,0,2001,5,511.11,psychophysics,832,j,j,simultaneous,j,True,方形,img/S_ambi40.png,square,square,1,exp1,match,85
37,1,2000,5,560.45,psychophysics,603,j,j,simultaneous,j,True,方形,img/S_ambi40.png,square,square,1,exp1,match,207
23,1,2003,5,580.70,psychophysics,547,j,j,simultaneous,f,False,方形,img/C_ambi40.png,circle,circle,0,exp1,mismatch,24
26,0,2001,5,732.87,psychophysics,680,f,f,simultaneous,f,True,圆形,img/C_ambi40.png,circle,circle,1,exp1,match,205
35,1,2002,5,454.73,psychophysics,596,f,f,simultaneous,f,True,圆形,img/T_ambi40.png,triangle,triangle,1,exp1,mismatch,68
17,1,2002,5,446.22,psychophysics,659,f,f,simultaneous,f,True,三角,img/S_ambi40.png,square,square,1,exp1,mismatch,92
38,0,2001,5,450.33,psychophysics,601,j,j,simultaneous,j,True,圆形,img/T_ambi40.png,triangle,triangle,1,exp1,mismatch,222
27,1,2002,5,523.50,psychophysics,604,j,j,simultaneous,j,True,方形,img/S_ambi40.png,square,square,1,exp1,match,105
19,1,2003,5,424.97,psychophysics,577,f,f,simultaneous,f,True,方形,img/C_ambi40.png,circle,circle,1,exp1,mismatch,74
12,1,2002,5,574.86,psychophysics,623,j,j,simultaneous,j,True,圆形,img/S_ambi40.png,square,square,1,exp1,mismatch,197
25,1,2000,5,596.57,psychophysics,610,f,f,simultaneous,f,True,方形,img/T_ambi40.png,triangle,triangle,1,exp1,mismatch,158
17,1,2002,5,446.22,psychophysics,752,f,f,simultaneous,f,True,方形,img/T_ambi40.png,triangle,triangle,1,exp1,mismatch,53
29,0,2001,5,511.11,psychophysics,879,f,f,simultaneous,f,True,三角,img/S_ambi40.png,square,square,1,exp1,mismatch,10
14,1,2003,5,460.48,psychophysics,527,j,j,simultaneous,j,True,三角,img/C_ambi40.png,circle,circle,1,exp1,mismatch,43
36,0,2000,5,564.96,psychophysics,669,j,j,simultaneous,j,True,三角,img/C_ambi40.png,circle,circle,1,exp1,mismatch,96
10,1,2000,5,634.76,psychophysics,714,j,j,simultaneous,j,True,方形,img/C_ambi40.png,circle,circle,1,exp1,mismatch,151
37,1,2000,5,560.45,psychophysics,641,f,f,simultaneous,j,False,圆形,img/C_ambi40.png,circle,circle,0,exp1,match,37
30,1,2004,5,559.03,psychophysics,690,j,j,simultaneous,j,True,方形,img/T_ambi40.png,triangle,triangle,1,exp1,mismatch,83
18,1,2003,5,396.17,psychophysics,984,f,f,simultaneous,f,True,三角,img/T_ambi40.png,triangle,triangle,1,exp1,match,92
37,1,2000,5,560.45,psychophysics,610,j,j,simultaneous,j,True,圆形,img/C_ambi40.png,circle,circle,1,exp1,match,15
35,1,2002,5,454.73,psychophysics,960,f,f,simultaneous,f,True,三角,img/C_ambi40.png,circle,circle,1,exp1,mismatch,13
23,1,2003,5,580.70,psychophysics,562,j,j,simultaneous,f,False,圆形,img/S_ambi40.png,square,square,0,exp1,mismatch,43
2,0,2000,5,650.78,psychophysics,679,j,j,simultaneous,j,True,圆形,img/S_ambi40.png,square,square,1,exp1,mismatch,199
7,0,2001,5,611.97,psychophysics,680,j,j,simultaneous,j,True,圆形,img/C_ambi40.png,circle,circle,1,exp1,match,210
29,0,2001,5,511.11,psychophysics,731,f,f,simultaneous,f,True,方形,img/C_ambi40.png,circle,circle,1,exp1,mismatch,215
20,1,2001,5,644.35,psychophysics,938,f,f,simultaneous,j,False,三角,img/C_ambi40.png,circle,circle,0,exp1,mismatch,12
37,1,2000,5,560.45,psychophysics,588,j,j,simultaneous,j,True,三角,img/T_ambi40.png,triangle,triangle,1,exp1,match,128
2,0,2000,5,650.78,psychophysics,689,j,j,simultaneous,j,True,圆形,img/T_ambi40.png,triangle,triangle,1,exp1,mismatch,4
9,0,2003,4,467.59,psychophysics,830,j,j,simultaneous,j,True,圆形,img/C_ambi40.png,circle,circle,1,exp1,match,224
1,0,2000,5,434.97,psychophysics,701,f,f,simultaneous,f,True,三角,img/C_ambi40.png,circle,circle,1,exp1,mismatch,229
12,1,2002,5,574.86,psychophysics,553,f,f,simultaneous,f,True,圆形,img/C_ambi40.png,circle,circle,1,exp1,match,223
12,1,2002,5,574.86,psychophysics,791,f,f,simultaneous,f,True,圆形,img/C_ambi40.png,circle,circle,1,exp1,match,227
7,0,2001,5,611.97,psychophysics,634,f,f,simultaneous,f,True,圆形,img/S_ambi40.png,square,square,1,exp1,mismatch,154
18,1,2003,5,396.17,psychophysics,730,j,j,simultaneous,j,True,圆形,img/S_ambi40.png,square,square,1,exp1,mismatch,144
21,0,2001,5,568.37,psychophysics,450,f,f,simultaneous,f,True,三角,img/C_ambi40.png,circle,circle,1,exp1,mismatch,216
6,0,1997,6,518.58,psychophysics,677,j,j,simultaneous,j,True,三角,img/S_ambi40.png,square,square,1,exp1,mismatch,8
21,0,2001,5,568.37,psychophysics,541,f,f,simultaneous,f,True,圆形,img/S_ambi40.png,square,square,1,exp1,mismatch,197
1,0,2000,5,434.97,psychophysics,708,j,j,simultaneous,j,True,三角,img/T_ambi40.png,triangle,triangle,1,exp1,match,8
5,1,1998,6,480.02,psychophysics,663,j,j,simultaneous,j,True,三角,img/T_ambi40.png,triangle,triangle,1,exp1,match,110
26,0,2001,5,732.87,psychophysics,947,f,f,simultaneous,f,True,圆形,img/C_ambi40.png,circle,circle,1,exp1,match,93
9,0,2003,4,467.59,psychophysics,638,j,j,simultaneous,j,True,方形,img/S_ambi40.png,square,square,1,exp1,match,197
40,0,2001,5,420.87,psychophysics,609,j,j,simultaneous,j,True,圆形,img/T_ambi40.png,triangle,triangle,1,exp1,mismatch,85
24,1,2001,5,627.24,psychophysics,949,f,f,simultaneous,f,True,三角,img/T_ambi40.png,triangle,triangle,1,exp1,match,194
29,0,2001,5,511.11,psychophysics,774,f,f,simultaneous,f,True,三角,img/C_ambi40.png,circle,circle,1,exp1,mismatch,109
38,0,2001,5,450.33,psychophysics,656,f,f,simultaneous,f,True,三角,img/T_ambi40.png,triangle,triangle,1,exp1,match,48
21,0,2001,5,568.37,psychophysics,574,j,j,simultaneous,j,True,方形,img/S_ambi40.png,square,square,1,exp1,match,86
24,1,2001,5,627.24,psychophysics,632,f,f,simultaneous,f,True,三角,img/T_ambi40.png,triangle,triangle,1,exp1,match,98
8,0,2000,5,712.49,psychophysics,675,f,f,simultaneous,f,True,方形,img/S_ambi40.png,square,square,1,exp1,match,74
23,1,2003,5,580.70,psychophysics,596,f,f,simultaneous,f,True,圆形,img/T_ambi40.png,triangle,triangle,1,exp1,mismatch,42
33,0,2000,5,628.58,psychophysics,893,f,f,simultaneous,f,True,圆形,img/T_ambi40.png,triangle,triangle,1,exp1,mismatch,85
37,1,2000,5,560.45,psychophysics,585,j,j,simultaneous,j,True,方形,img/S_ambi40.png,square,square,1,exp1,match,189
29,0,2001,5,511.11,psychophysics,747,f,f,simultaneous,f,True,方形,img/C_ambi40.png,circle,circle,1,exp1,mismatch,240
27,1,2002,5,523.50,psychophysics,639,j,j,simultaneous,j,True,方形,img/S_ambi40.png,square,square,1,exp1,match,194
8,0,2000,5,712.49,psychophysics,737,j,j,simultaneous,j,True,圆形,img/T_ambi40.png,triangle,triangle,1,exp1,mismatch,195
2,0,2000,5,650.78,psychophysics,692,j,j,simultaneous,j,True,三角,img/C_ambi40.png,circle,circle,1,exp1,mismatch,152
37,1,2000,5,560.45,psychophysics,719,j,j,simultaneous,j,True,方形,img/S_ambi40.png,square,square,1,exp1,match,135
34,0,2000,5,558.95,psychophysics,684,j,j,simultaneous,j,True,圆形,img/S_ambi40.png,square,square,1,exp1,mismatch,88
23,1,2003,5,580.70,psychophysics,560,f,f,simultaneous,f,True,方形,img/C_ambi40.png,circle,circle,1,exp1,mismatch,209
25,1,2000,5,596.57,psychophysics,891,f,f,simultaneous,f,True,圆形,img/S_ambi40.png,square,square,1,exp1,mismatch,63
26,0,2001,5,732.87,psychophysics,701,j,j,simultaneous,j,True,三角,img/C_ambi40.png,circle,circle,1,exp1,mismatch,70
1,0,2000,5,434.97,psychophysics,839,j,j,simultaneous,j,True,方形,img/S_ambi40.png,square,square,1,exp1,match,130
27,1,2002,5,523.50,psychophysics,676,f,f,simultaneous,f,True,方形,img/T_ambi40.png,triangle,triangle,1,exp1,mismatch,160
24,1,2001,5,627.24,psychophysics,1381,j,j,simultaneous,j,True,方形,img/C_ambi40.png,circle,circle,1,exp1,mismatch,35
35,1,2002,5,454.73,psychophysics,644,f,f,simultaneous,f,True,圆形,img/T_ambi40.png,triangle,triangle,1,exp1,mismatch,16
24,1,2001,5,627.24,psychophysics,844,f,f,simultaneous,f,True,三角,img/T_ambi40.png,triangle,triangle,1,exp1,match,88
1,0,2000,5,434.97,psychophysics,1121,f,f,simultaneous,f,True,圆形,img/S_ambi40.png,square,square,1,exp1,mismatch,214
7,0,2001,5,611.97,psychophysics,560,j,j,simultaneous,j,True,三角,img/T_ambi40.png,triangle,triangle,1,exp1,match,194
26,0,2001,5,732.87,psychophysics,643,f,f,simultaneous,f,True,三角,img/T_ambi40.png,triangle,triangle,1,exp1,match,34
1,0,2000,5,434.97,psychophysics,724,j,j,simultaneous,j,True,方形,img/S_ambi40.png,square,square,1,exp1,match,43
21,0,2001,5,568.37,psychophysics,498,j,j,simultaneous,j,True,三角,img/T_ambi40.png,triangle,triangle,1,exp1,match,129
2,0,2000,5,650.78,psychophysics,530,f,f,simultaneous,f,True,圆形,img/C_ambi40.png,circle,circle,1,exp1,match,146
23,1,2003,5,580.70,psychophysics,644,j,j,simultaneous,j,True,三角,img/T_ambi40.png,triangle,triangle,1,exp1,match,37
12,1,2002,5,574.86,psychophysics,632,f,f,simultaneous,f,True,圆形,img/C_ambi40.png,circle,circle,1,exp1,match,198
3,0,1995,7,452.95,psychophysics,579,j,j,simultaneous,j,True,三角,img/T_ambi40.png,triangle,triangle,1,exp1,match,128
18,1,2003,5,396.17,psychophysics,821,f,f,simultaneous,j,False,三角,img/S_ambi40.png,square,square,0,exp1,mismatch,42
39,1,2000,5,592.33,psychophysics,608,j,j,simultaneous,j,True,方形,img/S_ambi40.png,square,square,1,exp1,match,165
28,1,2003,5,503.53,psychophysics,534,j,j,simultaneous,j,True,圆形,img/T_ambi40.png,triangle,triangle,1,exp1,mismatch,229
8,0,2000,5,712.49,psychophysics,628,j,j,simultaneous,f,False,方形,img/S_ambi40.png,square,square,0,exp1,match,44
31,1,1999,5,429.67,psychophysics,877,f,f,simultaneous,f,True,方形,img/T_ambi40.png,triangle,triangle,1,exp1,mismatch,169
13,1,2002,5,506.35,psychophysics,397,j,j,simultaneous,f,False,三角,img/C_ambi40.png,circle,circle,0,exp1,mismatch,73
10,1,2000,5,634.76,psychophysics,656,j,j,simultaneous,j,True,三角,img/C_ambi40.png,circle,circle,1,exp1,mismatch,71
12,1,2002,5,574.86,psychophysics,941,j,j,simultaneous,j,True,三角,img/C_ambi40.png,circle,circle,1,exp1,mismatch,38
12,1,2002,5,574.86,psychophysics,805,j,j,simultaneous,j,True,圆形,img/T_ambi40.png,triangle,triangle,1,exp1,mismatch,41
22,0,2001,5,608.11,psychophysics,848,j,j,simultaneous,j,True,方形,img/T_ambi40.png,triangle,triangle,1,exp1,mismatch,109
6,0,1997,6,518.58,psychophysics,513,f,f,simultaneous,f,True,圆形,img/C_ambi40.png,circle,circle,1,exp1,match,157
30,1,2004,5,559.03,psychophysics,725,f,f,simultaneous,f,True,方形,img/S_ambi40.png,square,square,1,exp1,match,60
31,1,1999,5,429.67,psychophysics,672,j,j,simultaneous,j,True,三角,img/T_ambi40.png,triangle,triangle,1,exp1,match,210
13,1,2002,5,506.35,psychophysics,810,j,j,simultaneous,j,True,方形,img/S_ambi40.png,square,square,1,exp1,match,168
8,0,2000,5,712.49,psychophysics,999,j,j,simultaneous,j,True,圆形,img/T_ambi40.png,triangle,triangle,1,exp1,mismatch,114
36,0,2000,5,564.96,psychophysics,791,j,j,simultaneous,j,True,圆形,img/T_ambi40.png,triangle,triangle,1,exp1,mismatch,75
4,0,2001,5,590.64,psychophysics,922,j,j,simultaneous,j,True,方形,img/T_ambi40.png,triangle,triangle,1,exp1,mismatch,36
39,1,2000,5,592.33,psychophysics,847,f,f,simultaneous,j,False,方形,img/S_ambi40.png,square,square,0,exp1,match,47
34,0,2000,5,558.95,psychophysics,940,j,j,simultaneous,j,True,方形,img/T_ambi40.png,triangle,triangle,1,exp1,mismatch,131
17,1,2002,5,446.22,psychophysics,744,f,f,simultaneous,j,False,方形,img/S_ambi40.png,square,square,0,exp1,match,50
7,0,2001,5,611.97,psychophysics,1224,f,f,simultaneous,f,True,圆形,img/T_ambi40.png,triangle,triangle,1,exp1,mismatch,90
3,0,1995,7,452.95,psychophysics,681,f,f,simultaneous,f,True,方形,img/C_ambi40.png,circle,circle,1,exp1,mismatch,217
24,1,2001,5,627.24,psychophysics,853,f,f,simultaneous,f,True,方形,img/S_ambi40.png,square,square,1,exp1,match,212
33,0,2000,5,628.58,psychophysics,610,j,j,simultaneous,j,True,方形,img/S_ambi40.png,square,square,1,exp1,match,234
7,0,2001,5,611.97,psychophysics,590,f,f,simultaneous,f,True,圆形,img/T_ambi40.png,triangle,triangle,1,exp1,mismatch,129
34,0,2000,5,558.95,psychophysics,971,f,f,simultaneous,f,True,三角,img/T_ambi40.png,triangle,triangle,1,exp1,match,78
6,0,1997,6,518.58,psychophysics,622,f,f,simultaneous,f,True,三角,img/T_ambi40.png,triangle,triangle,1,exp1,match,44
16,1,2001,5,502.74,psychophysics,827,j,j,simultaneous,j,True,三角,img/S_ambi40.png,square,square,1,exp1,mismatch,1
38,0,2001,5,450.33,psychophysics,626,f,f,simultaneous,f,True,圆形,img/C_ambi40.png,circle,circle,1,exp1,match,18
17,1,2002,5,446.22,psychophysics,1267,j,j,simultaneous,f,False,方形,img/C_ambi40.png,circle,circle,0,exp1,mismatch,197
37,1,2000,5,560.45,psychophysics,973,f,f,simultaneous,f,True,圆形,img/T_ambi40.png,triangle,triangle,1,exp1,mismatch,20
38,0,2001,5,450.33,psychophysics,737,j,j,simultaneous,f,False,圆形,img/C_ambi40.png,circle,circle,0,exp1,match,98
8,0,2000,5,712.49,psychophysics,659,f,f,simultaneous,f,True,三角,img/T_ambi40.png,triangle,triangle,1,exp1,match,99
38,0,2001,5,450.33,psychophysics,754,f,f,simultaneous,f,True,三角,img/T_ambi40.png,triangle,triangle,1,exp1,match,233
25,1,2000,5,596.57,psychophysics,592,j,j,simultaneous,j,True,方形,img/S_ambi40.png,square,square,1,exp1,match,135
17,1,2002,5,446.22,psychophysics,1020,f,f,simultaneous,j,False,圆形,img/C_ambi40.png,circle,circle,0,exp1,match,203
24,1,2001,5,627.24,psychophysics,782,j,j,simultaneous,j,True,三角,img/C_ambi40.png,circle,circle,1,exp1,mismatch,238
4,0,2001,5,590.64,psychophysics,1025,j,j,simultaneous,j,True,圆形,img/T_ambi40.png,triangle,triangle,1,exp1,mismatch,169
5,1,1998,6,480.02,psychophysics,938,f,f,simultaneous,f,True,方形,img/C_ambi40.png,circle,circle,1,exp1,mismatch,169
38,0,2001,5,450.33,psychophysics,714,j,j,simultaneous,j,True,圆形,img/S_ambi40.png,square,square,1,exp1,mismatch,57
24,1,2001,5,627.24,psychophysics,755,j,j,simultaneous,j,True,方形,img/C_ambi40.png,circle,circle,1,exp1,mismatch,185
21,0,2001,5,568.37,psychophysics,675,j,j,simultaneous,j,True,方形,img/S_ambi40.png,square,square,1,exp1,match,222
20,1,2001,5,644.35,psychophysics,1327,j,j,simultaneous,j,True,圆形,img/T_ambi40.png,triangle,triangle,1,exp1,mismatch,75
30,1,2004,5,559.03,psychophysics,657,j,j,simultaneous,j,True,三角,img/S_ambi40.png,square,square,1,exp1,mismatch,33
24,1,2001,5,627.24,psychophysics,1021,j,j,simultaneous,j,True,方形,img/T_ambi40.png,triangle,triangle,1,exp1,mismatch,206
7,0,2001,5,611.97,psychophysics,663,f,f,simultaneous,f,True,三角,img/C_ambi40.png,circle,circle,1,exp1,mismatch,167
24,1,2001,5,627.24,psychophysics,747,j,j,simultaneous,j,True,圆形,img/S_ambi40.png,square,square,1,exp1,mismatch,157
15,1,2003,5,599.88,psychophysics,694,f,f,simultaneous,j,False,三角,img/T_ambi40.png,triangle,triangle,0,exp1,match,125
39,1,2000,5,592.33,psychophysics,671,f,f,simultaneous,f,True,三角,img/C_ambi40.png,circle,circle,1,exp1,mismatch,99
25,1,2000,5,596.57,psychophysics,637,j,j,simultaneous,j,True,三角,img/T_ambi40.png,triangle,triangle,1,exp1,match,148
8,0,2000,5,712.49,psychophysics,473,f,f,simultaneous,f,True,三角,img/T_ambi40.png,triangle,triangle,1,exp1,match,138
19,1,2003,5,424.97,psychophysics,569,f,f,simultaneous,f,True,圆形,img/T_ambi40.png,triangle,triangle,1,exp1,mismatch,223
40,0,2001,5,420.87,psychophysics,692,j,j,simultaneous,j,True,圆形,img/S_ambi40.png,square,square,1,exp1,mismatch,205
33,0,2000,5,628.58,psychophysics,664,j,j,simultaneous,j,True,圆形,img/C_ambi40.png,circle,circle,1,exp1,match,230
15,1,2003,5,599.88,psychophysics,810,j,j,simultaneous,f,False,圆形,img/S_ambi40.png,square,square,0,exp1,mismatch,185
14,1,2003,5,460.48,psychophysics,625,f,f,simultaneous,j,False,三角,img/C_ambi40.png,circle,circle,0,exp1,mismatch,164
23,1,2003,5,580.70,psychophysics,637,f,f,simultaneous,f,True,三角,img/S_ambi40.png,square,square,1,exp1,mismatch,114
16,1,2001,5,502.74,psychophysics,670,f,f,simultaneous,f,True,方形,img/S_ambi40.png,square,square,1,exp1,match,134
33,0,2000,5,628.58,psychophysics,958,f,f,simultaneous,f,True,方形,img/T_ambi40.png,triangle,triangle,1,exp1,mismatch,42
34,0,2000,5,558.95,psychophysics,946,j,j,simultaneous,j,True,方形,img/C_ambi40.png,circle,circle,1,exp1,mismatch,23
36,0,2000,5,564.96,psychophysics,611,j,j,simultaneous,f,False,方形,img/S_ambi40.png,square,square,0,exp1,match,39
5,1,1998,6,480.02,psychophysics,547,j,j,simultaneous,j,True,方形,img/S_ambi40.png,square,square,1,exp1,match,237
39,1,2000,5,592.33,psychophysics,875,j,j,simultaneous,j,True,方形,img/S_ambi40.png,square,square,1,exp1,match,215
13,1,2002,5,506.35,psychophysics,852,f,f,simultaneous,j,False,方形,img/S_ambi40.png,square,square,0,exp1,match,94
18,1,2003,5,396.17,psychophysics,1227,j,j,simultaneous,j,True,圆形,img/T_ambi40.png,triangle,triangle,1,exp1,mismatch,9
33,0,2000,5,628.58,psychophysics,1026,f,f,simultaneous,f,True,圆形,img/S_ambi40.png,square,square,1,exp1,mismatch,180
11,0,1999,5,529.13,psychophysics,704,f,f,simultaneous,f,True,三角,img/S_ambi40.png,square,square,1,exp1,mismatch,123
28,1,2003,5,503.53,psychophysics,641,j,j,simultaneous,j,True,圆形,img/S_ambi40.png,square,square,1,exp1,mismatch,125
33,0,2000,5,628.58,psychophysics,636,j,j,simultaneous,j,True,三角,img/T_ambi40.png,triangle,triangle,1,exp1,match,76
28,1,2003,5,503.53,psychophysics,508,f,f,simultaneous,f,True,圆形,img/C_ambi40.png,circle,circle,1,exp1,match,134
25,1,2000,5,596.57,psychophysics,776,j,j,simultaneous,j,True,圆形,img/C_ambi40.png,circle,circle,1,exp1,match,184
38,0,2001,5,450.33,psychophysics,1190,f,f,simultaneous,f,True,三角,img/T_ambi40.png,triangle,triangle,1,exp1,match,89
18,1,2003,5,396.17,psychophysics,737,j,j,simultaneous,j,True,圆形,img/S_ambi40.png,square,square,1,exp1,mismatch,207
3,0,1995,7,452.95,psychophysics,544,j,j,simultaneous,j,True,方形,img/S_ambi40.png,square,square,1,exp1,match,125
40,0,2001,5,420.87,psychophysics,542,j,j,simultaneous,f,False,圆形,img/C_ambi40.png,circle,circle,0,exp1,match,184
2,0,2000,5,650.78,psychophysics,574,f,f,simultaneous,f,True,三角,img/T_ambi40.png,triangle,triangle,1,exp1,match,228
11,0,1999,5,529.13,psychophysics,830,f,f,simultaneous,f,True,方形,img/T_ambi40.png,triangle,triangle,1,exp1,mismatch,210
38,0,2001,5,450.33,psychophysics,677,f,f,simultaneous,f,True,圆形,img/C_ambi40.png,circle,circle,1,exp1,match,79
27,1,2002,5,523.50,psychophysics,672,f,f,simultaneous,f,True,方形,img/C_ambi40.png,circle,circle,1,exp1,mismatch,122
4,0,2001,5,590.64,psychophysics,764,f,f,simultaneous,j,False,方形,img/C_ambi40.png,circle,circle,0,exp1,mismatch,92
12,1,2002,5,574.86,psychophysics,692,f,f,simultaneous,f,True,三角,img/T_ambi40.png,triangle,triangle,1,exp1,match,78
33,0,2000,5,628.58,psychophysics,632,j,j,simultaneous,j,True,方形,img/S_ambi40.png,square,square,1,exp1,match,113
32,1,2004,5,449.09,psychophysics,533,j,j,simultaneous,j,True,三角,img/S_ambi40.png,square,square,1,exp1,mismatch,66
27,1,2002,5,523.50,psychophysics,682,f,f,simultaneous,f,True,圆形,img/S_ambi40.png,square,square,1,exp1,mismatch,82
23,1,2003,5,580.70,psychophysics,646,f,f,simultaneous,f,True,三角,img/C_ambi40.png,circle,circle,1,exp1,mismatch,60
29,0,2001,5,511.11,psychophysics,899,j,j,simultaneous,j,True,三角,img/T_ambi40.png,triangle,triangle,1,exp1,match,190
16,1,2001,5,502.74,psychophysics,724,j,j,simultaneous,j,True,三角,img/S_ambi40.png,square,square,1,exp1,mismatch,39
26,0,2001,5,732.87,psychophysics,549,f,f,simultaneous,f,True,三角,img/T_ambi40.png,triangle,triangle,1,exp1,match,35
1,0,2000,5,434.97,psychophysics,884,f,f,simultaneous,f,True,方形,img/C_ambi40.png,circle,circle,1,exp1,mismatch,228
40,0,2001,5,420.87,psychophysics,696,j,j,simultaneous,j,True,圆形,img/T_ambi40.png,triangle,triangle,1,exp1,mismatch,15
14,1,2003,5,460.48,psychophysics,566,f,f,simultaneous,j,False,方形,img/C_ambi40.png,circle,circle,0,exp1,mismatch,71
34,0,2000,5,558.95,psychophysics,1013,f,f,simultaneous,f,True,方形,img/S_ambi40.png,square,square,1,exp1,match,84
23,1,2003,5,580.70,psychophysics,587,f,f,simultaneous,f,True,方形,img/C_ambi40.png,circle,circle,1,exp1,mismatch,101
39,1,2000,5,592.33,psychophysics,656,f,f,simultaneous,j,False,圆形,img/C_ambi40.png,circle,circle,0,exp1,match,34
38,0,2001,5,450.33,psychophysics,763,j,j,simultaneous,j,True,方形,img/T_ambi40.png,triangle,triangle,1,exp1,mismatch,47
4,0,2001,5,590.64,psychophysics,720,f,f,simultaneous,f,True,方形,img/S_ambi40.png,square,square,1,exp1,match,134
29,0,2001,5,511.11,psychophysics,655,j,j,simultaneous,j,True,三角,img/T_ambi40.png,triangle,triangle,1,exp1,match,232
28,1,2003,5,503.53,psychophysics,596,f,f,simultaneous,f,True,三角,img/T_ambi40.png,triangle,triangle,1,exp1,match,140
8,0,2000,5,712.49,psychophysics,881,j,j,simultaneous,j,True,三角,img/C_ambi40.png,circle,circle,1,exp1,mismatch,90
1,0,2000,5,434.97,psychophysics,677,f,f,simultaneous,f,True,圆形,img/T_ambi40.png,triangle,triangle,1,exp1,mismatch,193
9,0,2003,4,467.59,psychophysics,789,f,f,simultaneous,f,True,圆形,img/S_ambi40.png,square,square,1,exp1,mismatch,19
27,1,2002,5,523.50,psychophysics,572,j,j,simultaneous,j,True,方形,img/S_ambi40.png,square,square,1,exp1,match,74
37,1,2000,5,560.45,psychophysics,762,j,j,simultaneous,j,True,方形,img/S_ambi40.png,square,square,1,exp1,match,113
20,1,2001,5,644.35,psychophysics,959,j,j,simultaneous,j,True,圆形,img/S_ambi40.png,square,square,1,exp1,mismatch,63
21,0,2001,5,568.37,psychophysics,782,j,j,simultaneous,j,True,方形,img/S_ambi40.png,square,square,1,exp1,match,97
19,1,2003,5,424.97,psychophysics,555,j,j,simultaneous,j,True,方形,img/S_ambi40.png,square,square,1,exp1,match,67
31,1,1999,5,429.67,psychophysics,698,f,f,simultaneous,f,True,三角,img/C_ambi40.png,circle,circle,1,exp1,mismatch,175
7,0,2001,5,611.97,psychophysics,694,f,f,simultaneous,f,True,三角,img/C_ambi40.png,circle,circle,1,exp1,mismatch,208
19,1,2003,5,424.97,psychophysics,735,f,f,simultaneous,f,True,方形,img/T_ambi40.png,triangle,triangle,1,exp1,mismatch,131
20,1,2001,5,644.35,psychophysics,924,f,f,simultaneous,f,True,三角,img/T_ambi40.png,triangle,triangle,1,exp1,match,49
18,1,2003,5,396.17,psychophysics,584,f,f,simultaneous,f,True,三角,img/T_ambi40.png,triangle,triangle,1,exp1,match,200
26,0,2001,5,732.87,psychophysics,553,f,f,simultaneous,f,True,三角,img/T_ambi40.png,triangle,triangle,1,exp1,match,14
12,1,2002,5,574.86,psychophysics,606,j,j,simultaneous,j,True,三角,img/C_ambi40.png,circle,circle,1,exp1,mismatch,71
35,1,2002,5,454.73,psychophysics,572,j,j,simultaneous,j,True,方形,img/S_ambi40.png,square,square,1,exp1,match,40
35,1,2002,5,454.73,psychophysics,502,f,f,simultaneous,f,True,圆形,img/S_ambi40.png,square,square,1,exp1,mismatch,175
12,1,2002,5,574.86,psychophysics,561,f,f,simultaneous,f,True,三角,img/T_ambi40.png,triangle,triangle,1,exp1,match,125
3,0,1995,7,452.95,psychophysics,590,j,j,simultaneous,j,True,方形,img/S_ambi40.png,square,square,1,exp1,match,231
3,0,1995,7,452.95,psychophysics,529,j,j,simultaneous,j,True,方形,img/S_ambi40.png,square,square,1,exp1,match,145
40,0,2001,5,420.87,psychophysics,621,j,j,simultaneous,j,True,圆形,img/T_ambi40.png,triangle,triangle,1,exp1,mismatch,104
1,0,2000,5,434.97,psychophysics,661,j,j,simultaneous,j,True,方形,img/S_ambi40.png,square,square,1,exp1,match,222
11,0,1999,5,529.13,psychophysics,897,f,f,simultaneous,f,True,三角,img/C_ambi40.png,circle,circle,1,exp1,mismatch,93
2,0,2000,5,650.78,psychophysics,518,f,f,simultaneous,j,False,圆形,img/S_ambi40.png,square,square,0,exp1,mismatch,149
33,0,2000,5,628.58,psychophysics,885,f,f,simultaneous,f,True,方形,img/C_ambi40.png,circle,circle,1,exp1,mismatch,84
31,1,1999,5,429.67,psychophysics,842,f,f,simultaneous,f,True,三角,img/C_ambi40.png,circle,circle,1,exp1,mismatch,38
13,1,2002,5,506.35,psychophysics,733,j,j,simultaneous,j,True,三角,img/T_ambi40.png,triangle,triangle,1,exp1,match,91
11,0,1999,5,529.13,psychophysics,687,j,j,simultaneous,j,True,方形,img/S_ambi40.png,square,square,1,exp1,match,196
25,1,2000,5,596.57,psychophysics,582,j,j,simultaneous,j,True,三角,img/T_ambi40.png,triangle,triangle,1,exp1,match,141
7,0,2001,5,611.97,psychophysics,708,j,j,simultaneous,f,False,圆形,img/S_ambi40.png,square,square,0,exp1,mismatch,109
40,0,2001,5,420.87,psychophysics,683,f,f,simultaneous,f,True,圆形,img/C_ambi40.png,circle,circle,1,exp1,match,17
13,1,2002,5,506.35,psychophysics,692,j,j,simultaneous,f,False,圆形,img/T_ambi40.png,triangle,triangle,0,exp1,mismatch,36
29,0,2001,5,511.11,psychophysics,866,f,f,simultaneous,f,True,圆形,img/S_ambi40.png,square,square,1,exp1,mismatch,95
23,1,2003,5,580.70,psychophysics,533,j,j,simultaneous,f,False,圆形,img/S_ambi40.png,square,square,0,exp1,mismatch,173
40,0,2001,5,420.87,psychophysics,671,f,f,simultaneous,f,True,三角,img/T_ambi40.png,triangle,triangle,1,exp1,match,27
15,1,2003,5,599.88,psychophysics,783,f,f,simultaneous,f,True,方形,img/T_ambi40.png,triangle,triangle,1,exp1,mismatch,17
9,0,2003,4,467.59,psychophysics,844,f,f,simultaneous,f,True,圆形,img/T_ambi40.png,triangle,triangle,1,exp1,mismatch,78
35,1,2002,5,454.73,psychophysics,520,j,j,simultaneous,j,True,圆形,img/C_ambi40.png,circle,circle,1,exp1,match,27
35,1,2002,5,454.73,psychophysics,462,f,f,simultaneous,f,True,圆形,img/T_ambi40.png,triangle,triangle,1,exp1,mismatch,186
31,1,1999,5,429.67,psychophysics,787,j,j,simultaneous,j,True,方形,img/S_ambi40.png,square,square,1,exp1,match,40
31,1,1999,5,429.67,psychophysics,870,f,f,simultaneous,f,True,方形,img/T_ambi40.png,triangle,triangle,1,exp1,mismatch,19
28,1,2003,5,503.53,psychophysics,606,f,f,simultaneous,f,True,圆形,img/C_ambi40.png,circle,circle,1,exp1,match,35
39,1,2000,5,592.33,psychophysics,638,j,j,simultaneous,j,True,方形,img/S_ambi40.png,square,square,1,exp1,match,71
9,0,2003,4,467.59,psychophysics,701,f,f,simultaneous,f,True,方形,img/C_ambi40.png,circle,circle,1,exp1,mismatch,101
4,0,2001,5,590.64,psychophysics,1012,j,j,simultaneous,j,True,方形,img/T_ambi40.png,triangle,triangle,1,exp1,mismatch,158
7,0,2001,5,611.97,psychophysics,595,j,j,simultaneous,j,True,圆形,img/C_ambi40.png,circle,circle,1,exp1,match,223
14,1,2003,5,460.48,psychophysics,670,f,f,simultaneous,f,True,方形,img/S_ambi40.png,square,square,1,exp1,match,119
28,1,2003,5,503.53,psychophysics,599,j,j,simultaneous,j,True,圆形,img/S_ambi40.png,square,square,1,exp1,mismatch,18
36,0,2000,5,564.96,psychophysics,607,f,f,simultaneous,f,True,三角,img/T_ambi40.png,triangle,triangle,1,exp1,match,33
8,0,2000,5,712.49,psychophysics,681,j,j,simultaneous,j,True,方形,img/T_ambi40.png,triangle,triangle,1,exp1,mismatch,159
25,1,2000,5,596.57,psychophysics,650,j,j,simultaneous,j,True,圆形,img/C_ambi40.png,circle,circle,1,exp1,match,64
40,0,2001,5,420.87,psychophysics,601,j,j,simultaneous,j,True,三角,img/C_ambi40.png,circle,circle,1,exp1,mismatch,40
13,1,2002,5,506.35,psychophysics,636,j,j,simultaneous,j,True,三角,img/T_ambi40.png,triangle,triangle,1,exp1,match,160
20,1,2001,5,644.35,psychophysics,826,f,f,simultaneous,f,True,圆形,img/C_ambi40.png,circle,circle,1,exp1,match,135
13,1,2002,5,506.35,psychophysics,750,j,j,simultaneous,j,True,圆形,img/C_ambi40.png,circle,circle,1,exp1,match,169
18,1,2003,5,396.17,psychophysics,1229,f,f,simultaneous,f,True,方形,img/S_ambi40.png,square,square,1,exp1,match,135
39,1,2000,5,592.33,psychophysics,1239,f,f,simultaneous,f,True,圆形,img/T_ambi40.png,triangle,triangle,1,exp1,mismatch,130
8,0,2000,5,712.49,psychophysics,698,j,j,simultaneous,f,False,三角,img/T_ambi40.png,triangle,triangle,0,exp1,match,82
2,0,2000,5,650.78,psychophysics,782,j,j,simultaneous,j,True,三角,img/C_ambi40.png,circle,circle,1,exp1,mismatch,39
32,1,2004,5,449.09,psychophysics,652,f,f,simultaneous,f,True,圆形,img/C_ambi40.png,circle,circle,1,exp1,match,57
22,0,2001,5,608.11,psychophysics,760,j,j,simultaneous,j,True,方形,img/C_ambi40.png,circle,circle,1,exp1,mismatch,162
5,1,1998,6,480.02,psychophysics,774,f,f,simultaneous,f,True,三角,img/C_ambi40.png,circle,circle,1,exp1,mismatch,219
35,1,2002,5,454.73,psychophysics,605,f,f,simultaneous,f,True,方形,img/T_ambi40.png,triangle,triangle,1,exp1,mismatch,80
40,0,2001,5,420.87,psychophysics,888,f,f,simultaneous,f,True,三角,img/T_ambi40.png,triangle,triangle,1,exp1,match,115
39,1,2000,5,592.33,psychophysics,591,j,j,simultaneous,j,True,方形,img/S_ambi40.png,square,square,1,exp1,match,41
13,1,2002,5,506.35,psychophysics,823,f,f,simultaneous,f,True,方形,img/T_ambi40.png,triangle,triangle,1,exp1,mismatch,27
10,1,2000,5,634.76,psychophysics,750,j,j,simultaneous,j,True,方形,img/C_ambi40.png,circle,circle,1,exp1,mismatch,4
9,0,2003,4,467.59,psychophysics,784,f,f,simultaneous,f,True,方形,img/T_ambi40.png,triangle,triangle,1,exp1,mismatch,162
10,1,2000,5,634.76,psychophysics,582,j,j,simultaneous,j,True,圆形,img/T_ambi40.png,triangle,triangle,1,exp1,mismatch,100
23,1,2003,5,580.70,psychophysics,895,j,j,simultaneous,j,True,三角,img/T_ambi40.png,triangle,triangle,1,exp1,match,8
9,0,2003,4,467.59,psychophysics,660,j,j,simultaneous,j,True,圆形,img/C_ambi40.png,circle,circle,1,exp1,match,186
22,0,2001,5,608.11,psychophysics,783,j,j,simultaneous,j,True,方形,img/T_ambi40.png,triangle,triangle,1,exp1,mismatch,29
36,0,2000,5,564.96,psychophysics,427,j,j,simultaneous,j,True,三角,img/C_ambi40.png,circle,circle,1,exp1,mismatch,58
25,1,2000,5,596.57,psychophysics,528,j,j,simultaneous,f,False,圆形,img/S_ambi40.png,square,square,0,exp1,mismatch,33
20,1,2001,5,644.35,psychophysics,923,f,f,simultaneous,f,True,方形,img/S_ambi40.png,square,square,1,exp1,match,78
38,0,2001,5,450.33,psychophysics,596,j,j,simultaneous,j,True,圆形,img/T_ambi40.png,triangle,triangle,1,exp1,mismatch,138
31,1,1999,5,429.67,psychophysics,676,j,j,simultaneous,j,True,圆形,img/C_ambi40.png,circle,circle,1,exp1,match,234
31,1,1999,5,429.67,psychophysics,719,f,f,simultaneous,f,True,三角,img/C_ambi40.png,circle,circle,1,exp1,mismatch,208
5,1,1998,6,480.02,psychophysics,454,j,j,simultaneous,j,True,三角,img/T_ambi40.png,triangle,triangle,1,exp1,match,200
12,1,2002,5,574.86,psychophysics,742,j,j,simultaneous,j,True,方形,img/T_ambi40.png,triangle,triangle,1,exp1,mismatch,72
21,0,2001,5,568.37,psychophysics,546,f,f,simultaneous,j,False,三角,img/T_ambi40.png,triangle,triangle,0,exp1,match,218
7,0,2001,5,611.97,psychophysics,699,f,f,simultaneous,f,True,圆形,img/T_ambi40.png,triangle,triangle,1,exp1,mismatch,1
24,1,2001,5,627.24,psychophysics,671,f,f,simultaneous,f,True,三角,img/T_ambi40.png,triangle,triangle,1,exp1,match,130
34,0,2000,5,558.95,psychophysics,806,j,j,simultaneous,j,True,圆形,img/T_ambi40.png,triangle,triangle,1,exp1,mismatch,204
15,1,2003,5,599.88,psychophysics,1118,f,f,simultaneous,f,True,三角,img/C_ambi40.png,circle,circle,1,exp1,mismatch,25
1,0,2000,5,434.97,psychophysics,747,f,f,simultaneous,f,True,方形,img/C_ambi40.png,circle,circle,1,exp1,mismatch,141
15,1,2003,5,599.88,psychophysics,767,j,j,simultaneous,j,True,方形,img/S_ambi40.png,square,square,1,exp1,match,23
12,1,2002,5,574.86,psychophysics,729,j,j,simultaneous,j,True,圆形,img/T_ambi40.png,triangle,triangle,1,exp1,mismatch,93
14,1,2003,5,460.48,psychophysics,888,f,f,simultaneous,f,True,方形,img/S_ambi40.png,square,square,1,exp1,match,231
2,0,2000,5,650.78,psychophysics,571,f,f,simultaneous,f,True,方形,img/S_ambi40.png,square,square,1,exp1,match,42
20,1,2001,5,644.35,psychophysics,711,j,j,simultaneous,j,True,圆形,img/S_ambi40.png,square,square,1,exp1,mismatch,97
19,1,2003,5,424.97,psychophysics,574,j,j,simultaneous,j,True,三角,img/T_ambi40.png,triangle,triangle,1,exp1,match,229
27,1,2002,5,523.50,psychophysics,745,j,j,simultaneous,j,True,圆形,img/C_ambi40.png,circle,circle,1,exp1,match,79
22,0,2001,5,608.11,psychophysics,777,f,f,simultaneous,f,True,圆形,img/C_ambi40.png,circle,circle,1,exp1,match,97
2,0,2000,5,650.78,psychophysics,729,j,j,simultaneous,j,True,方形,img/T_ambi40.png,triangle,triangle,1,exp1,mismatch,67
34,0,2000,5,558.95,psychophysics,694,f,f,simultaneous,f,True,圆形,img/C_ambi40.png,circle,circle,1,exp1,match,56
24,1,2001,5,627.24,psychophysics,661,j,j,simultaneous,j,True,方形,img/T_ambi40.png,triangle,triangle,1,exp1,mismatch,179
19,1,2003,5,424.97,psychophysics,692,j,j,simultaneous,j,True,三角,img/T_ambi40.png,triangle,triangle,1,exp1,match,212
38,0,2001,5,450.33,psychophysics,716,f,f,simultaneous,f,True,方形,img/S_ambi40.png,square,square,1,exp1,match,6
31,1,1999,5,429.67,psychophysics,595,j,j,simultaneous,f,False,方形,img/C_ambi40.png,circle,circle,0,exp1,mismatch,154
10,1,2000,5,634.76,psychophysics,648,f,f,simultaneous,f,True,圆形,img/C_ambi40.png,circle,circle,1,exp1,match,216
6,0,1997,6,518.58,psychophysics,564,j,j,simultaneous,f,False,方形,img/S_ambi40.png,square,square,0,exp1,match,28
28,1,2003,5,503.53,psychophysics,566,j,j,simultaneous,j,True,方形,img/T_ambi40.png,triangle,triangle,1,exp1,mismatch,22
6,0,1997,6,518.58,psychophysics,605,f,f,simultaneous,f,True,圆形,img/C_ambi40.png,circle,circle,1,exp1,match,175
7,0,2001,5,611.97,psychophysics,612,f,f,simultaneous,f,True,方形,img/T_ambi40.png,triangle,triangle,1,exp1,mismatch,122
16,1,2001,5,502.74,psychophysics,758,j,j,simultaneous,j,True,方形,img/T_ambi40.png,triangle,triangle,1,exp1,mismatch,75
37,1,2000,5,560.45,psychophysics,628,j,j,simultaneous,j,True,方形,img/S_ambi40.png,square,square,1,exp1,match,142
3,0,1995,7,452.95,psychophysics,666,f,f,simultaneous,f,True,圆形,img/S_ambi40.png,square,square,1,exp1,mismatch,21
37,1,2000,5,560.45,psychophysics,610,j,j,simultaneous,j,True,圆形,img/C_ambi40.png,circle,circle,1,exp1,match,3
16,1,2001,5,502.74,psychophysics,801,f,f,simultaneous,f,True,三角,img/T_ambi40.png,triangle,triangle,1,exp1,match,11
30,1,2004,5,559.03,psychophysics,656,j,j,simultaneous,j,True,方形,img/C_ambi40.png,circle,circle,1,exp1,mismatch,18
18,1,2003,5,396.17,psychophysics,762,j,j,simultaneous,j,True,三角,img/C_ambi40.png,circle,circle,1,exp1,mismatch,97
11,0,1999,5,529.13,psychophysics,686,j,j,simultaneous,j,True,圆形,img/C_ambi40.png,circle,circle,1,exp1,match,172
34,0,2000,5,558.95,psychophysics,715,f,f,simultaneous,f,True,方形,img/S_ambi40.png,square,square,1,exp1,match,66
27,1,2002,5,523.50,psychophysics,622,f,f,simultaneous,f,True,三角,img/S_ambi40.png,square,square,1,exp1,mismatch,166
27,1,2002,5,523.50,psychophysics,628,j,j,simultaneous,j,True,圆形,img/C_ambi40.png,circle,circle,1,exp1,match,27
22,0,2001,5,608.11,psychophysics,668,j,j,simultaneous,j,True,圆形,img/S_ambi40.png,square,square,1,exp1,mismatch,51
22,0,2001,5,608.11,psychophysics,636,f,f,simultaneous,f,True,三角,img/T_ambi40.png,triangle,triangle,1,exp1,match,90
11,0,1999,5,529.13,psychophysics,926,f,f,simultaneous,f,True,方形,img/C_ambi40.png,circle,circle,1,exp1,mismatch,112
5,1,1998,6,480.02,psychophysics,865,f,f,simultaneous,f,True,三角,img/S_ambi40.png,square,square,1,exp1,mismatch,193
16,1,2001,5,502.74,psychophysics,608,f,f,simultaneous,f,True,三角,img/T_ambi40.png,triangle,triangle,1,exp1,match,118
4,0,2001,5,590.64,psychophysics,677,f,f,simultaneous,f,True,三角,img/T_ambi40.png,triangle,triangle,1,exp1,match,154
25,1,2000,5,596.57,psychophysics,676,f,f,simultaneous,f,True,三角,img/S_ambi40.png,square,square,1,exp1,mismatch,189
20,1,2001,5,644.35,psychophysics,962,j,j,simultaneous,j,True,圆形,img/S_ambi40.png,square,square,1,exp1,mismatch,224
27,1,2002,5,523.50,psychophysics,723,f,f,simultaneous,f,True,三角,img/C_ambi40.png,circle,circle,1,exp1,mismatch,7
32,1,2004,5,449.09,psychophysics,613,j,j,simultaneous,j,True,三角,img/S_ambi40.png,square,square,1,exp1,mismatch,229
8,0,2000,5,712.49,psychophysics,596,f,f,simultaneous,j,False,圆形,img/S_ambi40.png,square,square,0,exp1,mismatch,188
21,0,2001,5,568.37,psychophysics,579,j,j,simultaneous,j,True,方形,img/S_ambi40.png,square,square,1,exp1,match,210
26,0,2001,5,732.87,psychophysics,549,f,f,simultaneous,f,True,圆形,img/C_ambi40.png,circle,circle,1,exp1,match,80
29,0,2001,5,511.11,psychophysics,624,j,j,simultaneous,j,True,方形,img/S_ambi40.png,square,square,1,exp1,match,42
6,0,1997,6,518.58,psychophysics,697,j,j,simultaneous,j,True,方形,img/C_ambi40.png,circle,circle,1,exp1,mismatch,45
34,0,2000,5,558.95,psychophysics,827,j,j,simultaneous,j,True,圆形,img/S_ambi40.png,square,square,1,exp1,mismatch,63
32,1,2004,5,449.09,psychophysics,716,f,f,simultaneous,f,True,方形,img/S_ambi40.png,square,square,1,exp1,match,51
17,1,2002,5,446.22,psychophysics,887,f,f,simultaneous,f,True,三角,img/C_ambi40.png,circle,circle,1,exp1,mismatch,29
25,1,2000,5,596.57,psychophysics,685,j,j,simultaneous,j,True,三角,img/T_ambi40.png,triangle,triangle,1,exp1,match,62
28,1,2003,5,503.53,psychophysics,514,f,f,simultaneous,f,True,方形,img/S_ambi40.png,square,square,1,exp1,match,223
31,1,1999,5,429.67,psychophysics,948,f,f,simultaneous,f,True,圆形,img/S_ambi40.png,square,square,1,exp1,mismatch,39
40,0,2001,5,420.87,psychophysics,638,j,j,simultaneous,j,True,方形,img/C_ambi40.png,circle,circle,1,exp1,mismatch,116
28,1,2003,5,503.53,psychophysics,634,j,j,simultaneous,j,True,方形,img/T_ambi40.png,triangle,triangle,1,exp1,mismatch,69
10,1,2000,5,634.76,psychophysics,712,j,j,simultaneous,j,True,三角,img/S_ambi40.png,square,square,1,exp1,mismatch,176
3,0,1995,7,452.95,psychophysics,707,f,f,simultaneous,f,True,方形,img/T_ambi40.png,triangle,triangle,1,exp1,mismatch,202
9,0,2003,4,467.59,psychophysics,779,f,f,simultaneous,f,True,三角,img/S_ambi40.png,square,square,1,exp1,mismatch,48
29,0,2001,5,511.11,psychophysics,639,j,j,simultaneous,j,True,圆形,img/C_ambi40.png,circle,circle,1,exp1,match,92
2,0,2000,5,650.78,psychophysics,722,j,j,simultaneous,j,True,三角,img/S_ambi40.png,square,square,1,exp1,mismatch,156
24,1,2001,5,627.24,psychophysics,629,j,j,simultaneous,j,True,圆形,img/T_ambi40.png,triangle,triangle,1,exp1,mismatch,51
21,0,2001,5,568.37,psychophysics,561,f,f,simultaneous,f,True,三角,img/C_ambi40.png,circle,circle,1,exp1,mismatch,167
40,0,2001,5,420.87,psychophysics,590,j,j,simultaneous,j,True,圆形,img/T_ambi40.png,triangle,triangle,1,exp1,mismatch,140
5,1,1998,6,480.02,psychophysics,609,j,j,simultaneous,j,True,三角,img/T_ambi40.png,triangle,triangle,1,exp1,match,67
6,0,1997,6,518.58,psychophysics,569,f,f,simultaneous,f,True,三角,img/T_ambi40.png,triangle,triangle,1,exp1,match,65
3,0,1995,7,452.95,psychophysics,915,j,j,simultaneous,j,True,三角,img/T_ambi40.png,triangle,triangle,1,exp1,match,74
5,1,1998,6,480.02,psychophysics,811,j,j,simultaneous,j,True,方形,img/S_ambi40.png,square,square,1,exp1,match,120
32,1,2004,5,449.09,psychophysics,604,j,j,simultaneous,j,True,圆形,img/T_ambi40.png,triangle,triangle,1,exp1,mismatch,116
39,1,2000,5,592.33,psychophysics,799,j,j,simultaneous,j,True,圆形,img/C_ambi40.png,circle,circle,1,exp1,match,236
5,1,1998,6,480.02,psychophysics,733,f,f,simultaneous,f,True,三角,img/C_ambi40.png,circle,circle,1,exp1,mismatch,142
30,1,2004,5,559.03,psychophysics,589,j,j,simultaneous,j,True,三角,img/S_ambi40.png,square,square,1,exp1,mismatch,89
30,1,2004,5,559.03,psychophysics,561,f,f,simultaneous,f,True,圆形,img/C_ambi40.png,circle,circle,1,exp1,match,167
16,1,2001,5,502.74,psychophysics,629,j,j,simultaneous,j,True,三角,img/S_ambi40.png,square,square,1,exp1,mismatch,204
5,1,1998,6,480.02,psychophysics,607,j,j,simultaneous,j,True,圆形,img/C_ambi40.png,circle,circle,1,exp1,match,24
23,1,2003,5,580.70,psychophysics,1330,j,j,simultaneous,f,False,圆形,img/T_ambi40.png,triangle,triangle,0,exp1,mismatch,7
19,1,2003,5,424.97,psychophysics,850,j,j,simultaneous,j,True,三角,img/T_ambi40.png,triangle,triangle,1,exp1,match,132
36,0,2000,5,564.96,psychophysics,404,j,j,simultaneous,j,True,圆形,img/S_ambi40.png,square,square,1,exp1,mismatch,129
10,1,2000,5,634.76,psychophysics,707,f,f,simultaneous,f,True,圆形,img/C_ambi40.png,circle,circle,1,exp1,match,75
1,0,2000,5,434.97,psychophysics,836,f,f,simultaneous,f,True,方形,img/C_ambi40.png,circle,circle,1,exp1,mismatch,82
21,0,2001,5,568.37,psychophysics,591,j,j,simultaneous,j,True,方形,img/S_ambi40.png,square,square,1,exp1,match,77
38,0,2001,5,450.33,psychophysics,713,f,f,simultaneous,f,True,方形,img/S_ambi40.png,square,square,1,exp1,match,157
26,0,2001,5,732.87,psychophysics,679,f,f,simultaneous,f,True,三角,img/T_ambi40.png,triangle,triangle,1,exp1,match,190
3,0,1995,7,452.95,psychophysics,560,j,j,simultaneous,j,True,圆形,img/C_ambi40.png,circle,circle,1,exp1,match,37
16,1,2001,5,502.74,psychophysics,668,j,j,simultaneous,j,True,圆形,img/T_ambi40.png,triangle,triangle,1,exp1,mismatch,12
13,1,2002,5,506.35,psychophysics,810,j,j,simultaneous,j,True,三角,img/T_ambi40.png,triangle,triangle,1,exp1,match,219
10,1,2000,5,634.76,psychophysics,768,f,f,simultaneous,f,True,三角,img/T_ambi40.png,triangle,triangle,1,exp1,match,9
17,1,2002,5,446.22,psychophysics,893,f,f,simultaneous,f,True,三角,img/S_ambi40.png,square,square,1,exp1,mismatch,179
40,0,2001,5,420.87,psychophysics,721,j,j,simultaneous,j,True,三角,img/S_ambi40.png,square,square,1,exp1,mismatch,86
30,1,2004,5,559.03,psychophysics,629,j,j,simultaneous,j,True,方形,img/T_ambi40.png,triangle,triangle,1,exp1,mismatch,196
34,0,2000,5,558.95,psychophysics,741,j,j,simultaneous,j,True,圆形,img/S_ambi40.png,square,square,1,exp1,mismatch,15
11,0,1999,5,529.13,psychophysics,934,j,j,simultaneous,j,True,圆形,img/C_ambi40.png,circle,circle,1,exp1,match,97
21,0,2001,5,568.37,psychophysics,681,j,j,simultaneous,j,True,三角,img/T_ambi40.png,triangle,triangle,1,exp1,match,228
24,1,2001,5,627.24,psychophysics,704,j,j,simultaneous,j,True,方形,img/T_ambi40.png,triangle,triangle,1,exp1,mismatch,148
30,1,2004,5,559.03,psychophysics,531,f,f,simultaneous,f,True,方形,img/S_ambi40.png,square,square,1,exp1,match,163
24,1,2001,5,627.24,psychophysics,995,j,j,simultaneous,j,True,圆形,img/S_ambi40.png,square,square,1,exp1,mismatch,117
31,1,1999,5,429.67,psychophysics,635,j,j,simultaneous,j,True,方形,img/S_ambi40.png,square,square,1,exp1,match,110
6,0,1997,6,518.58,psychophysics,723,j,j,simultaneous,j,True,方形,img/T_ambi40.png,triangle,triangle,1,exp1,mismatch,118
10,1,2000,5,634.76,psychophysics,674,f,f,simultaneous,f,True,圆形,img/C_ambi40.png,circle,circle,1,exp1,match,190
30,1,2004,5,559.03,psychophysics,991,f,f,simultaneous,f,True,三角,img/T_ambi40.png,triangle,triangle,1,exp1,match,132
28,1,2003,5,503.53,psychophysics,531,f,f,simultaneous,f,True,圆形,img/C_ambi40.png,circle,circle,1,exp1,match,61
25,1,2000,5,596.57,psychophysics,815,f,f,simultaneous,f,True,方形,img/C_ambi40.png,circle,circle,1,exp1,mismatch,34
29,0,2001,5,511.11,psychophysics,1194,f,f,simultaneous,f,True,方形,img/T_ambi40.png,triangle,triangle,1,exp1,mismatch,123
6,0,1997,6,518.58,psychophysics,566,j,j,simultaneous,j,True,圆形,img/S_ambi40.png,square,square,1,exp1,mismatch,130
31,1,1999,5,429.67,psychophysics,665,f,f,simultaneous,f,True,三角,img/S_ambi40.png,square,square,1,exp1,mismatch,113
14,1,2003,5,460.48,psychophysics,605,j,j,simultaneous,f,False,方形,img/S_ambi40.png,square,square,0,exp1,match,235
7,0,2001,5,611.97,psychophysics,717,f,f,simultaneous,f,True,三角,img/C_ambi40.png,circle,circle,1,exp1,mismatch,193
34,0,2000,5,558.95,psychophysics,823,j,j,simultaneous,j,True,三角,img/S_ambi40.png,square,square,1,exp1,mismatch,156
6,0,1997,6,518.58,psychophysics,644,j,j,simultaneous,j,True,三角,img/S_ambi40.png,square,square,1,exp1,mismatch,156
36,0,2000,5,564.96,psychophysics,547,j,j,simultaneous,j,True,三角,img/S_ambi40.png,square,square,1,exp1,mismatch,115
2,0,2000,5,650.78,psychophysics,589,f,f,simultaneous,f,True,圆形,img/C_ambi40.png,circle,circle,1,exp1,match,157
35,1,2002,5,454.73,psychophysics,476,f,f,simultaneous,f,True,方形,img/T_ambi40.png,triangle,triangle,1,exp1,mismatch,132
29,0,2001,5,511.11,psychophysics,1024,f,f,simultaneous,f,True,方形,img/C_ambi40.png,circle,circle,1,exp1,mismatch,24
23,1,2003,5,580.70,psychophysics,666,f,f,simultaneous,f,True,圆形,img/T_ambi40.png,triangle,triangle,1,exp1,mismatch,228
22,0,2001,5,608.11,psychophysics,513,j,j,simultaneous,f,False,方形,img/S_ambi40.png,square,square,0,exp1,match,177
40,0,2001,5,420.87,psychophysics,682,f,f,simultaneous,f,True,圆形,img/C_ambi40.png,circle,circle,1,exp1,match,23
16,1,2001,5,502.74,psychophysics,587,j,j,simultaneous,j,True,圆形,img/S_ambi40.png,square,square,1,exp1,mismatch,73
6,0,1997,6,518.58,psychophysics,737,j,j,simultaneous,j,True,圆形,img/T_ambi40.png,triangle,triangle,1,exp1,mismatch,99
6,0,1997,6,518.58,psychophysics,537,j,j,simultaneous,j,True,三角,img/C_ambi40.png,circle,circle,1,exp1,mismatch,186
35,1,2002,5,454.73,psychophysics,484,j,j,simultaneous,j,True,方形,img/S_ambi40.png,square,square,1,exp1,match,158
35,1,2002,5,454.73,psychophysics,518,j,j,simultaneous,j,True,方形,img/S_ambi40.png,square,square,1,exp1,match,125
39,1,2000,5,592.33,psychophysics,930,f,f,simultaneous,f,True,三角,img/C_ambi40.png,circle,circle,1,exp1,mismatch,78
32,1,2004,5,449.09,psychophysics,520,f,f,simultaneous,f,True,三角,img/T_ambi40.png,triangle,triangle,1,exp1,match,68
4,0,2001,5,590.64,psychophysics,1017,j,j,simultaneous,j,True,圆形,img/S_ambi40.png,square,square,1,exp1,mismatch,215
6,0,1997,6,518.58,psychophysics,554,f,f,simultaneous,f,True,三角,img/T_ambi40.png,triangle,triangle,1,exp1,match,133
32,1,2004,5,449.09,psychophysics,641,j,j,simultaneous,j,True,方形,img/C_ambi40.png,circle,circle,1,exp1,mismatch,30
3,0,1995,7,452.95,psychophysics,619,j,j,simultaneous,j,True,三角,img/T_ambi40.png,triangle,triangle,1,exp1,match,89
17,1,2002,5,446.22,psychophysics,749,f,f,simultaneous,f,True,方形,img/T_ambi40.png,triangle,triangle,1,exp1,mismatch,21
37,1,2000,5,560.45,psychophysics,920,j,j,simultaneous,j,True,三角,img/T_ambi40.png,triangle,triangle,1,exp1,match,47
38,0,2001,5,450.33,psychophysics,1128,j,j,simultaneous,j,True,圆形,img/T_ambi40.png,triangle,triangle,1,exp1,mismatch,35
17,1,2002,5,446.22,psychophysics,899,j,j,simultaneous,j,True,圆形,img/C_ambi40.png,circle,circle,1,exp1,match,77
25,1,2000,5,596.57,psychophysics,674,j,j,simultaneous,j,True,圆形,img/C_ambi40.png,circle,circle,1,exp1,match,73
10,1,2000,5,634.76,psychophysics,667,j,j,simultaneous,j,True,三角,img/C_ambi40.png,circle,circle,1,exp1,mismatch,171
22,0,2001,5,608.11,psychophysics,678,j,j,simultaneous,j,True,圆形,img/S_ambi40.png,square,square,1,exp1,mismatch,222
30,1,2004,5,559.03,psychophysics,770,f,f,simultaneous,f,True,三角,img/T_ambi40.png,triangle,triangle,1,exp1,match,10
32,1,2004,5,449.09,psychophysics,840,f,f,simultaneous,f,True,方形,img/S_ambi40.png,square,square,1,exp1,match,50
9,0,2003,4,467.59,psychophysics,802,f,f,simultaneous,f,True,方形,img/C_ambi40.png,circle,circle,1,exp1,mismatch,32
39,1,2000,5,592.33,psychophysics,558,j,j,simultaneous,j,True,三角,img/T_ambi40.png,triangle,triangle,1,exp1,match,134
22,0,2001,5,608.11,psychophysics,605,j,j,simultaneous,j,True,三角,img/S_ambi40.png,square,square,1,exp1,mismatch,236
30,1,2004,5,559.03,psychophysics,953,j,j,simultaneous,j,True,三角,img/S_ambi40.png,square,square,1,exp1,mismatch,1
35,1,2002,5,454.73,psychophysics,581,j,j,simultaneous,j,True,圆形,img/C_ambi40.png,circle,circle,1,exp1,match,19
7,0,2001,5,611.97,psychophysics,635,j,j,simultaneous,j,True,三角,img/T_ambi40.png,triangle,triangle,1,exp1,match,4
23,1,2003,5,580.70,psychophysics,546,f,f,simultaneous,f,True,圆形,img/T_ambi40.png,triangle,triangle,1,exp1,mismatch,18
35,1,2002,5,454.73,psychophysics,648,j,j,simultaneous,j,True,圆形,img/C_ambi40.png,circle,circle,1,exp1,match,207
2,0,2000,5,650.78,psychophysics,660,j,j,simultaneous,j,True,方形,img/C_ambi40.png,circle,circle,1,exp1,mismatch,90
13,1,2002,5,506.35,psychophysics,803,f,f,simultaneous,f,True,三角,img/S_ambi40.png,square,square,1,exp1,mismatch,114
4,0,2001,5,590.64,psychophysics,1044,j,j,simultaneous,j,True,圆形,img/T_ambi40.png,triangle,triangle,1,exp1,mismatch,197
34,0,2000,5,558.95,psychophysics,615,f,f,simultaneous,j,False,圆形,img/S_ambi40.png,square,square,0,exp1,mismatch,36
15,1,2003,5,599.88,psychophysics,642,f,f,simultaneous,f,True,三角,img/S_ambi40.png,square,square,1,exp1,mismatch,144
17,1,2002,5,446.22,psychophysics,1012,j,j,simultaneous,j,True,方形,img/S_ambi40.png,square,square,1,exp1,match,104
21,0,2001,5,568.37,psychophysics,592,f,f,simultaneous,f,True,三角,img/S_ambi40.png,square,square,1,exp1,mismatch,61
5,1,1998,6,480.02,psychophysics,792,j,j,simultaneous,j,True,方形,img/S_ambi40.png,square,square,1,exp1,match,35
9,0,2003,4,467.59,psychophysics,806,f,f,simultaneous,f,True,三角,img/C_ambi40.png,circle,circle,1,exp1,mismatch,28
35,1,2002,5,454.73,psychophysics,565,j,j,simultaneous,f,False,圆形,img/S_ambi40.png,square,square,0,exp1,mismatch,62
10,1,2000,5,634.76,psychophysics,641,j,j,simultaneous,j,True,三角,img/S_ambi40.png,square,square,1,exp1,mismatch,240
24,1,2001,5,627.24,psychophysics,746,f,f,simultaneous,f,True,三角,img/T_ambi40.png,triangle,triangle,1,exp1,match,159
