"success","timeout","failed_images","failed_audio","failed_video","trial_type","trial_index","time_elapsed","internal_node_id","rt","stimulus","response","value","item_width_mm","item_height_mm","item_width_px","px2mm","view_dist_mm","item_width_deg","px2deg","scale_factor","win_width_deg","win_height_deg","view_history","response_type","key_press","avg_frame_time","center_x","center_y","correct_response","correct","Image","word","condition","screen_id"
"true","false","[]","[]","[]","preload","0","573","0.0-0.0","","","","","","","","","","","","","","","","","","","","","","","","","",""
"","","","","","html-keyboard-response","1","53891","0.0-1.0","53317","
   <p>您好，欢迎参加本次实验。</p>
   <p>为充分保障您的权利，请确保您已经知晓并同意《参与实验同意书》以及《数据公开知情同意书》。</p>
   <p>如果您未见过上述内容，请咨询实验员。</p>
   <p>如果您选择继续实验，则表示您已经清楚两份知情同意书的内容并同意。</p>
   <p> <div style = ""color: green""><按任意键至下页></div> </p>
   "," ","","","","","","","","","","","","","","","","","","","","","","",""
"","","","","","html-keyboard-response","2","55385","0.0-2.0","1493","
   <p>本实验首先需要您填写一些基本个人信息。</p>
   <p> <div style = ""color: green""><按任意键至下页></div></p>
   "," ","","","","","","","","","","","","","","","","","","","","","","",""
"","","","","","call-function","3","55386","0.0-3.0-0.0","","","","","","","","","","","","","","","","","","","","","","","","","",""
"","","","","","survey-html-form","4","60163","0.0-3.0-1.0","4772","","{""Q0"":""28""}","","","","","","","","","","","","","","","","","","","","","","",""
"","","","","","html-button-response","5","61179","0.0-3.0-2.0","1014","<p style = 'color : white'>您的性别</p>","1","","","","","","","","","","","","","","","","","","","","","","",""
"","","","","","survey-html-form","6","66908","0.0-3.0-3.0","5728","","{""Q0"":""2003""}","","","","","","","","","","","","","","","","","","","","","","",""
"","","","","","survey-html-form","7","69803","0.0-3.0-4.0","2895","","{""Q0"":""5""}","","","","","","","","","","","","","","","","","","","","","","",""
"","","","","","virtual-chinrest","8","300906","0.0-4.0","231102","","","","85.6","53.98","485.84572704346596","5.672189030014849","503.53","9.71691454086932","50","0.8356562122520785","28.8","14.96","","","","","","","","","","","",""
"true","","","","","fullscreen","9","305804","0.0-5.0","","","","","","","","","","","","","","","","","","","","","","","","","",""
"","","","","","instructions","10","353163","0.0-6.0","47357","","","","","","","","","","","","","","[{""page_index"":0,""viewing_time"":5534},{""page_index"":1,""viewing_time"":15575},{""page_index"":2,""viewing_time"":18216},{""page_index"":3,""viewing_time"":8032}]","","","","","","","","","","",""
"","","","","","psychophysics","11","355377","0.0-7.0-0.0-0.0","1060","","j","","","","","","","","","","","","","key","j","11.282584615384575","720","446","j","true","img/T_ambi40.png","圆形","prac_image_first",""
"","","","","","html-keyboard-response","12","355685","0.0-7.0-0.0-1.0","null","<span style='color:GreenYellow; font-size: 70px;'>正确! </span>","null","","","","","","","","","","","","","","","","","","","","","","","feedback_test"
"","","","","","psychophysics","13","357522","0.0-7.0-0.0-0.1","686","","f","","","","","","","","","","","","","key","f","11.112054878049005","720","446","f","true","img/C_ambi40.png","圆形","prac_image_first",""
"","","","","","html-keyboard-response","14","357828","0.0-7.0-0.0-1.1","null","<span style='color:GreenYellow; font-size: 70px;'>正确! </span>","null","","","","","","","","","","","","","","","","","","","","","","","feedback_test"
"","","","","","psychophysics","15","359500","0.0-7.0-0.0-0.2","521","","f","","","","","","","","","","","","","key","f","11.11066442953021","720","446","f","true","img/T_ambi40.png","三角","prac_image_first",""
"","","","","","html-keyboard-response","16","359804","0.0-7.0-0.0-1.2","null","<span style='color:GreenYellow; font-size: 70px;'>正确! </span>","null","","","","","","","","","","","","","","","","","","","","","","","feedback_test"
"","","","","","psychophysics","17","361481","0.0-7.0-0.0-0.3","526","","f","","","","","","","","","","","","","key","f","11.262619047619317","720","446","f","true","img/C_ambi40.png","圆形","prac_image_first",""
"","","","","","html-keyboard-response","18","361786","0.0-7.0-0.0-1.3","null","<span style='color:GreenYellow; font-size: 70px;'>正确! </span>","null","","","","","","","","","","","","","","","","","","","","","","","feedback_test"
"","","","","","psychophysics","19","363707","0.0-7.0-0.0-0.4","769","","j","","","","","","","","","","","","","key","j","11.11160465116277","720","446","j","true","img/S_ambi40.png","圆形","prac_image_first",""
"","","","","","html-keyboard-response","20","364008","0.0-7.0-0.0-1.4","null","<span style='color:GreenYellow; font-size: 70px;'>正确! </span>","null","","","","","","","","","","","","","","","","","","","","","","","feedback_test"
"","","","","","psychophysics","21","365798","0.0-7.0-0.0-0.5","639","","j","","","","","","","","","","","","","key","j","11.111612500000046","720","446","j","true","img/C_ambi40.png","三角","prac_image_first",""
"","","","","","html-keyboard-response","22","366103","0.0-7.0-0.0-1.5","null","<span style='color:GreenYellow; font-size: 70px;'>正确! </span>","null","","","","","","","","","","","","","","","","","","","","","","","feedback_test"
"","","","","","psychophysics","23","368011","0.0-7.0-0.0-0.6","753","","f","","","","","","","","","","","","","key","f","11.090741176470457","720","446","f","true","img/S_ambi40.png","方形","prac_image_first",""
"","","","","","html-keyboard-response","24","368314","0.0-7.0-0.0-1.6","null","<span style='color:GreenYellow; font-size: 70px;'>正确! </span>","null","","","","","","","","","","","","","","","","","","","","","","","feedback_test"
"","","","","","psychophysics","25","370155","0.0-7.0-0.0-0.7","684","","j","","","","","","","","","","","","","key","j","11.090402439024396","720","446","j","true","img/C_ambi40.png","方形","prac_image_first",""
"","","","","","html-keyboard-response","26","370469","0.0-7.0-0.0-1.7","null","<span style='color:GreenYellow; font-size: 70px;'>正确! </span>","null","","","","","","","","","","","","","","","","","","","","","","","feedback_test"
"","","","","","psychophysics","27","372111","0.0-7.0-0.0-0.8","485","","f","","","","","","","","","","","","","key","f","11.083821917808303","720","446","f","true","img/T_ambi40.png","三角","prac_image_first",""
"","","","","","html-keyboard-response","28","372412","0.0-7.0-0.0-1.8","null","<span style='color:GreenYellow; font-size: 70px;'>正确! </span>","null","","","","","","","","","","","","","","","","","","","","","","","feedback_test"
"","","","","","psychophysics","29","374166","0.0-7.0-0.0-0.9","596","","f","","","","","","","","","","","","","key","f","11.111974522292726","720","446","f","true","img/S_ambi40.png","方形","prac_image_first",""
"","","","","","html-keyboard-response","30","374475","0.0-7.0-0.0-1.9","null","<span style='color:GreenYellow; font-size: 70px;'>正确! </span>","null","","","","","","","","","","","","","","","","","","","","","","","feedback_test"
"","","","","","psychophysics","31","376373","0.0-7.0-0.0-0.10","746","","j","","","","","","","","","","","","","key","j","11.111676470588153","720","446","j","true","img/T_ambi40.png","方形","prac_image_first",""
"","","","","","html-keyboard-response","32","376677","0.0-7.0-0.0-1.10","null","<span style='color:GreenYellow; font-size: 70px;'>正确! </span>","null","","","","","","","","","","","","","","","","","","","","","","","feedback_test"
"","","","","","psychophysics","33","378538","0.0-7.0-0.0-0.11","709","","j","","","","","","","","","","","","","key","j","11.111419161676755","720","446","j","true","img/S_ambi40.png","三角","prac_image_first",""
"","","","","","html-keyboard-response","34","378845","0.0-7.0-0.0-1.11","null","<span style='color:GreenYellow; font-size: 70px;'>正确! </span>","null","","","","","","","","","","","","","","","","","","","","","","","feedback_test"
"","","","","","psychophysics","35","380877","0.0-7.0-0.0-0.12","880","","j","","","","","","","","","","","","","key","j","11.111840659340556","720","446","j","true","img/C_ambi40.png","三角","prac_image_first",""
"","","","","","html-keyboard-response","36","381182","0.0-7.0-0.0-1.12","null","<span style='color:GreenYellow; font-size: 70px;'>正确! </span>","null","","","","","","","","","","","","","","","","","","","","","","","feedback_test"
"","","","","","psychophysics","37","382973","0.0-7.0-0.0-0.13","639","","f","","","","","","","","","","","","","key","f","11.111943750000137","720","446","j","false","img/S_ambi40.png","圆形","prac_image_first",""
"","","","","","html-keyboard-response","38","383284","0.0-7.0-0.0-1.13","null","<span style='color:red; font-size: 70px;'>错误! </span>","null","","","","","","","","","","","","","","","","","","","","","","","feedback_test"
"","","","","","psychophysics","39","385057","0.0-7.0-0.0-0.14","622","","f","","","","","","","","","","","","","key","f","11.11091139240491","720","446","f","true","img/S_ambi40.png","方形","prac_image_first",""
"","","","","","html-keyboard-response","40","385362","0.0-7.0-0.0-1.14","null","<span style='color:GreenYellow; font-size: 70px;'>正确! </span>","null","","","","","","","","","","","","","","","","","","","","","","","feedback_test"
"","","","","","psychophysics","41","387113","0.0-7.0-0.0-0.15","599","","j","","","","","","","","","","","","","key","j","11.112192307692544","720","446","j","true","img/C_ambi40.png","方形","prac_image_first",""
"","","","","","html-keyboard-response","42","387421","0.0-7.0-0.0-1.15","null","<span style='color:GreenYellow; font-size: 70px;'>正确! </span>","null","","","","","","","","","","","","","","","","","","","","","","","feedback_test"
"","","","","","psychophysics","43","389264","0.0-7.0-0.0-0.16","683","","j","","","","","","","","","","","","","key","j","11.112018181818227","720","446","j","true","img/S_ambi40.png","三角","prac_image_first",""
"","","","","","html-keyboard-response","44","389577","0.0-7.0-0.0-1.16","null","<span style='color:GreenYellow; font-size: 70px;'>正确! </span>","null","","","","","","","","","","","","","","","","","","","","","","","feedback_test"
"","","","","","psychophysics","45","391348","0.0-7.0-0.0-0.17","620","","f","","","","","","","","","","","","","key","f","11.111999999999753","720","446","f","true","img/T_ambi40.png","三角","prac_image_first",""
"","","","","","html-keyboard-response","46","391652","0.0-7.0-0.0-1.17","null","<span style='color:GreenYellow; font-size: 70px;'>正确! </span>","null","","","","","","","","","","","","","","","","","","","","","","","feedback_test"
"","","","","","psychophysics","47","393430","0.0-7.0-0.0-0.18","627","","f","","","","","","","","","","","","","key","f","11.112000000000121","720","446","f","true","img/C_ambi40.png","圆形","prac_image_first",""
"","","","","","html-keyboard-response","48","393740","0.0-7.0-0.0-1.18","null","<span style='color:GreenYellow; font-size: 70px;'>正确! </span>","null","","","","","","","","","","","","","","","","","","","","","","","feedback_test"
"","","","","","psychophysics","49","395398","0.0-7.0-0.0-0.19","506","","f","","","","","","","","","","","","","key","f","11.11108783783778","720","446","f","true","img/T_ambi40.png","三角","prac_image_first",""
"","","","","","html-keyboard-response","50","395708","0.0-7.0-0.0-1.19","null","<span style='color:GreenYellow; font-size: 70px;'>正确! </span>","null","","","","","","","","","","","","","","","","","","","","","","","feedback_test"
"","","","","","psychophysics","51","397365","0.0-7.0-0.0-0.20","506","","f","","","","","","","","","","","","","key","f","11.11033108108087","720","446","f","true","img/C_ambi40.png","圆形","prac_image_first",""
"","","","","","html-keyboard-response","52","397678","0.0-7.0-0.0-1.20","null","<span style='color:GreenYellow; font-size: 70px;'>正确! </span>","null","","","","","","","","","","","","","","","","","","","","","","","feedback_test"
"","","","","","psychophysics","53","399330","0.0-7.0-0.0-0.21","501","","j","","","","","","","","","","","","","key","j","11.112925675675994","720","446","j","true","img/T_ambi40.png","方形","prac_image_first",""
"","","","","","html-keyboard-response","54","399642","0.0-7.0-0.0-1.21","null","<span style='color:GreenYellow; font-size: 70px;'>正确! </span>","null","","","","","","","","","","","","","","","","","","","","","","","feedback_test"
"","","","","","psychophysics","55","401284","0.0-7.0-0.0-0.22","491","","f","","","","","","","","","","","","","key","f","11.112326530612558","720","446","f","true","img/S_ambi40.png","方形","prac_image_first",""
"","","","","","html-keyboard-response","56","401594","0.0-7.0-0.0-1.22","null","<span style='color:GreenYellow; font-size: 70px;'>正确! </span>","null","","","","","","","","","","","","","","","","","","","","","","","feedback_test"
"","","","","","psychophysics","57","403204","0.0-7.0-0.0-0.23","458","","j","","","","","","","","","","","","","key","j","11.111701388889035","720","446","j","true","img/T_ambi40.png","圆形","prac_image_first",""
"","","","","","html-keyboard-response","58","403518","0.0-7.0-0.0-1.23","null","<span style='color:GreenYellow; font-size: 70px;'>正确! </span>","null","","","","","","","","","","","","","","","","","","","","","","","feedback_test"
"","","","","","html-keyboard-response","59","408243","0.0-8.0","4724","<style>.context{color:white; font-size: 35px; line-height:40px}</style>                            <div><p class='context'>您正确回答了96% 的试次。</p><p class='context'>您的平均反应时为638毫秒。</p><p class='context'>恭喜您完成这一阶段的练习。按任意键进入<span style='color: yellow;'>先文字后图形条件</span>的练习。</p></div>"," ","","","","","","","","","","","","","","","","","","","","","","",""
"","","","","","psychophysics","60","410163","0.0-9.0-0.0-0.0","765","","j","","","","","","","","","","","","","key","j","11.241923529411638","720","446","j","true","img/C_ambi40.png","方形","prac_word_first",""
"","","","","","html-keyboard-response","61","410466","0.0-9.0-0.0-1.0","null","<span style='color:GreenYellow; font-size: 70px;'>正确! </span>","null","","","","","","","","","","","","","","","","","","","","","","","feedback_test"
"","","","","","psychophysics","62","412349","0.0-9.0-0.0-0.1","732","","f","","","","","","","","","","","","","key","f","11.11256804733748","720","446","f","true","img/S_ambi40.png","方形","prac_word_first",""
"","","","","","html-keyboard-response","63","412656","0.0-9.0-0.0-1.1","null","<span style='color:GreenYellow; font-size: 70px;'>正确! </span>","null","","","","","","","","","","","","","","","","","","","","","","","feedback_test"
"","","","","","psychophysics","64","414504","0.0-9.0-0.0-0.2","692","","f","","","","","","","","","","","","","key","f","11.11281927710845","720","446","f","true","img/C_ambi40.png","圆形","prac_word_first",""
"","","","","","html-keyboard-response","65","414809","0.0-9.0-0.0-1.2","null","<span style='color:GreenYellow; font-size: 70px;'>正确! </span>","null","","","","","","","","","","","","","","","","","","","","","","","feedback_test"
"","","","","","psychophysics","66","416500","0.0-9.0-0.0-0.3","541","","f","","","","","","","","","","","","","key","f","11.109682119205527","720","446","f","true","img/C_ambi40.png","圆形","prac_word_first",""
"","","","","","html-keyboard-response","67","416816","0.0-9.0-0.0-1.3","null","<span style='color:GreenYellow; font-size: 70px;'>正确! </span>","null","","","","","","","","","","","","","","","","","","","","","","","feedback_test"
"","","","","","psychophysics","68","418486","0.0-9.0-0.0-0.4","518","","j","","","","","","","","","","","","","key","j","11.110389261744798","720","446","j","true","img/C_ambi40.png","三角","prac_word_first",""
"","","","","","html-keyboard-response","69","418801","0.0-9.0-0.0-1.4","null","<span style='color:GreenYellow; font-size: 70px;'>正确! </span>","null","","","","","","","","","","","","","","","","","","","","","","","feedback_test"
"","","","","","psychophysics","70","420480","0.0-9.0-0.0-0.5","527","","j","","","","","","","","","","","","","key","j","11.09263087248339","720","446","j","true","img/T_ambi40.png","方形","prac_word_first",""
"","","","","","html-keyboard-response","71","420786","0.0-9.0-0.0-1.5","null","<span style='color:GreenYellow; font-size: 70px;'>正确! </span>","null","","","","","","","","","","","","","","","","","","","","","","","feedback_test"
"","","","","","psychophysics","72","422462","0.0-9.0-0.0-0.6","525","","f","","","","","","","","","","","","","key","f","11.110826666666737","720","446","f","true","img/S_ambi40.png","方形","prac_word_first",""
"","","","","","html-keyboard-response","73","422765","0.0-9.0-0.0-1.6","null","<span style='color:GreenYellow; font-size: 70px;'>正确! </span>","null","","","","","","","","","","","","","","","","","","","","","","","feedback_test"
"","","","","","psychophysics","74","424376","0.0-9.0-0.0-0.7","461","","f","","","","","","","","","","","","","key","f","11.111715277777774","720","446","f","true","img/T_ambi40.png","三角","prac_word_first",""
"","","","","","html-keyboard-response","75","424687","0.0-9.0-0.0-1.7","null","<span style='color:GreenYellow; font-size: 70px;'>正确! </span>","null","","","","","","","","","","","","","","","","","","","","","","","feedback_test"
"","","","","","psychophysics","76","426402","0.0-9.0-0.0-0.8","564","","j","","","","","","","","","","","","","key","j","11.112326797385535","720","446","j","true","img/S_ambi40.png","三角","prac_word_first",""
"","","","","","html-keyboard-response","77","426715","0.0-9.0-0.0-1.8","null","<span style='color:GreenYellow; font-size: 70px;'>正确! </span>","null","","","","","","","","","","","","","","","","","","","","","","","feedback_test"
"","","","","","psychophysics","78","428337","0.0-9.0-0.0-0.9","471","","j","","","","","","","","","","","","","key","j","11.110462068965466","720","446","j","true","img/T_ambi40.png","圆形","prac_word_first",""
"","","","","","html-keyboard-response","79","428650","0.0-9.0-0.0-1.9","null","<span style='color:GreenYellow; font-size: 70px;'>正确! </span>","null","","","","","","","","","","","","","","","","","","","","","","","feedback_test"
"","","","","","psychophysics","80","430302","0.0-9.0-0.0-0.10","499","","j","","","","","","","","","","","","","key","j","11.112598639455953","720","446","j","true","img/S_ambi40.png","圆形","prac_word_first",""
"","","","","","html-keyboard-response","81","430616","0.0-9.0-0.0-1.10","null","<span style='color:GreenYellow; font-size: 70px;'>正确! </span>","null","","","","","","","","","","","","","","","","","","","","","","","feedback_test"
"","","","","","psychophysics","82","432223","0.0-9.0-0.0-0.11","454","","f","","","","","","","","","","","","","key","f","11.111440559440469","720","446","f","true","img/T_ambi40.png","三角","prac_word_first",""
"","","","","","html-keyboard-response","83","432538","0.0-9.0-0.0-1.11","null","<span style='color:GreenYellow; font-size: 70px;'>正确! </span>","null","","","","","","","","","","","","","","","","","","","","","","","feedback_test"
"","","","","","psychophysics","84","434273","0.0-9.0-0.0-0.12","583","","f","","","","","","","","","","","","","key","f","11.110587096774214","720","446","f","true","img/S_ambi40.png","方形","prac_word_first",""
"","","","","","html-keyboard-response","85","434582","0.0-9.0-0.0-1.12","null","<span style='color:GreenYellow; font-size: 70px;'>正确! </span>","null","","","","","","","","","","","","","","","","","","","","","","","feedback_test"
"","","","","","psychophysics","86","436213","0.0-9.0-0.0-0.13","479","","f","","","","","","","","","","","","","key","f","11.111427586206942","720","446","f","true","img/C_ambi40.png","圆形","prac_word_first",""
"","","","","","html-keyboard-response","87","436514","0.0-9.0-0.0-1.13","null","<span style='color:GreenYellow; font-size: 70px;'>正确! </span>","null","","","","","","","","","","","","","","","","","","","","","","","feedback_test"
"","","","","","psychophysics","88","438119","0.0-9.0-0.0-0.14","451","","j","","","","","","","","","","","","","key","j","11.111769230769283","720","446","j","true","img/S_ambi40.png","圆形","prac_word_first",""
"","","","","","html-keyboard-response","89","438421","0.0-9.0-0.0-1.14","null","<span style='color:GreenYellow; font-size: 70px;'>正确! </span>","null","","","","","","","","","","","","","","","","","","","","","","","feedback_test"
"","","","","","psychophysics","90","440015","0.0-9.0-0.0-0.15","441","","j","","","","","","","","","","","","","key","j","11.11088111888132","720","446","j","true","img/C_ambi40.png","三角","prac_word_first",""
"","","","","","html-keyboard-response","91","440320","0.0-9.0-0.0-1.15","null","<span style='color:GreenYellow; font-size: 70px;'>正确! </span>","null","","","","","","","","","","","","","","","","","","","","","","","feedback_test"
"","","","","","psychophysics","92","441861","0.0-9.0-0.0-0.16","390","","f","","","","","","","","","","","","","key","f","11.11042028985516","720","446","f","true","img/T_ambi40.png","三角","prac_word_first",""
"","","","","","html-keyboard-response","93","442162","0.0-9.0-0.0-1.16","null","<span style='color:GreenYellow; font-size: 70px;'>正确! </span>","null","","","","","","","","","","","","","","","","","","","","","","","feedback_test"
"","","","","","psychophysics","94","443696","0.0-9.0-0.0-0.17","381","","j","","","","","","","","","","","","","key","j","11.109795620438073","720","446","j","true","img/C_ambi40.png","方形","prac_word_first",""
"","","","","","html-keyboard-response","95","444005","0.0-9.0-0.0-1.17","null","<span style='color:GreenYellow; font-size: 70px;'>正确! </span>","null","","","","","","","","","","","","","","","","","","","","","","","feedback_test"
"","","","","","psychophysics","96","445656","0.0-9.0-0.0-0.18","498","","f","","","","","","","","","","","","","key","f","11.110163265305847","720","446","f","true","img/S_ambi40.png","方形","prac_word_first",""
"","","","","","html-keyboard-response","97","445966","0.0-9.0-0.0-1.18","null","<span style='color:GreenYellow; font-size: 70px;'>正确! </span>","null","","","","","","","","","","","","","","","","","","","","","","","feedback_test"
"","","","","","psychophysics","98","447541","0.0-9.0-0.0-0.19","424","","f","","","","","","","","","","","","","key","f","11.111801418439478","720","446","f","true","img/T_ambi40.png","三角","prac_word_first",""
"","","","","","html-keyboard-response","99","447854","0.0-9.0-0.0-1.19","null","<span style='color:GreenYellow; font-size: 70px;'>正确! </span>","null","","","","","","","","","","","","","","","","","","","","","","","feedback_test"
"","","","","","psychophysics","100","449402","0.0-9.0-0.0-0.20","397","","f","","","","","","","","","","","","","key","f","11.111202898550445","720","446","f","true","img/C_ambi40.png","圆形","prac_word_first",""
"","","","","","html-keyboard-response","101","449715","0.0-9.0-0.0-1.20","null","<span style='color:GreenYellow; font-size: 70px;'>正确! </span>","null","","","","","","","","","","","","","","","","","","","","","","","feedback_test"
"","","","","","psychophysics","102","451369","0.0-9.0-0.0-0.21","503","","j","","","","","","","","","","","","","key","j","11.111993197279231","720","446","j","true","img/T_ambi40.png","圆形","prac_word_first",""
"","","","","","html-keyboard-response","103","451684","0.0-9.0-0.0-1.21","null","<span style='color:GreenYellow; font-size: 70px;'>正确! </span>","null","","","","","","","","","","","","","","","","","","","","","","","feedback_test"
"","","","","","psychophysics","104","453375","0.0-9.0-0.0-0.22","540","","j","","","","","","","","","","","","","key","j","11.111152317880697","720","446","j","true","img/S_ambi40.png","三角","prac_word_first",""
"","","","","","html-keyboard-response","105","453686","0.0-9.0-0.0-1.22","null","<span style='color:GreenYellow; font-size: 70px;'>正确! </span>","null","","","","","","","","","","","","","","","","","","","","","","","feedback_test"
"","","","","","psychophysics","106","455364","0.0-9.0-0.0-0.23","527","","j","","","","","","","","","","","","","key","j","11.11140000000014","720","446","j","true","img/T_ambi40.png","方形","prac_word_first",""
"","","","","","html-keyboard-response","107","455674","0.0-9.0-0.0-1.23","null","<span style='color:GreenYellow; font-size: 70px;'>正确! </span>","null","","","","","","","","","","","","","","","","","","","","","","","feedback_test"
"","","","","","html-keyboard-response","108","459154","0.0-10.0","3478","<style>.context{color:white; font-size: 35px; line-height:40px}</style>                            <div><p class='context'>您正确回答了100% 的试次。</p><p class='context'>您的平均反应时为515毫秒。</p><p class='context'>恭喜您完成练习。按任意键进入<span style='color: yellow;'>图形和文字同时呈现条件</span>的练习。</p></div>"," ","","","","","","","","","","","","","","","","","","","","","","",""
"","","","","","psychophysics","109","460996","0.0-11.0-0.0-0.0","837","","j","","","","","","","","","","","","","key","j","11.111599999999937","720","446","j","true","img/T_ambi40.png","方形","prac_simultaneous",""
"","","","","","html-keyboard-response","110","461305","0.0-11.0-0.0-1.0","null","<span style='color:GreenYellow; font-size: 70px;'>正确! </span>","null","","","","","","","","","","","","","","","","","","","","","","","feedback_test"
"","","","","","psychophysics","111","462880","0.0-11.0-0.0-0.1","572","","f","","","","","","","","","","","","","key","f","11.110050000000047","720","446","f","true","img/T_ambi40.png","三角","prac_simultaneous",""
"","","","","","html-keyboard-response","112","463181","0.0-11.0-0.0-1.1","null","<span style='color:GreenYellow; font-size: 70px;'>正确! </span>","null","","","","","","","","","","","","","","","","","","","","","","","feedback_test"
"","","","","","psychophysics","113","464772","0.0-11.0-0.0-0.2","589","","j","","","","","","","","","","","","","key","j","11.109436619718162","720","446","j","true","img/S_ambi40.png","三角","prac_simultaneous",""
"","","","","","html-keyboard-response","114","465076","0.0-11.0-0.0-1.2","null","<span style='color:GreenYellow; font-size: 70px;'>正确! </span>","null","","","","","","","","","","","","","","","","","","","","","","","feedback_test"
"","","","","","psychophysics","115","466691","0.0-11.0-0.0-0.3","614","","f","","","","","","","","","","","","","key","f","11.110687499999687","720","446","f","true","img/T_ambi40.png","三角","prac_simultaneous",""
"","","","","","html-keyboard-response","116","466997","0.0-11.0-0.0-1.3","null","<span style='color:GreenYellow; font-size: 70px;'>正确! </span>","null","","","","","","","","","","","","","","","","","","","","","","","feedback_test"
"","","","","","psychophysics","117","468543","0.0-11.0-0.0-0.4","544","","j","","","","","","","","","","","","","key","j","11.110202898551032","720","446","f","false","img/S_ambi40.png","方形","prac_simultaneous",""
"","","","","","html-keyboard-response","118","468846","0.0-11.0-0.0-1.4","null","<span style='color:red; font-size: 70px;'>错误! </span>","null","","","","","","","","","","","","","","","","","","","","","","","feedback_test"
"","","","","","psychophysics","119","470489","0.0-11.0-0.0-0.5","640","","f","","","","","","","","","","","","","key","f","11.111190476190682","720","446","f","true","img/C_ambi40.png","圆形","prac_simultaneous",""
"","","","","","html-keyboard-response","120","470801","0.0-11.0-0.0-1.5","null","<span style='color:GreenYellow; font-size: 70px;'>正确! </span>","null","","","","","","","","","","","","","","","","","","","","","","","feedback_test"
"","","","","","psychophysics","121","472423","0.0-11.0-0.0-0.6","621","","j","","","","","","","","","","","","","key","j","11.112303448275759","720","446","j","true","img/T_ambi40.png","圆形","prac_simultaneous",""
"","","","","","html-keyboard-response","122","472735","0.0-11.0-0.0-1.6","null","<span style='color:GreenYellow; font-size: 70px;'>正确! </span>","null","","","","","","","","","","","","","","","","","","","","","","","feedback_test"
"","","","","","psychophysics","123","474449","0.0-11.0-0.0-0.7","712","","f","","","","","","","","","","","","","key","f","11.111506493506626","720","446","f","true","img/C_ambi40.png","圆形","prac_simultaneous",""
"","","","","","html-keyboard-response","124","474754","0.0-11.0-0.0-1.7","null","<span style='color:GreenYellow; font-size: 70px;'>正确! </span>","null","","","","","","","","","","","","","","","","","","","","","","","feedback_test"
"","","","","","psychophysics","125","476470","0.0-11.0-0.0-0.8","715","","j","","","","","","","","","","","","","key","j","11.110934640522864","720","446","j","true","img/S_ambi40.png","圆形","prac_simultaneous",""
"","","","","","html-keyboard-response","126","476774","0.0-11.0-0.0-1.8","null","<span style='color:GreenYellow; font-size: 70px;'>正确! </span>","null","","","","","","","","","","","","","","","","","","","","","","","feedback_test"
"","","","","","psychophysics","127","478415","0.0-11.0-0.0-0.9","640","","f","","","","","","","","","","","","","key","f","11.112171232876566","720","446","j","false","img/C_ambi40.png","三角","prac_simultaneous",""
"","","","","","html-keyboard-response","128","478725","0.0-11.0-0.0-1.9","null","<span style='color:red; font-size: 70px;'>错误! </span>","null","","","","","","","","","","","","","","","","","","","","","","","feedback_test"
"","","","","","psychophysics","129","480502","0.0-11.0-0.0-0.10","774","","f","","","","","","","","","","","","","key","f","11.084215189873305","720","446","j","false","img/C_ambi40.png","方形","prac_simultaneous",""
"","","","","","html-keyboard-response","130","480814","0.0-11.0-0.0-1.10","null","<span style='color:red; font-size: 70px;'>错误! </span>","null","","","","","","","","","","","","","","","","","","","","","","","feedback_test"
"","","","","","psychophysics","131","482633","0.0-11.0-0.0-0.11","818","","f","","","","","","","","","","","","","key","f","11.085716049382707","720","446","f","true","img/S_ambi40.png","方形","prac_simultaneous",""
"","","","","","html-keyboard-response","132","482938","0.0-11.0-0.0-1.11","null","<span style='color:GreenYellow; font-size: 70px;'>正确! </span>","null","","","","","","","","","","","","","","","","","","","","","","","feedback_test"
"","","","","","psychophysics","133","484644","0.0-11.0-0.0-0.12","705","","f","","","","","","","","","","","","","key","f","11.110427631578778","720","446","f","true","img/S_ambi40.png","方形","prac_simultaneous",""
"","","","","","html-keyboard-response","134","484950","0.0-11.0-0.0-1.12","null","<span style='color:GreenYellow; font-size: 70px;'>正确! </span>","null","","","","","","","","","","","","","","","","","","","","","","","feedback_test"
"","","","","","psychophysics","135","486736","0.0-11.0-0.0-0.13","785","","j","","","","","","","","","","","","","key","j","11.109937106918489","720","446","j","true","img/C_ambi40.png","方形","prac_simultaneous",""
"","","","","","html-keyboard-response","136","487041","0.0-11.0-0.0-1.13","null","<span style='color:GreenYellow; font-size: 70px;'>正确! </span>","null","","","","","","","","","","","","","","","","","","","","","","","feedback_test"
"","","","","","psychophysics","137","488567","0.0-11.0-0.0-0.14","524","","f","","","","","","","","","","","","","key","f","11.111066176470452","720","446","f","true","img/T_ambi40.png","三角","prac_simultaneous",""
"","","","","","html-keyboard-response","138","488879","0.0-11.0-0.0-1.14","null","<span style='color:GreenYellow; font-size: 70px;'>正确! </span>","null","","","","","","","","","","","","","","","","","","","","","","","feedback_test"
"","","","","","psychophysics","139","490487","0.0-11.0-0.0-0.15","605","","f","","","","","","","","","","","","","key","f","11.11206944444469","720","446","f","true","img/C_ambi40.png","圆形","prac_simultaneous",""
"","","","","","html-keyboard-response","140","490796","0.0-11.0-0.0-1.15","null","<span style='color:GreenYellow; font-size: 70px;'>正确! </span>","null","","","","","","","","","","","","","","","","","","","","","","","feedback_test"
"","","","","","psychophysics","141","492599","0.0-11.0-0.0-0.16","802","","f","","","","","","","","","","","","","key","f","11.110055900621012","720","446","f","true","img/S_ambi40.png","方形","prac_simultaneous",""
"","","","","","html-keyboard-response","142","492903","0.0-11.0-0.0-1.16","null","<span style='color:GreenYellow; font-size: 70px;'>正确! </span>","null","","","","","","","","","","","","","","","","","","","","","","","feedback_test"
"","","","","","psychophysics","143","494589","0.0-11.0-0.0-0.17","685","","j","","","","","","","","","","","","","key","j","11.110906666666658","720","446","j","true","img/C_ambi40.png","三角","prac_simultaneous",""
"","","","","","html-keyboard-response","144","494891","0.0-11.0-0.0-1.17","null","<span style='color:GreenYellow; font-size: 70px;'>正确! </span>","null","","","","","","","","","","","","","","","","","","","","","","","feedback_test"
"","","","","","psychophysics","145","496635","0.0-11.0-0.0-0.18","742","","j","","","","","","","","","","","","","key","j","11.090825806451857","720","446","j","true","img/S_ambi40.png","圆形","prac_simultaneous",""
"","","","","","html-keyboard-response","146","496938","0.0-11.0-0.0-1.18","null","<span style='color:GreenYellow; font-size: 70px;'>正确! </span>","null","","","","","","","","","","","","","","","","","","","","","","","feedback_test"
"","","","","","psychophysics","147","498522","0.0-11.0-0.0-0.19","582","","f","","","","","","","","","","","","","key","f","11.352079710144924","720","446","f","true","img/C_ambi40.png","圆形","prac_simultaneous",""
"","","","","","html-keyboard-response","148","498831","0.0-11.0-0.0-1.19","null","<span style='color:GreenYellow; font-size: 70px;'>正确! </span>","null","","","","","","","","","","","","","","","","","","","","","","","feedback_test"
"","","","","","psychophysics","149","500451","0.0-11.0-0.0-0.20","619","","j","","","","","","","","","","","","","key","j","11.509099999999828","720","446","j","true","img/T_ambi40.png","方形","prac_simultaneous",""
"","","","","","html-keyboard-response","150","500753","0.0-11.0-0.0-1.20","null","<span style='color:GreenYellow; font-size: 70px;'>正确! </span>","null","","","","","","","","","","","","","","","","","","","","","","","feedback_test"
"","","","","","psychophysics","151","502478","0.0-11.0-0.0-0.21","724","","j","","","","","","","","","","","","","key","j","11.258631578947595","720","446","j","true","img/T_ambi40.png","圆形","prac_simultaneous",""
"","","","","","html-keyboard-response","152","502782","0.0-11.0-0.0-1.21","null","<span style='color:GreenYellow; font-size: 70px;'>正确! </span>","null","","","","","","","","","","","","","","","","","","","","","","","feedback_test"
"","","","","","psychophysics","153","504443","0.0-11.0-0.0-0.22","660","","j","","","","","","","","","","","","","key","j","11.110493243243262","720","446","j","true","img/S_ambi40.png","三角","prac_simultaneous",""
"","","","","","html-keyboard-response","154","504752","0.0-11.0-0.0-1.22","null","<span style='color:GreenYellow; font-size: 70px;'>正确! </span>","null","","","","","","","","","","","","","","","","","","","","","","","feedback_test"
"","","","","","psychophysics","155","506319","0.0-11.0-0.0-0.23","566","","f","","","","","","","","","","","","","key","f","11.1109928571432","720","446","f","true","img/T_ambi40.png","三角","prac_simultaneous",""
"","","","","","html-keyboard-response","156","506626","0.0-11.0-0.0-1.23","null","<span style='color:GreenYellow; font-size: 70px;'>正确! </span>","null","","","","","","","","","","","","","","","","","","","","","","","feedback_test"
"","","","","","html-keyboard-response","157","510602","0.0-12.0","3974","<style>.context{color:white; font-size: 35px; line-height:40px}</style>                            <div><p class='context'>您正确回答了88% 的试次。</p><p class='context'>您的平均反应时为672毫秒。</p><p class='context'>恭喜您完成练习。按任意键进入正式实验。</p><p class='footer' style='font-size: 35px; line-height:40px;'>请在进入正式实验实验之前将您的<span style='color: lightgreen;'>食指</span>放在电脑键盘的相应键位上进行按键。</p>"," ","","","","","","","","","","","","","","","","","","","","","","",""
"","","","","","html-keyboard-response","158","515371","0.0-13.0-1.0-0.0","4766","
    <p>请您将手指放在按键上，准备进入呈现顺序为<span style='color: yellow;'>先文字后图形条件</span>的正式匹配任务</p>
    <p> <div style = ""color: green""><按任意键进入下一阶段的匹配任务></div></p>
    "," ","","","","","","","","","","","","","","","","","","","","","","",""
"","","","","","psychophysics","159","517163","0.0-13.0-1.0-1.0-0.0-0.0","640","","j","","","","","","","","","","","","","key","j","11.110862500000076","720","446","j","true","img/C_ambi40.png","方形","word_first",""
"","","","","","html-keyboard-response","160","517469","0.0-13.0-1.0-1.0-0.0-1.0","null","<span style='color:GreenYellow; font-size: 70px;'>正确! </span>","null","","","","","","","","","","","","","","","","","","","","","","","feedback_test"
"","","","","","psychophysics","161","519109","0.0-13.0-1.0-1.0-0.0-0.1","483","","f","","","","","","","","","","","","","key","f","11.093719178082322","720","446","f","true","img/C_ambi40.png","圆形","word_first",""
"","","","","","html-keyboard-response","162","519413","0.0-13.0-1.0-1.0-0.0-1.1","null","<span style='color:GreenYellow; font-size: 70px;'>正确! </span>","null","","","","","","","","","","","","","","","","","","","","","","","feedback_test"
"","","","","","psychophysics","163","521069","0.0-13.0-1.0-1.0-0.0-0.2","499","","j","","","","","","","","","","","","","key","j","11.090428571428607","720","446","j","true","img/S_ambi40.png","圆形","word_first",""
"","","","","","html-keyboard-response","164","521384","0.0-13.0-1.0-1.0-0.0-1.2","null","<span style='color:GreenYellow; font-size: 70px;'>正确! </span>","null","","","","","","","","","","","","","","","","","","","","","","","feedback_test"
"","","","","","psychophysics","165","523002","0.0-13.0-1.0-1.0-0.0-0.3","466","","j","","","","","","","","","","","","","key","j","11.110625000000356","720","446","j","true","img/T_ambi40.png","方形","word_first",""
"","","","","","html-keyboard-response","166","523305","0.0-13.0-1.0-1.0-0.0-1.3","null","<span style='color:GreenYellow; font-size: 70px;'>正确! </span>","null","","","","","","","","","","","","","","","","","","","","","","","feedback_test"
"","","","","","psychophysics","167","525106","0.0-13.0-1.0-1.0-0.0-0.4","650","","f","","","","","","","","","","","","","key","f","11.110254658384665","720","446","f","true","img/S_ambi40.png","方形","word_first",""
"","","","","","html-keyboard-response","168","525412","0.0-13.0-1.0-1.0-0.0-1.4","null","<span style='color:GreenYellow; font-size: 70px;'>正确! </span>","null","","","","","","","","","","","","","","","","","","","","","","","feedback_test"
"","","","","","psychophysics","169","527082","0.0-13.0-1.0-1.0-0.0-0.5","518","","j","","","","","","","","","","","","","key","j","11.1115466666664","720","446","j","true","img/S_ambi40.png","三角","word_first",""
"","","","","","html-keyboard-response","170","527397","0.0-13.0-1.0-1.0-0.0-1.5","null","<span style='color:GreenYellow; font-size: 70px;'>正确! </span>","null","","","","","","","","","","","","","","","","","","","","","","","feedback_test"
"","","","","","psychophysics","171","529032","0.0-13.0-1.0-1.0-0.0-0.6","484","","f","","","","","","","","","","","","","key","f","11.110821917807773","720","446","f","true","img/T_ambi40.png","三角","word_first",""
"","","","","","html-keyboard-response","172","529338","0.0-13.0-1.0-1.0-0.0-1.6","null","<span style='color:GreenYellow; font-size: 70px;'>正确! </span>","null","","","","","","","","","","","","","","","","","","","","","","","feedback_test"
"","","","","","psychophysics","173","530929","0.0-13.0-1.0-1.0-0.0-0.7","440","","j","","","","","","","","","","","","","key","j","11.112274647887114","720","446","j","true","img/T_ambi40.png","圆形","word_first",""
"","","","","","html-keyboard-response","174","531238","0.0-13.0-1.0-1.0-0.0-1.7","null","<span style='color:GreenYellow; font-size: 70px;'>正确! </span>","null","","","","","","","","","","","","","","","","","","","","","","","feedback_test"
"","","","","","psychophysics","175","532854","0.0-13.0-1.0-1.0-0.0-0.8","463","","f","","","","","","","","","","","","","key","f","11.109708333332996","720","446","f","true","img/T_ambi40.png","三角","word_first",""
"","","","","","html-keyboard-response","176","533165","0.0-13.0-1.0-1.0-0.0-1.8","null","<span style='color:GreenYellow; font-size: 70px;'>正确! </span>","null","","","","","","","","","","","","","","","","","","","","","","","feedback_test"
"","","","","","psychophysics","177","534790","0.0-13.0-1.0-1.0-0.0-0.9","475","","f","","","","","","","","","","","","","key","f","11.11190344827603","720","446","f","true","img/C_ambi40.png","圆形","word_first",""
"","","","","","html-keyboard-response","178","535103","0.0-13.0-1.0-1.0-0.0-1.9","null","<span style='color:GreenYellow; font-size: 70px;'>正确! </span>","null","","","","","","","","","","","","","","","","","","","","","","","feedback_test"
"","","","","","psychophysics","179","536771","0.0-13.0-1.0-1.0-0.0-0.10","516","","f","","","","","","","","","","","","","key","f","11.109879194630697","720","446","f","true","img/S_ambi40.png","方形","word_first",""
"","","","","","html-keyboard-response","180","537074","0.0-13.0-1.0-1.0-0.0-1.10","null","<span style='color:GreenYellow; font-size: 70px;'>正确! </span>","null","","","","","","","","","","","","","","","","","","","","","","","feedback_test"
"","","","","","psychophysics","181","538637","0.0-13.0-1.0-1.0-0.0-0.11","412","","j","","","","","","","","","","","","","key","j","11.110474820144093","720","446","j","true","img/C_ambi40.png","三角","word_first",""
"","","","","","html-keyboard-response","182","538948","0.0-13.0-1.0-1.0-0.0-1.11","null","<span style='color:GreenYellow; font-size: 70px;'>正确! </span>","null","","","","","","","","","","","","","","","","","","","","","","","feedback_test"
"","","","","","psychophysics","183","540518","0.0-13.0-1.0-1.0-0.0-0.12","418","","f","","","","","","","","","","","","","key","f","11.110942857142904","720","446","f","true","img/C_ambi40.png","圆形","word_first",""
"","","","","","html-keyboard-response","184","540823","0.0-13.0-1.0-1.0-0.0-1.12","null","<span style='color:GreenYellow; font-size: 70px;'>正确! </span>","null","","","","","","","","","","","","","","","","","","","","","","","feedback_test"
"","","","","","psychophysics","185","542479","0.0-13.0-1.0-1.0-0.0-0.13","505","","f","","","","","","","","","","","","","key","f","11.111851351351376","720","446","f","true","img/S_ambi40.png","方形","word_first",""
"","","","","","html-keyboard-response","186","542792","0.0-13.0-1.0-1.0-0.0-1.13","null","<span style='color:GreenYellow; font-size: 70px;'>正确! </span>","null","","","","","","","","","","","","","","","","","","","","","","","feedback_test"
"","","","","","psychophysics","187","544389","0.0-13.0-1.0-1.0-0.0-0.14","445","","f","","","","","","","","","","","","","key","f","11.111281690140203","720","446","f","true","img/T_ambi40.png","三角","word_first",""
"","","","","","html-keyboard-response","188","544702","0.0-13.0-1.0-1.0-0.0-1.14","null","<span style='color:GreenYellow; font-size: 70px;'>正确! </span>","null","","","","","","","","","","","","","","","","","","","","","","","feedback_test"
"","","","","","psychophysics","189","546304","0.0-13.0-1.0-1.0-0.0-0.15","446","","j","","","","","","","","","","","","","key","j","11.11204166666721","720","446","j","true","img/C_ambi40.png","三角","word_first",""
"","","","","","html-keyboard-response","190","546619","0.0-13.0-1.0-1.0-0.0-1.15","null","<span style='color:GreenYellow; font-size: 70px;'>正确! </span>","null","","","","","","","","","","","","","","","","","","","","","","","feedback_test"
"","","","","","psychophysics","191","548316","0.0-13.0-1.0-1.0-0.0-0.16","545","","j","","","","","","","","","","","","","key","j","11.110611842105802","720","446","j","true","img/S_ambi40.png","三角","word_first",""
"","","","","","html-keyboard-response","192","548622","0.0-13.0-1.0-1.0-0.0-1.16","null","<span style='color:GreenYellow; font-size: 70px;'>正确! </span>","null","","","","","","","","","","","","","","","","","","","","","","","feedback_test"
"","","","","","psychophysics","193","550176","0.0-13.0-1.0-1.0-0.0-0.17","404","","j","","","","","","","","","","","","","key","j","11.112316546763173","720","446","f","false","img/S_ambi40.png","方形","word_first",""
"","","","","","html-keyboard-response","194","550484","0.0-13.0-1.0-1.0-0.0-1.17","null","<span style='color:red; font-size: 70px;'>错误! </span>","null","","","","","","","","","","","","","","","","","","","","","","","feedback_test"
"","","","","","psychophysics","195","552143","0.0-13.0-1.0-1.0-0.0-0.18","508","","j","","","","","","","","","","","","","key","j","11.111277027026517","720","446","j","true","img/T_ambi40.png","方形","word_first",""
"","","","","","html-keyboard-response","196","552451","0.0-13.0-1.0-1.0-0.0-1.18","null","<span style='color:GreenYellow; font-size: 70px;'>正确! </span>","null","","","","","","","","","","","","","","","","","","","","","","","feedback_test"
"","","","","","psychophysics","197","554029","0.0-13.0-1.0-1.0-0.0-0.19","426","","f","","","","","","","","","","","","","key","f","11.110858156028739","720","446","f","true","img/C_ambi40.png","圆形","word_first",""
"","","","","","html-keyboard-response","198","554339","0.0-13.0-1.0-1.0-0.0-1.19","null","<span style='color:GreenYellow; font-size: 70px;'>正确! </span>","null","","","","","","","","","","","","","","","","","","","","","","","feedback_test"
"","","","","","psychophysics","199","556035","0.0-13.0-1.0-1.0-0.0-0.20","544","","j","","","","","","","","","","","","","key","j","11.109781456953963","720","446","j","true","img/C_ambi40.png","方形","word_first",""
"","","","","","html-keyboard-response","200","556337","0.0-13.0-1.0-1.0-0.0-1.20","null","<span style='color:GreenYellow; font-size: 70px;'>正确! </span>","null","","","","","","","","","","","","","","","","","","","","","","","feedback_test"
"","","","","","psychophysics","201","557996","0.0-13.0-1.0-1.0-0.0-0.21","508","","j","","","","","","","","","","","","","key","j","11.110263513512846","720","446","j","true","img/S_ambi40.png","圆形","word_first",""
"","","","","","html-keyboard-response","202","558302","0.0-13.0-1.0-1.0-0.0-1.21","null","<span style='color:GreenYellow; font-size: 70px;'>正确! </span>","null","","","","","","","","","","","","","","","","","","","","","","","feedback_test"
"","","","","","psychophysics","203","559901","0.0-13.0-1.0-1.0-0.0-0.22","442","","f","","","","","","","","","","","","","key","f","11.089725352112945","720","446","f","true","img/T_ambi40.png","三角","word_first",""
"","","","","","html-keyboard-response","204","560208","0.0-13.0-1.0-1.0-0.0-1.22","null","<span style='color:GreenYellow; font-size: 70px;'>正确! </span>","null","","","","","","","","","","","","","","","","","","","","","","","feedback_test"
"","","","","","psychophysics","205","561843","0.0-13.0-1.0-1.0-0.0-0.23","483","","j","","","","","","","","","","","","","key","j","11.110979452054654","720","446","j","true","img/T_ambi40.png","圆形","word_first",""
"","","","","","html-keyboard-response","206","562154","0.0-13.0-1.0-1.0-0.0-1.23","null","<span style='color:GreenYellow; font-size: 70px;'>正确! </span>","null","","","","","","","","","","","","","","","","","","","","","","","feedback_test"
"","","","","","psychophysics","207","563804","0.0-13.0-1.0-1.0-0.0-0.24","498","","f","","","","","","","","","","","","","key","f","11.111163265306224","720","446","f","true","img/S_ambi40.png","方形","word_first",""
"","","","","","html-keyboard-response","208","564108","0.0-13.0-1.0-1.0-0.0-1.24","null","<span style='color:GreenYellow; font-size: 70px;'>正确! </span>","null","","","","","","","","","","","","","","","","","","","","","","","feedback_test"
"","","","","","psychophysics","209","565730","0.0-13.0-1.0-1.0-0.0-0.25","471","","j","","","","","","","","","","","","","key","j","11.11129655172358","720","446","j","true","img/S_ambi40.png","圆形","word_first",""
"","","","","","html-keyboard-response","210","566033","0.0-13.0-1.0-1.0-0.0-1.25","null","<span style='color:GreenYellow; font-size: 70px;'>正确! </span>","null","","","","","","","","","","","","","","","","","","","","","","","feedback_test"
"","","","","","psychophysics","211","567696","0.0-13.0-1.0-1.0-0.0-0.26","513","","j","","","","","","","","","","","","","key","j","11.112120805369164","720","446","j","true","img/C_ambi40.png","方形","word_first",""
"","","","","","html-keyboard-response","212","568004","0.0-13.0-1.0-1.0-0.0-1.26","null","<span style='color:GreenYellow; font-size: 70px;'>正确! </span>","null","","","","","","","","","","","","","","","","","","","","","","","feedback_test"
"","","","","","psychophysics","213","569577","0.0-13.0-1.0-1.0-0.0-0.27","421","","f","","","","","","","","","","","","","key","f","11.109335714285928","720","446","f","true","img/C_ambi40.png","圆形","word_first",""
"","","","","","html-keyboard-response","214","569891","0.0-13.0-1.0-1.0-0.0-1.27","null","<span style='color:GreenYellow; font-size: 70px;'>正确! </span>","null","","","","","","","","","","","","","","","","","","","","","","","feedback_test"
"","","","","","psychophysics","215","571473","0.0-13.0-1.0-1.0-0.0-0.28","424","","f","","","","","","","","","","","","","key","f","11.094099290780425","720","446","f","true","img/S_ambi40.png","方形","word_first",""
"","","","","","html-keyboard-response","216","571789","0.0-13.0-1.0-1.0-0.0-1.28","null","<span style='color:GreenYellow; font-size: 70px;'>正确! </span>","null","","","","","","","","","","","","","","","","","","","","","","","feedback_test"
"","","","","","psychophysics","217","573333","0.0-13.0-1.0-1.0-0.0-0.29","393","","j","","","","","","","","","","","","","key","j","11.112717391304718","720","446","j","true","img/C_ambi40.png","三角","word_first",""
"","","","","","html-keyboard-response","218","573647","0.0-13.0-1.0-1.0-0.0-1.29","null","<span style='color:GreenYellow; font-size: 70px;'>正确! </span>","null","","","","","","","","","","","","","","","","","","","","","","","feedback_test"
"","","","","","psychophysics","219","575300","0.0-13.0-1.0-1.0-0.0-0.30","496","","f","","","","","","","","","","","","","key","f","11.086877551020859","720","446","f","true","img/T_ambi40.png","三角","word_first",""
"","","","","","html-keyboard-response","220","575616","0.0-13.0-1.0-1.0-0.0-1.30","null","<span style='color:GreenYellow; font-size: 70px;'>正确! </span>","null","","","","","","","","","","","","","","","","","","","","","","","feedback_test"
"","","","","","psychophysics","221","577266","0.0-13.0-1.0-1.0-0.0-0.31","499","","f","","","","","","","","","","","","","key","f","11.264662068965041","720","446","f","true","img/C_ambi40.png","圆形","word_first",""
"","","","","","html-keyboard-response","222","577579","0.0-13.0-1.0-1.0-0.0-1.31","null","<span style='color:GreenYellow; font-size: 70px;'>正确! </span>","null","","","","","","","","","","","","","","","","","","","","","","","feedback_test"
"","","","","","psychophysics","223","579166","0.0-13.0-1.0-1.0-0.0-0.32","436","","f","","","","","","","","","","","","","key","f","11.110760563380301","720","446","f","true","img/T_ambi40.png","三角","word_first",""
"","","","","","html-keyboard-response","224","579481","0.0-13.0-1.0-1.0-0.0-1.32","null","<span style='color:GreenYellow; font-size: 70px;'>正确! </span>","null","","","","","","","","","","","","","","","","","","","","","","","feedback_test"
"","","","","","psychophysics","225","581064","0.0-13.0-1.0-1.0-0.0-0.33","431","","j","","","","","","","","","","","","","key","j","11.112078014184087","720","446","j","true","img/T_ambi40.png","圆形","word_first",""
"","","","","","html-keyboard-response","226","581367","0.0-13.0-1.0-1.0-0.0-1.33","null","<span style='color:GreenYellow; font-size: 70px;'>正确! </span>","null","","","","","","","","","","","","","","","","","","","","","","","feedback_test"
"","","","","","psychophysics","227","582979","0.0-13.0-1.0-1.0-0.0-0.34","460","","j","","","","","","","","","","","","","key","j","11.112006944444147","720","446","j","true","img/S_ambi40.png","三角","word_first",""
"","","","","","html-keyboard-response","228","583288","0.0-13.0-1.0-1.0-0.0-1.34","null","<span style='color:GreenYellow; font-size: 70px;'>正确! </span>","null","","","","","","","","","","","","","","","","","","","","","","","feedback_test"
"","","","","","psychophysics","229","584889","0.0-13.0-1.0-1.0-0.0-0.35","450","","j","","","","","","","","","","","","","key","j","11.11106293706282","720","446","j","true","img/T_ambi40.png","方形","word_first",""
"","","","","","html-keyboard-response","230","585193","0.0-13.0-1.0-1.0-0.0-1.35","null","<span style='color:GreenYellow; font-size: 70px;'>正确! </span>","null","","","","","","","","","","","","","","","","","","","","","","","feedback_test"
"","","","","","psychophysics","231","586755","0.0-13.0-1.0-1.0-0.0-0.36","410","","j","","","","","","","","","","","","","key","j","11.111431654676688","720","446","j","true","img/S_ambi40.png","三角","word_first",""
"","","","","","html-keyboard-response","232","587066","0.0-13.0-1.0-1.0-0.0-1.36","null","<span style='color:GreenYellow; font-size: 70px;'>正确! </span>","null","","","","","","","","","","","","","","","","","","","","","","","feedback_test"
"","","","","","psychophysics","233","588596","0.0-13.0-1.0-1.0-0.0-0.37","379","","f","","","","","","","","","","","","","key","f","11.112540145985013","720","446","f","true","img/T_ambi40.png","三角","word_first",""
"","","","","","html-keyboard-response","234","588911","0.0-13.0-1.0-1.0-0.0-1.37","null","<span style='color:GreenYellow; font-size: 70px;'>正确! </span>","null","","","","","","","","","","","","","","","","","","","","","","","feedback_test"
"","","","","","psychophysics","235","590483","0.0-13.0-1.0-1.0-0.0-0.38","420","","j","","","","","","","","","","","","","key","j","11.110900709219772","720","446","j","true","img/S_ambi40.png","圆形","word_first",""
"","","","","","html-keyboard-response","236","590795","0.0-13.0-1.0-1.0-0.0-1.38","null","<span style='color:GreenYellow; font-size: 70px;'>正确! </span>","null","","","","","","","","","","","","","","","","","","","","","","","feedback_test"
"","","","","","psychophysics","237","592383","0.0-13.0-1.0-1.0-0.0-0.39","437","","j","","","","","","","","","","","","","key","j","11.110147887323556","720","446","j","true","img/C_ambi40.png","三角","word_first",""
"","","","","","html-keyboard-response","238","592693","0.0-13.0-1.0-1.0-0.0-1.39","null","<span style='color:GreenYellow; font-size: 70px;'>正确! </span>","null","","","","","","","","","","","","","","","","","","","","","","","feedback_test"
"","","","","","psychophysics","239","594289","0.0-13.0-1.0-1.0-0.0-0.40","445","","j","","","","","","","","","","","","","key","j","11.112366197183137","720","446","j","true","img/C_ambi40.png","方形","word_first",""
"","","","","","html-keyboard-response","240","594601","0.0-13.0-1.0-1.0-0.0-1.40","null","<span style='color:GreenYellow; font-size: 70px;'>正确! </span>","null","","","","","","","","","","","","","","","","","","","","","","","feedback_test"
"","","","","","psychophysics","241","596201","0.0-13.0-1.0-1.0-0.0-0.41","448","","j","","","","","","","","","","","","","key","j","11.11179020978963","720","446","f","false","img/C_ambi40.png","圆形","word_first",""
"","","","","","html-keyboard-response","242","596509","0.0-13.0-1.0-1.0-0.0-1.41","null","<span style='color:red; font-size: 70px;'>错误! </span>","null","","","","","","","","","","","","","","","","","","","","","","","feedback_test"
"","","","","","psychophysics","243","598213","0.0-13.0-1.0-1.0-0.0-0.42","553","","j","","","","","","","","","","","","","key","j","11.11065131578959","720","446","j","true","img/T_ambi40.png","圆形","word_first",""
"","","","","","html-keyboard-response","244","598527","0.0-13.0-1.0-1.0-0.0-1.42","null","<span style='color:GreenYellow; font-size: 70px;'>正确! </span>","null","","","","","","","","","","","","","","","","","","","","","","","feedback_test"
"","","","","","psychophysics","245","600102","0.0-13.0-1.0-1.0-0.0-0.43","424","","j","","","","","","","","","","","","","key","j","11.111571428571395","720","446","j","true","img/T_ambi40.png","方形","word_first",""
"","","","","","html-keyboard-response","246","600413","0.0-13.0-1.0-1.0-0.0-1.43","null","<span style='color:GreenYellow; font-size: 70px;'>正确! </span>","null","","","","","","","","","","","","","","","","","","","","","","","feedback_test"
"","","","","","psychophysics","247","601973","0.0-13.0-1.0-1.0-0.0-0.44","407","","f","","","","","","","","","","","","","key","f","11.095467625899415","720","446","f","true","img/T_ambi40.png","三角","word_first",""
"","","","","","html-keyboard-response","248","602281","0.0-13.0-1.0-1.0-0.0-1.44","null","<span style='color:GreenYellow; font-size: 70px;'>正确! </span>","null","","","","","","","","","","","","","","","","","","","","","","","feedback_test"
"","","","","","psychophysics","249","604059","0.0-13.0-1.0-1.0-0.0-0.45","624","","f","","","","","","","","","","","","","key","f","11.084873417721726","720","446","f","true","img/S_ambi40.png","方形","word_first",""
"","","","","","html-keyboard-response","250","604371","0.0-13.0-1.0-1.0-0.0-1.45","null","<span style='color:GreenYellow; font-size: 70px;'>正确! </span>","null","","","","","","","","","","","","","","","","","","","","","","","feedback_test"
"","","","","","psychophysics","251","606061","0.0-13.0-1.0-1.0-0.0-0.46","539","","f","","","","","","","","","","","","","key","f","11.111602649006327","720","446","f","true","img/C_ambi40.png","圆形","word_first",""
"","","","","","html-keyboard-response","252","606368","0.0-13.0-1.0-1.0-0.0-1.46","null","<span style='color:GreenYellow; font-size: 70px;'>正确! </span>","null","","","","","","","","","","","","","","","","","","","","","","","feedback_test"
"","","","","","psychophysics","253","608023","0.0-13.0-1.0-1.0-0.0-0.47","501","","j","","","","","","","","","","","","","key","j","11.112013513514162","720","446","f","false","img/S_ambi40.png","方形","word_first",""
"","","","","","html-keyboard-response","254","608340","0.0-13.0-1.0-1.0-0.0-1.47","null","<span style='color:red; font-size: 70px;'>错误! </span>","null","","","","","","","","","","","","","","","","","","","","","","","feedback_test"
"","","","","","psychophysics","255","610304","0.0-13.0-1.0-1.0-0.0-0.48","812","","j","","","","","","","","","","","","","key","j","11.110782857142787","720","446","j","true","img/S_ambi40.png","圆形","word_first",""
"","","","","","html-keyboard-response","256","610606","0.0-13.0-1.0-1.0-0.0-1.48","null","<span style='color:GreenYellow; font-size: 70px;'>正确! </span>","null","","","","","","","","","","","","","","","","","","","","","","","feedback_test"
"","","","","","psychophysics","257","612216","0.0-13.0-1.0-1.0-0.0-0.49","458","","f","","","","","","","","","","","","","key","f","11.109972222222293","720","446","f","true","img/T_ambi40.png","三角","word_first",""
"","","","","","html-keyboard-response","258","612526","0.0-13.0-1.0-1.0-0.0-1.49","null","<span style='color:GreenYellow; font-size: 70px;'>正确! </span>","null","","","","","","","","","","","","","","","","","","","","","","","feedback_test"
"","","","","","psychophysics","259","614097","0.0-13.0-1.0-1.0-0.0-0.50","420","","f","","","","","","","","","","","","","key","f","11.110985714285302","720","446","f","true","img/S_ambi40.png","方形","word_first",""
"","","","","","html-keyboard-response","260","614408","0.0-13.0-1.0-1.0-0.0-1.50","null","<span style='color:GreenYellow; font-size: 70px;'>正确! </span>","null","","","","","","","","","","","","","","","","","","","","","","","feedback_test"
"","","","","","psychophysics","261","616087","0.0-13.0-1.0-1.0-0.0-0.51","528","","j","","","","","","","","","","","","","key","j","11.111786666666934","720","446","j","true","img/C_ambi40.png","方形","word_first",""
"","","","","","html-keyboard-response","262","616401","0.0-13.0-1.0-1.0-0.0-1.51","null","<span style='color:GreenYellow; font-size: 70px;'>正确! </span>","null","","","","","","","","","","","","","","","","","","","","","","","feedback_test"
"","","","","","psychophysics","263","618044","0.0-13.0-1.0-1.0-0.0-0.52","493","","j","","","","","","","","","","","","","key","j","11.187924657534483","720","446","j","true","img/T_ambi40.png","方形","word_first",""
"","","","","","html-keyboard-response","264","618357","0.0-13.0-1.0-1.0-0.0-1.52","null","<span style='color:GreenYellow; font-size: 70px;'>正确! </span>","null","","","","","","","","","","","","","","","","","","","","","","","feedback_test"
"","","","","","psychophysics","265","620090","0.0-13.0-1.0-1.0-0.0-0.53","582","","j","","","","","","","","","","","","","key","j","11.111870967741725","720","446","j","true","img/S_ambi40.png","三角","word_first",""
"","","","","","html-keyboard-response","266","620401","0.0-13.0-1.0-1.0-0.0-1.53","null","<span style='color:GreenYellow; font-size: 70px;'>正确! </span>","null","","","","","","","","","","","","","","","","","","","","","","","feedback_test"
"","","","","","psychophysics","267","621981","0.0-13.0-1.0-1.0-0.0-0.54","429","","f","","","","","","","","","","","","","key","f","11.1132553191484","720","446","f","true","img/S_ambi40.png","方形","word_first",""
"","","","","","html-keyboard-response","268","622291","0.0-13.0-1.0-1.0-0.0-1.54","null","<span style='color:GreenYellow; font-size: 70px;'>正确! </span>","null","","","","","","","","","","","","","","","","","","","","","","","feedback_test"
"","","","","","psychophysics","269","623978","0.0-13.0-1.0-1.0-0.0-0.55","532","","f","","","","","","","","","","","","","key","f","11.112629139072737","720","446","f","true","img/T_ambi40.png","三角","word_first",""
"","","","","","html-keyboard-response","270","624291","0.0-13.0-1.0-1.0-0.0-1.55","null","<span style='color:GreenYellow; font-size: 70px;'>正确! </span>","null","","","","","","","","","","","","","","","","","","","","","","","feedback_test"
"","","","","","psychophysics","271","625869","0.0-13.0-1.0-1.0-0.0-0.56","420","","j","","","","","","","","","","","","","key","j","11.112773049645066","720","446","j","true","img/T_ambi40.png","圆形","word_first",""
"","","","","","html-keyboard-response","272","626182","0.0-13.0-1.0-1.0-0.0-1.56","null","<span style='color:GreenYellow; font-size: 70px;'>正确! </span>","null","","","","","","","","","","","","","","","","","","","","","","","feedback_test"
"","","","","","psychophysics","273","627725","0.0-13.0-1.0-1.0-0.0-0.57","390","","f","","","","","","","","","","","","","key","f","11.111153284671554","720","446","f","true","img/C_ambi40.png","圆形","word_first",""
"","","","","","html-keyboard-response","274","628040","0.0-13.0-1.0-1.0-0.0-1.57","null","<span style='color:GreenYellow; font-size: 70px;'>正确! </span>","null","","","","","","","","","","","","","","","","","","","","","","","feedback_test"
"","","","","","psychophysics","275","629510","0.0-13.0-1.0-1.0-0.0-0.58","318","","f","","","","","","","","","","","","","key","f","11.109541984732648","720","446","f","true","img/C_ambi40.png","圆形","word_first",""
"","","","","","html-keyboard-response","276","629824","0.0-13.0-1.0-1.0-0.0-1.58","null","<span style='color:GreenYellow; font-size: 70px;'>正确! </span>","null","","","","","","","","","","","","","","","","","","","","","","","feedback_test"
"","","","","","psychophysics","277","631362","0.0-13.0-1.0-1.0-0.0-0.59","379","","j","","","","","","","","","","","","","key","j","11.113507246377582","720","446","j","true","img/C_ambi40.png","三角","word_first",""
"","","","","","html-keyboard-response","278","631677","0.0-13.0-1.0-1.0-0.0-1.59","null","<span style='color:GreenYellow; font-size: 70px;'>正确! </span>","null","","","","","","","","","","","","","","","","","","","","","","","feedback_test"
"","","","","","html-keyboard-response","279","637411","0.0-13.0-1.0-1.0-1.0","5732","<style>.context{color:white; font-size: 35px; line-height:40px}</style>                            <div><p class='context'>您正确回答了95% 的试次。</p><p class='context'>您的平均反应时为477毫秒。</p><p class='context'>请按任意键进入休息</p></div>"," ","","","","","","","","","","","","","","","","","","","","","","",""
"","","","","","html-button-response","280","699104","0.0-13.0-1.0-1.0-2.0","61691","
                    <p>您当前还剩余3组实验</p>
                    <p>现在是休息时间，当您结束休息后，您可以点击 结束休息 按钮 继续</p>
                    <p>建议休息时间还剩余<span id=""iii"">60</span>秒</p>","0","","","","","","","","","","","","","","","","","","","","","","",""
"","","","","","psychophysics","281","700759","0.0-13.0-1.0-1.0-0.1-0.60","501","","j","","","","","","","","","","","","","key","j","11.1103265306122","720","446","j","true","img/T_ambi40.png","圆形","word_first",""
"","","","","","html-keyboard-response","282","701068","0.0-13.0-1.0-1.0-0.1-1.60","null","<span style='color:GreenYellow; font-size: 70px;'>正确! </span>","null","","","","","","","","","","","","","","","","","","","","","","","feedback_test"
"","","","","","psychophysics","283","702610","0.0-13.0-1.0-1.0-0.1-0.61","391","","f","","","","","","","","","","","","","key","f","11.111775362319179","720","446","f","true","img/T_ambi40.png","三角","word_first",""
"","","","","","html-keyboard-response","284","702914","0.0-13.0-1.0-1.0-0.1-1.61","null","<span style='color:GreenYellow; font-size: 70px;'>正确! </span>","null","","","","","","","","","","","","","","","","","","","","","","","feedback_test"
"","","","","","psychophysics","285","704524","0.0-13.0-1.0-1.0-0.1-0.62","456","","j","","","","","","","","","","","","","key","j","11.11145454545512","720","446","j","true","img/S_ambi40.png","三角","word_first",""
"","","","","","html-keyboard-response","286","704837","0.0-13.0-1.0-1.0-0.1-1.62","null","<span style='color:GreenYellow; font-size: 70px;'>正确! </span>","null","","","","","","","","","","","","","","","","","","","","","","","feedback_test"
"","","","","","psychophysics","287","706490","0.0-13.0-1.0-1.0-0.1-0.63","501","","j","","","","","","","","","","","","","key","j","11.10961224489725","720","446","j","true","img/S_ambi40.png","圆形","word_first",""
"","","","","","html-keyboard-response","288","706791","0.0-13.0-1.0-1.0-0.1-1.63","null","<span style='color:GreenYellow; font-size: 70px;'>正确! </span>","null","","","","","","","","","","","","","","","","","","","","","","","feedback_test"
"","","","","","psychophysics","289","708385","0.0-13.0-1.0-1.0-0.1-0.64","439","","f","","","","","","","","","","","","","key","f","11.111594405594294","720","446","f","true","img/S_ambi40.png","方形","word_first",""
"","","","","","html-keyboard-response","290","708695","0.0-13.0-1.0-1.0-0.1-1.64","null","<span style='color:GreenYellow; font-size: 70px;'>正确! </span>","null","","","","","","","","","","","","","","","","","","","","","","","feedback_test"
"","","","","","psychophysics","291","710376","0.0-13.0-1.0-1.0-0.1-0.65","527","","f","","","","","","","","","","","","","key","f","11.1125","720","446","f","true","img/C_ambi40.png","圆形","word_first",""
"","","","","","html-keyboard-response","292","710689","0.0-13.0-1.0-1.0-0.1-1.65","null","<span style='color:GreenYellow; font-size: 70px;'>正确! </span>","null","","","","","","","","","","","","","","","","","","","","","","","feedback_test"
"","","","","","psychophysics","293","712306","0.0-13.0-1.0-1.0-0.1-0.66","466","","j","","","","","","","","","","","","","key","j","11.110724137931388","720","446","j","true","img/T_ambi40.png","方形","word_first",""
"","","","","","html-keyboard-response","294","712621","0.0-13.0-1.0-1.0-0.1-1.66","null","<span style='color:GreenYellow; font-size: 70px;'>正确! </span>","null","","","","","","","","","","","","","","","","","","","","","","","feedback_test"
"","","","","","psychophysics","295","714135","0.0-13.0-1.0-1.0-0.1-0.67","364","","f","","","","","","","","","","","","","key","f","11.11128888888871","720","446","f","true","img/T_ambi40.png","三角","word_first",""
"","","","","","html-keyboard-response","296","714445","0.0-13.0-1.0-1.0-0.1-1.67","null","<span style='color:GreenYellow; font-size: 70px;'>正确! </span>","null","","","","","","","","","","","","","","","","","","","","","","","feedback_test"
"","","","","","psychophysics","297","716055","0.0-13.0-1.0-1.0-0.1-0.68","459","","f","","","","","","","","","","","","","key","f","11.112736111111493","720","446","f","true","img/S_ambi40.png","方形","word_first",""
"","","","","","html-keyboard-response","298","716365","0.0-13.0-1.0-1.0-0.1-1.68","null","<span style='color:GreenYellow; font-size: 70px;'>正确! </span>","null","","","","","","","","","","","","","","","","","","","","","","","feedback_test"
"","","","","","psychophysics","299","717871","0.0-13.0-1.0-1.0-0.1-0.69","355","","f","","","","","","","","","","","","","key","f","11.111574626865679","720","446","f","true","img/C_ambi40.png","圆形","word_first",""
"","","","","","html-keyboard-response","300","718177","0.0-13.0-1.0-1.0-0.1-1.69","null","<span style='color:GreenYellow; font-size: 70px;'>正确! </span>","null","","","","","","","","","","","","","","","","","","","","","","","feedback_test"
"","","","","","psychophysics","301","719780","0.0-13.0-1.0-1.0-0.1-0.70","452","","j","","","","","","","","","","","","","key","j","11.112342657343081","720","446","j","true","img/C_ambi40.png","三角","word_first",""
"","","","","","html-keyboard-response","302","720095","0.0-13.0-1.0-1.0-0.1-1.70","null","<span style='color:GreenYellow; font-size: 70px;'>正确! </span>","null","","","","","","","","","","","","","","","","","","","","","","","feedback_test"
"","","","","","psychophysics","303","721780","0.0-13.0-1.0-1.0-0.1-0.71","534","","j","","","","","","","","","","","","","key","j","11.111486666666654","720","446","j","true","img/C_ambi40.png","方形","word_first",""
"","","","","","html-keyboard-response","304","722093","0.0-13.0-1.0-1.0-0.1-1.71","null","<span style='color:GreenYellow; font-size: 70px;'>正确! </span>","null","","","","","","","","","","","","","","","","","","","","","","","feedback_test"
"","","","","","psychophysics","305","723751","0.0-13.0-1.0-1.0-0.1-0.72","506","","j","","","","","","","","","","","","","key","j","11.110871621622307","720","446","j","true","img/C_ambi40.png","方形","word_first",""
"","","","","","html-keyboard-response","306","724066","0.0-13.0-1.0-1.0-0.1-1.72","null","<span style='color:GreenYellow; font-size: 70px;'>正确! </span>","null","","","","","","","","","","","","","","","","","","","","","","","feedback_test"
"","","","","","psychophysics","307","725677","0.0-13.0-1.0-1.0-0.1-0.73","460","","j","","","","","","","","","","","","","key","j","11.110743055555051","720","446","j","true","img/S_ambi40.png","三角","word_first",""
"","","","","","html-keyboard-response","308","725985","0.0-13.0-1.0-1.0-0.1-1.73","null","<span style='color:GreenYellow; font-size: 70px;'>正确! </span>","null","","","","","","","","","","","","","","","","","","","","","","","feedback_test"
"","","","","","psychophysics","309","727687","0.0-13.0-1.0-1.0-0.1-0.74","551","","j","","","","","","","","","","","","","key","j","11.110401315789204","720","446","j","true","img/T_ambi40.png","方形","word_first",""
"","","","","","html-keyboard-response","310","727992","0.0-13.0-1.0-1.0-0.1-1.74","null","<span style='color:GreenYellow; font-size: 70px;'>正确! </span>","null","","","","","","","","","","","","","","","","","","","","","","","feedback_test"
"","","","","","psychophysics","311","729602","0.0-13.0-1.0-1.0-0.1-0.75","455","","j","","","","","","","","","","","","","key","j","11.091902097902047","720","446","j","true","img/S_ambi40.png","圆形","word_first",""
"","","","","","html-keyboard-response","312","729918","0.0-13.0-1.0-1.0-0.1-1.75","null","<span style='color:GreenYellow; font-size: 70px;'>正确! </span>","null","","","","","","","","","","","","","","","","","","","","","","","feedback_test"
"","","","","","psychophysics","313","731487","0.0-13.0-1.0-1.0-0.1-0.76","417","","f","","","","","","","","","","","","","key","f","11.111014285714399","720","446","f","true","img/C_ambi40.png","圆形","word_first",""
"","","","","","html-keyboard-response","314","731799","0.0-13.0-1.0-1.0-0.1-1.76","null","<span style='color:GreenYellow; font-size: 70px;'>正确! </span>","null","","","","","","","","","","","","","","","","","","","","","","","feedback_test"
"","","","","","psychophysics","315","733353","0.0-13.0-1.0-1.0-0.1-0.77","403","","f","","","","","","","","","","","","","key","f","11.112683453237832","720","446","f","true","img/T_ambi40.png","三角","word_first",""
"","","","","","html-keyboard-response","316","733668","0.0-13.0-1.0-1.0-0.1-1.77","null","<span style='color:GreenYellow; font-size: 70px;'>正确! </span>","null","","","","","","","","","","","","","","","","","","","","","","","feedback_test"
"","","","","","psychophysics","317","735373","0.0-13.0-1.0-1.0-0.1-0.78","553","","j","","","","","","","","","","","","","key","j","11.112856209150278","720","446","j","true","img/T_ambi40.png","圆形","word_first",""
"","","","","","html-keyboard-response","318","735687","0.0-13.0-1.0-1.0-0.1-1.78","null","<span style='color:GreenYellow; font-size: 70px;'>正确! </span>","null","","","","","","","","","","","","","","","","","","","","","","","feedback_test"
"","","","","","psychophysics","319","737208","0.0-13.0-1.0-1.0-0.1-0.79","370","","f","","","","","","","","","","","","","key","f","11.111338235294063","720","446","f","true","img/S_ambi40.png","方形","word_first",""
"","","","","","html-keyboard-response","320","737519","0.0-13.0-1.0-1.0-0.1-1.79","null","<span style='color:GreenYellow; font-size: 70px;'>正确! </span>","null","","","","","","","","","","","","","","","","","","","","","","","feedback_test"
"","","","","","psychophysics","321","739128","0.0-13.0-1.0-1.0-0.1-0.80","458","","f","","","","","","","","","","","","","key","f","11.110618055555582","720","446","f","true","img/S_ambi40.png","方形","word_first",""
"","","","","","html-keyboard-response","322","739432","0.0-13.0-1.0-1.0-0.1-1.80","null","<span style='color:GreenYellow; font-size: 70px;'>正确! </span>","null","","","","","","","","","","","","","","","","","","","","","","","feedback_test"
"","","","","","psychophysics","323","741154","0.0-13.0-1.0-1.0-0.1-0.81","571","","f","","","","","","","","","","","","","key","f","11.111032467532008","720","446","f","true","img/T_ambi40.png","三角","word_first",""
"","","","","","html-keyboard-response","324","741457","0.0-13.0-1.0-1.0-0.1-1.81","null","<span style='color:GreenYellow; font-size: 70px;'>正确! </span>","null","","","","","","","","","","","","","","","","","","","","","","","feedback_test"
"","","","","","psychophysics","325","743058","0.0-13.0-1.0-1.0-0.1-0.82","450","","j","","","","","","","","","","","","","key","j","11.111559440559297","720","446","j","true","img/C_ambi40.png","三角","word_first",""
"","","","","","html-keyboard-response","326","743368","0.0-13.0-1.0-1.0-0.1-1.82","null","<span style='color:GreenYellow; font-size: 70px;'>正确! </span>","null","","","","","","","","","","","","","","","","","","","","","","","feedback_test"
"","","","","","psychophysics","327","745055","0.0-13.0-1.0-1.0-0.1-0.83","536","","f","","","","","","","","","","","","","key","f","11.186766666665983","720","446","f","true","img/C_ambi40.png","圆形","word_first",""
"","","","","","html-keyboard-response","328","745356","0.0-13.0-1.0-1.0-0.1-1.83","null","<span style='color:GreenYellow; font-size: 70px;'>正确! </span>","null","","","","","","","","","","","","","","","","","","","","","","","feedback_test"
"","","","","","psychophysics","329","746955","0.0-13.0-1.0-1.0-0.1-0.84","446","","j","","","","","","","","","","","","","key","j","11.112314685314594","720","446","j","true","img/S_ambi40.png","圆形","word_first",""
"","","","","","html-keyboard-response","330","747263","0.0-13.0-1.0-1.0-0.1-1.84","null","<span style='color:GreenYellow; font-size: 70px;'>正确! </span>","null","","","","","","","","","","","","","","","","","","","","","","","feedback_test"
"","","","","","psychophysics","331","748753","0.0-13.0-1.0-1.0-0.1-0.85","338","","f","","","","","","","","","","","","","key","f","11.111759398495813","720","446","f","true","img/C_ambi40.png","圆形","word_first",""
"","","","","","html-keyboard-response","332","749063","0.0-13.0-1.0-1.0-0.1-1.85","null","<span style='color:GreenYellow; font-size: 70px;'>正确! </span>","null","","","","","","","","","","","","","","","","","","","","","","","feedback_test"
"","","","","","psychophysics","333","750635","0.0-13.0-1.0-1.0-0.1-0.86","420","","f","","","","","","","","","","","","","key","f","11.110757142857516","720","446","f","true","img/T_ambi40.png","三角","word_first",""
"","","","","","html-keyboard-response","334","750936","0.0-13.0-1.0-1.0-0.1-1.86","null","<span style='color:GreenYellow; font-size: 70px;'>正确! </span>","null","","","","","","","","","","","","","","","","","","","","","","","feedback_test"
"","","","","","psychophysics","335","752435","0.0-13.0-1.0-1.0-0.1-0.87","344","","f","","","","","","","","","","","","","key","f","11.084255639097787","720","446","f","true","img/T_ambi40.png","三角","word_first",""
"","","","","","html-keyboard-response","336","752750","0.0-13.0-1.0-1.0-0.1-1.87","null","<span style='color:GreenYellow; font-size: 70px;'>正确! </span>","null","","","","","","","","","","","","","","","","","","","","","","","feedback_test"
"","","","","","psychophysics","337","754167","0.0-13.0-1.0-1.0-0.1-0.88","266","","f","","","","","","","","","","","","","key","f","11.110738095237933","720","446","j","false","img/C_ambi40.png","三角","word_first",""
"","","","","","html-keyboard-response","338","754483","0.0-13.0-1.0-1.0-0.1-1.88","null","<span style='color:red; font-size: 70px;'>错误! </span>","null","","","","","","","","","","","","","","","","","","","","","","","feedback_test"
"","","","","","psychophysics","339","756132","0.0-13.0-1.0-1.0-0.1-0.89","498","","f","","","","","","","","","","","","","key","f","11.111959183674154","720","446","f","true","img/S_ambi40.png","方形","word_first",""
"","","","","","html-keyboard-response","340","756436","0.0-13.0-1.0-1.0-0.1-1.89","null","<span style='color:GreenYellow; font-size: 70px;'>正确! </span>","null","","","","","","","","","","","","","","","","","","","","","","","feedback_test"
"","","","","","psychophysics","341","757952","0.0-13.0-1.0-1.0-0.1-0.90","359","","f","","","","","","","","","","","","","key","f","11.086311111111124","720","446","f","true","img/C_ambi40.png","圆形","word_first",""
"","","","","","html-keyboard-response","342","758264","0.0-13.0-1.0-1.0-0.1-1.90","null","<span style='color:GreenYellow; font-size: 70px;'>正确! </span>","null","","","","","","","","","","","","","","","","","","","","","","","feedback_test"
"","","","","","psychophysics","343","759885","0.0-13.0-1.0-1.0-0.1-0.91","470","","j","","","","","","","","","","","","","key","j","11.11012413793099","720","446","j","true","img/S_ambi40.png","三角","word_first",""
"","","","","","html-keyboard-response","344","760202","0.0-13.0-1.0-1.0-0.1-1.91","null","<span style='color:GreenYellow; font-size: 70px;'>正确! </span>","null","","","","","","","","","","","","","","","","","","","","","","","feedback_test"
"","","","","","psychophysics","345","761822","0.0-13.0-1.0-1.0-0.1-0.92","462","","j","","","","","","","","","","","","","key","j","11.111213793102973","720","446","j","true","img/T_ambi40.png","圆形","word_first",""
"","","","","","html-keyboard-response","346","762131","0.0-13.0-1.0-1.0-0.1-1.92","null","<span style='color:GreenYellow; font-size: 70px;'>正确! </span>","null","","","","","","","","","","","","","","","","","","","","","","","feedback_test"
"","","","","","psychophysics","347","763754","0.0-13.0-1.0-1.0-0.1-0.93","472","","f","","","","","","","","","","","","","key","f","11.109986206896378","720","446","f","true","img/S_ambi40.png","方形","word_first",""
"","","","","","html-keyboard-response","348","764063","0.0-13.0-1.0-1.0-0.1-1.93","null","<span style='color:GreenYellow; font-size: 70px;'>正确! </span>","null","","","","","","","","","","","","","","","","","","","","","","","feedback_test"
"","","","","","psychophysics","349","765829","0.0-13.0-1.0-1.0-0.1-0.94","615","","j","","","","","","","","","","","","","key","j","11.11037974683509","720","446","j","true","img/T_ambi40.png","方形","word_first",""
"","","","","","html-keyboard-response","350","766146","0.0-13.0-1.0-1.0-0.1-1.94","null","<span style='color:GreenYellow; font-size: 70px;'>正确! </span>","null","","","","","","","","","","","","","","","","","","","","","","","feedback_test"
"","","","","","psychophysics","351","767811","0.0-13.0-1.0-1.0-0.1-0.95","507","","j","","","","","","","","","","","","","key","j","11.111711409396099","720","446","j","true","img/C_ambi40.png","方形","word_first",""
"","","","","","html-keyboard-response","352","768114","0.0-13.0-1.0-1.0-0.1-1.95","null","<span style='color:GreenYellow; font-size: 70px;'>正确! </span>","null","","","","","","","","","","","","","","","","","","","","","","","feedback_test"
"","","","","","psychophysics","353","769741","0.0-13.0-1.0-1.0-0.1-0.96","475","","j","","","","","","","","","","","","","key","j","11.110834482758595","720","446","j","true","img/S_ambi40.png","三角","word_first",""
"","","","","","html-keyboard-response","354","770054","0.0-13.0-1.0-1.0-0.1-1.96","null","<span style='color:GreenYellow; font-size: 70px;'>正确! </span>","null","","","","","","","","","","","","","","","","","","","","","","","feedback_test"
"","","","","","psychophysics","355","771570","0.0-13.0-1.0-1.0-0.1-0.97","365","","f","","","","","","","","","","","","","key","f","11.112703703703461","720","446","f","true","img/T_ambi40.png","三角","word_first",""
"","","","","","html-keyboard-response","356","771885","0.0-13.0-1.0-1.0-0.1-1.97","null","<span style='color:GreenYellow; font-size: 70px;'>正确! </span>","null","","","","","","","","","","","","","","","","","","","","","","","feedback_test"
"","","","","","psychophysics","357","773406","0.0-13.0-1.0-1.0-0.1-0.98","370","","f","","","","","","","","","","","","","key","f","11.109889705881976","720","446","f","true","img/T_ambi40.png","三角","word_first",""
"","","","","","html-keyboard-response","358","773717","0.0-13.0-1.0-1.0-0.1-1.98","null","<span style='color:GreenYellow; font-size: 70px;'>正确! </span>","null","","","","","","","","","","","","","","","","","","","","","","","feedback_test"
"","","","","","psychophysics","359","775217","0.0-13.0-1.0-1.0-0.1-0.99","349","","j","","","","","","","","","","","","","key","j","11.11052238805925","720","446","f","false","img/S_ambi40.png","方形","word_first",""
"","","","","","html-keyboard-response","360","775528","0.0-13.0-1.0-1.0-0.1-1.99","null","<span style='color:red; font-size: 70px;'>错误! </span>","null","","","","","","","","","","","","","","","","","","","","","","","feedback_test"
"","","","","","psychophysics","361","777243","0.0-13.0-1.0-1.0-0.1-0.100","564","","j","","","","","","","","","","","","","key","j","11.109928104575278","720","446","j","true","img/T_ambi40.png","圆形","word_first",""
"","","","","","html-keyboard-response","362","777555","0.0-13.0-1.0-1.0-0.1-1.100","null","<span style='color:GreenYellow; font-size: 70px;'>正确! </span>","null","","","","","","","","","","","","","","","","","","","","","","","feedback_test"
"","","","","","psychophysics","363","779153","0.0-13.0-1.0-1.0-0.1-0.101","445","","j","","","","","","","","","","","","","key","j","11.111097902097818","720","446","j","true","img/S_ambi40.png","圆形","word_first",""
"","","","","","html-keyboard-response","364","779466","0.0-13.0-1.0-1.0-0.1-1.101","null","<span style='color:GreenYellow; font-size: 70px;'>正确! </span>","null","","","","","","","","","","","","","","","","","","","","","","","feedback_test"
"","","","","","psychophysics","365","781094","0.0-13.0-1.0-1.0-0.1-0.102","477","","j","","","","","","","","","","","","","key","j","11.110924657533896","720","446","j","true","img/C_ambi40.png","三角","word_first",""
"","","","","","html-keyboard-response","366","781401","0.0-13.0-1.0-1.0-0.1-1.102","null","<span style='color:GreenYellow; font-size: 70px;'>正确! </span>","null","","","","","","","","","","","","","","","","","","","","","","","feedback_test"
"","","","","","psychophysics","367","782995","0.0-13.0-1.0-1.0-0.1-0.103","442","","j","","","","","","","","","","","","","key","j","11.112832167832233","720","446","j","true","img/C_ambi40.png","方形","word_first",""
"","","","","","html-keyboard-response","368","783306","0.0-13.0-1.0-1.0-0.1-1.103","null","<span style='color:GreenYellow; font-size: 70px;'>正确! </span>","null","","","","","","","","","","","","","","","","","","","","","","","feedback_test"
"","","","","","psychophysics","369","784899","0.0-13.0-1.0-1.0-0.1-0.104","442","","j","","","","","","","","","","","","","key","j","11.111126760563577","720","446","j","true","img/T_ambi40.png","方形","word_first",""
"","","","","","html-keyboard-response","370","785207","0.0-13.0-1.0-1.0-0.1-1.104","null","<span style='color:GreenYellow; font-size: 70px;'>正确! </span>","null","","","","","","","","","","","","","","","","","","","","","","","feedback_test"
"","","","","","psychophysics","371","786710","0.0-13.0-1.0-1.0-0.1-0.105","351","","f","","","","","","","","","","","","","key","f","11.11059701492586","720","446","f","true","img/C_ambi40.png","圆形","word_first",""
"","","","","","html-keyboard-response","372","787017","0.0-13.0-1.0-1.0-0.1-1.105","null","<span style='color:GreenYellow; font-size: 70px;'>正确! </span>","null","","","","","","","","","","","","","","","","","","","","","","","feedback_test"
"","","","","","psychophysics","373","788616","0.0-13.0-1.0-1.0-0.1-0.106","448","","f","","","","","","","","","","","","","key","f","11.110951048951316","720","446","f","true","img/S_ambi40.png","方形","word_first",""
"","","","","","html-keyboard-response","374","788926","0.0-13.0-1.0-1.0-0.1-1.106","null","<span style='color:GreenYellow; font-size: 70px;'>正确! </span>","null","","","","","","","","","","","","","","","","","","","","","","","feedback_test"
"","","","","","psychophysics","375","790472","0.0-13.0-1.0-1.0-0.1-0.107","395","","f","","","","","","","","","","","","","key","f","11.112442028985454","720","446","f","true","img/C_ambi40.png","圆形","word_first",""
"","","","","","html-keyboard-response","376","790776","0.0-13.0-1.0-1.0-0.1-1.107","null","<span style='color:GreenYellow; font-size: 70px;'>正确! </span>","null","","","","","","","","","","","","","","","","","","","","","","","feedback_test"
"","","","","","psychophysics","377","792357","0.0-13.0-1.0-1.0-0.1-0.108","428","","f","","","","","","","","","","","","","key","f","11.11168085106447","720","446","f","true","img/S_ambi40.png","方形","word_first",""
"","","","","","html-keyboard-response","378","792666","0.0-13.0-1.0-1.0-0.1-1.108","null","<span style='color:GreenYellow; font-size: 70px;'>正确! </span>","null","","","","","","","","","","","","","","","","","","","","","","","feedback_test"
"","","","","","psychophysics","379","794308","0.0-13.0-1.0-1.0-0.1-0.109","489","","j","","","","","","","","","","","","","key","j","11.110877551020401","720","446","j","true","img/T_ambi40.png","圆形","word_first",""
"","","","","","html-keyboard-response","380","794624","0.0-13.0-1.0-1.0-0.1-1.109","null","<span style='color:GreenYellow; font-size: 70px;'>正确! </span>","null","","","","","","","","","","","","","","","","","","","","","","","feedback_test"
"","","","","","psychophysics","381","796135","0.0-13.0-1.0-1.0-0.1-0.110","352","","f","","","","","","","","","","","","","key","f","11.11162962962925","720","446","f","true","img/T_ambi40.png","三角","word_first",""
"","","","","","html-keyboard-response","382","796441","0.0-13.0-1.0-1.0-0.1-1.110","null","<span style='color:GreenYellow; font-size: 70px;'>正确! </span>","null","","","","","","","","","","","","","","","","","","","","","","","feedback_test"
"","","","","","psychophysics","383","797948","0.0-13.0-1.0-1.0-0.1-0.111","355","","f","","","","","","","","","","","","","key","f","11.111380597015273","720","446","f","true","img/C_ambi40.png","圆形","word_first",""
"","","","","","html-keyboard-response","384","798258","0.0-13.0-1.0-1.0-0.1-1.111","null","<span style='color:GreenYellow; font-size: 70px;'>正确! </span>","null","","","","","","","","","","","","","","","","","","","","","","","feedback_test"
"","","","","","psychophysics","385","799881","0.0-13.0-1.0-1.0-0.1-0.112","467","","j","","","","","","","","","","","","","key","j","11.085631944444483","720","446","j","true","img/C_ambi40.png","三角","word_first",""
"","","","","","html-keyboard-response","386","800194","0.0-13.0-1.0-1.0-0.1-1.112","null","<span style='color:GreenYellow; font-size: 70px;'>正确! </span>","null","","","","","","","","","","","","","","","","","","","","","","","feedback_test"
"","","","","","psychophysics","387","801776","0.0-13.0-1.0-1.0-0.1-0.113","430","","f","","","","","","","","","","","","","key","f","11.111070921986384","720","446","f","true","img/S_ambi40.png","方形","word_first",""
"","","","","","html-keyboard-response","388","802085","0.0-13.0-1.0-1.0-0.1-1.113","null","<span style='color:GreenYellow; font-size: 70px;'>正确! </span>","null","","","","","","","","","","","","","","","","","","","","","","","feedback_test"
"","","","","","psychophysics","389","803731","0.0-13.0-1.0-1.0-0.1-0.114","494","","j","","","","","","","","","","","","","key","j","11.109884353741041","720","446","j","true","img/S_ambi40.png","三角","word_first",""
"","","","","","html-keyboard-response","390","804037","0.0-13.0-1.0-1.0-0.1-1.114","null","<span style='color:GreenYellow; font-size: 70px;'>正确! </span>","null","","","","","","","","","","","","","","","","","","","","","","","feedback_test"
"","","","","","psychophysics","391","805823","0.0-13.0-1.0-1.0-0.1-0.115","635","","j","","","","","","","","","","","","","key","j","11.110761006288786","720","446","j","true","img/C_ambi40.png","方形","word_first",""
"","","","","","html-keyboard-response","392","806134","0.0-13.0-1.0-1.0-0.1-1.115","null","<span style='color:GreenYellow; font-size: 70px;'>正确! </span>","null","","","","","","","","","","","","","","","","","","","","","","","feedback_test"
"","","","","","psychophysics","393","807629","0.0-13.0-1.0-1.0-0.1-0.116","343","","f","","","","","","","","","","","","","key","f","11.111082089552308","720","446","f","true","img/T_ambi40.png","三角","word_first",""
"","","","","","html-keyboard-response","394","807937","0.0-13.0-1.0-1.0-0.1-1.116","null","<span style='color:GreenYellow; font-size: 70px;'>正确! </span>","null","","","","","","","","","","","","","","","","","","","","","","","feedback_test"
"","","","","","psychophysics","395","809539","0.0-13.0-1.0-1.0-0.1-0.117","451","","j","","","","","","","","","","","","","key","j","11.112020979020777","720","446","j","true","img/T_ambi40.png","方形","word_first",""
"","","","","","html-keyboard-response","396","809845","0.0-13.0-1.0-1.0-0.1-1.117","null","<span style='color:GreenYellow; font-size: 70px;'>正确! </span>","null","","","","","","","","","","","","","","","","","","","","","","","feedback_test"
"","","","","","psychophysics","397","811324","0.0-13.0-1.0-1.0-0.1-0.118","328","","f","","","","","","","","","","","","","key","f","11.113030303030621","720","446","f","true","img/C_ambi40.png","圆形","word_first",""
"","","","","","html-keyboard-response","398","811633","0.0-13.0-1.0-1.0-0.1-1.118","null","<span style='color:GreenYellow; font-size: 70px;'>正确! </span>","null","","","","","","","","","","","","","","","","","","","","","","","feedback_test"
"","","","","","psychophysics","399","813286","0.0-13.0-1.0-1.0-0.1-0.119","501","","j","","","","","","","","","","","","","key","j","11.11028378378408","720","446","j","true","img/S_ambi40.png","圆形","word_first",""
"","","","","","html-keyboard-response","400","813601","0.0-13.0-1.0-1.0-0.1-1.119","null","<span style='color:GreenYellow; font-size: 70px;'>正确! </span>","null","","","","","","","","","","","","","","","","","","","","","","","feedback_test"
"","","","","","html-keyboard-response","401","818225","0.0-13.0-1.0-1.0-1.1","4623","<style>.context{color:white; font-size: 35px; line-height:40px}</style>                            <div><p class='context'>您正确回答了97% 的试次。</p><p class='context'>您的平均反应时为451毫秒。</p><p class='context'>请按任意键进入休息</p></div>"," ","","","","","","","","","","","","","","","","","","","","","","",""
"","","","","","html-button-response","402","848765","0.0-13.0-1.0-1.0-2.1","30537","
                    <p>您当前还剩余2组实验</p>
                    <p>现在是休息时间，当您结束休息后，您可以点击 结束休息 按钮 继续</p>
                    <p>建议休息时间还剩余<span id=""iii"">60</span>秒</p>","0","","","","","","","","","","","","","","","","","","","","","","",""
"","","","","","psychophysics","403","850370","0.0-13.0-1.0-1.0-0.2-0.120","454","","f","","","","","","","","","","","","","key","f","11.11140559440547","720","446","f","true","img/C_ambi40.png","圆形","word_first",""
"","","","","","html-keyboard-response","404","850680","0.0-13.0-1.0-1.0-0.2-1.120","null","<span style='color:GreenYellow; font-size: 70px;'>正确! </span>","null","","","","","","","","","","","","","","","","","","","","","","","feedback_test"
"","","","","","psychophysics","405","852297","0.0-13.0-1.0-1.0-0.2-0.121","464","","f","","","","","","","","","","","","","key","f","11.085333333333741","720","446","f","true","img/S_ambi40.png","方形","word_first",""
"","","","","","html-keyboard-response","406","852603","0.0-13.0-1.0-1.0-0.2-1.121","null","<span style='color:GreenYellow; font-size: 70px;'>正确! </span>","null","","","","","","","","","","","","","","","","","","","","","","","feedback_test"
"","","","","","psychophysics","407","854122","0.0-13.0-1.0-1.0-0.2-0.122","362","","f","","","","","","","","","","","","","key","f","11.088555555556107","720","446","f","true","img/T_ambi40.png","三角","word_first",""
"","","","","","html-keyboard-response","408","854433","0.0-13.0-1.0-1.0-0.2-1.122","null","<span style='color:GreenYellow; font-size: 70px;'>正确! </span>","null","","","","","","","","","","","","","","","","","","","","","","","feedback_test"
"","","","","","psychophysics","409","855932","0.0-13.0-1.0-1.0-0.2-0.123","347","","f","","","","","","","","","","","","","key","f","11.112298507463194","720","446","f","true","img/S_ambi40.png","方形","word_first",""
"","","","","","html-keyboard-response","410","856243","0.0-13.0-1.0-1.0-0.2-1.123","null","<span style='color:GreenYellow; font-size: 70px;'>正确! </span>","null","","","","","","","","","","","","","","","","","","","","","","","feedback_test"
"","","","","","psychophysics","411","857852","0.0-13.0-1.0-1.0-0.2-0.124","458","","j","","","","","","","","","","","","","key","j","11.111076388888856","720","446","j","true","img/C_ambi40.png","三角","word_first",""
"","","","","","html-keyboard-response","412","858160","0.0-13.0-1.0-1.0-0.2-1.124","null","<span style='color:GreenYellow; font-size: 70px;'>正确! </span>","null","","","","","","","","","","","","","","","","","","","","","","","feedback_test"
"","","","","","psychophysics","413","859862","0.0-13.0-1.0-1.0-0.2-0.125","551","","j","","","","","","","","","","","","","key","j","11.110355263157736","720","446","j","true","img/C_ambi40.png","方形","word_first",""
"","","","","","html-keyboard-response","414","860170","0.0-13.0-1.0-1.0-0.2-1.125","null","<span style='color:GreenYellow; font-size: 70px;'>正确! </span>","null","","","","","","","","","","","","","","","","","","","","","","","feedback_test"
"","","","","","psychophysics","415","861853","0.0-13.0-1.0-1.0-0.2-0.126","526","","f","","","","","","","","","","","","","key","f","11.111006666667139","720","446","j","false","img/T_ambi40.png","方形","word_first",""
"","","","","","html-keyboard-response","416","862168","0.0-13.0-1.0-1.0-0.2-1.126","null","<span style='color:red; font-size: 70px;'>错误! </span>","null","","","","","","","","","","","","","","","","","","","","","","","feedback_test"
"","","","","","psychophysics","417","864055","0.0-13.0-1.0-1.0-0.2-0.127","735","","f","","","","","","","","","","","","","key","f","11.111603550295367","720","446","f","true","img/C_ambi40.png","圆形","word_first",""
"","","","","","html-keyboard-response","418","864369","0.0-13.0-1.0-1.0-0.2-1.127","null","<span style='color:GreenYellow; font-size: 70px;'>正确! </span>","null","","","","","","","","","","","","","","","","","","","","","","","feedback_test"
"","","","","","psychophysics","419","865945","0.0-13.0-1.0-1.0-0.2-0.128","424","","j","","","","","","","","","","","","","key","j","11.112049645390064","720","446","j","true","img/S_ambi40.png","圆形","word_first",""
"","","","","","html-keyboard-response","420","866246","0.0-13.0-1.0-1.0-0.2-1.128","null","<span style='color:GreenYellow; font-size: 70px;'>正确! </span>","null","","","","","","","","","","","","","","","","","","","","","","","feedback_test"
"","","","","","psychophysics","421","867794","0.0-13.0-1.0-1.0-0.2-0.129","395","","f","","","","","","","","","","","","","key","f","11.112971014493361","720","446","j","false","img/T_ambi40.png","圆形","word_first",""
"","","","","","html-keyboard-response","422","868108","0.0-13.0-1.0-1.0-0.2-1.129","null","<span style='color:red; font-size: 70px;'>错误! </span>","null","","","","","","","","","","","","","","","","","","","","","","","feedback_test"
"","","","","","psychophysics","423","869794","0.0-13.0-1.0-1.0-0.2-0.130","534","","j","","","","","","","","","","","","","key","j","11.110506666666673","720","446","j","true","img/S_ambi40.png","三角","word_first",""
"","","","","","html-keyboard-response","424","870096","0.0-13.0-1.0-1.0-0.2-1.130","null","<span style='color:GreenYellow; font-size: 70px;'>正确! </span>","null","","","","","","","","","","","","","","","","","","","","","","","feedback_test"
"","","","","","psychophysics","425","871676","0.0-13.0-1.0-1.0-0.2-0.131","428","","f","","","","","","","","","","","","","key","f","11.111787234042467","720","446","f","true","img/T_ambi40.png","三角","word_first",""
"","","","","","html-keyboard-response","426","871987","0.0-13.0-1.0-1.0-0.2-1.131","null","<span style='color:GreenYellow; font-size: 70px;'>正确! </span>","null","","","","","","","","","","","","","","","","","","","","","","","feedback_test"
"","","","","","psychophysics","427","873624","0.0-13.0-1.0-1.0-0.2-0.132","486","","j","","","","","","","","","","","","","key","j","11.111061643835393","720","446","j","true","img/T_ambi40.png","圆形","word_first",""
"","","","","","html-keyboard-response","428","873926","0.0-13.0-1.0-1.0-0.2-1.132","null","<span style='color:GreenYellow; font-size: 70px;'>正确! </span>","null","","","","","","","","","","","","","","","","","","","","","","","feedback_test"
"","","","","","psychophysics","429","875695","0.0-13.0-1.0-1.0-0.2-0.133","615","","f","","","","","","","","","","","","","key","f","11.087784810126553","720","446","f","true","img/S_ambi40.png","方形","word_first",""
"","","","","","html-keyboard-response","430","876001","0.0-13.0-1.0-1.0-0.2-1.133","null","<span style='color:GreenYellow; font-size: 70px;'>正确! </span>","null","","","","","","","","","","","","","","","","","","","","","","","feedback_test"
"","","","","","psychophysics","431","877581","0.0-13.0-1.0-1.0-0.2-0.134","428","","f","","","","","","","","","","","","","key","f","11.112758865248056","720","446","f","true","img/C_ambi40.png","圆形","word_first",""
"","","","","","html-keyboard-response","432","877895","0.0-13.0-1.0-1.0-0.2-1.134","null","<span style='color:GreenYellow; font-size: 70px;'>正确! </span>","null","","","","","","","","","","","","","","","","","","","","","","","feedback_test"
