"success","timeout","failed_images","failed_audio","failed_video","trial_type","trial_index","time_elapsed","internal_node_id","rt","stimulus","response","value","item_width_mm","item_height_mm","item_width_px","px2mm","view_dist_mm","item_width_deg","px2deg","scale_factor","win_width_deg","win_height_deg","view_history","response_type","key_press","avg_frame_time","center_x","center_y","correct_response","correct","Image","word","condition","screen_id"
"true","false","[]","[]","[]","preload","0","516","0.0-0.0","","","","","","","","","","","","","","","","","","","","","","","","","",""
"","","","","","html-keyboard-response","1","8743","0.0-1.0","8225","
   <p>您好，欢迎参加本次实验。</p>
   <p>为充分保障您的权利，请确保您已经知晓并同意《参与实验同意书》以及《数据公开知情同意书》。</p>
   <p>如果您未见过上述内容，请咨询实验员。</p>
   <p>如果您选择继续实验，则表示您已经清楚两份知情同意书的内容并同意。</p>
   <p> <div style = ""color: green""><按任意键至下页></div> </p>
   "," ","","","","","","","","","","","","","","","","","","","","","","",""
"","","","","","html-keyboard-response","2","11169","0.0-2.0","2425","
   <p>本实验首先需要您填写一些基本个人信息。</p>
   <p> <div style = ""color: green""><按任意键至下页></div></p>
   "," ","","","","","","","","","","","","","","","","","","","","","","",""
"","","","","","call-function","3","11171","0.0-3.0-0.0","","","","","","","","","","","","","","","","","","","","","","","","","",""
"","","","","","survey-html-form","4","15381","0.0-3.0-1.0","4206","","{""Q0"":""11""}","","","","","","","","","","","","","","","","","","","","","","",""
"","","","","","html-button-response","5","16781","0.0-3.0-2.0","1397","<p style = 'color : white'>您的性别</p>","0","","","","","","","","","","","","","","","","","","","","","","",""
"","","","","","survey-html-form","6","21292","0.0-3.0-3.0","4509","","{""Q0"":""1999""}","","","","","","","","","","","","","","","","","","","","","","",""
"","","","","","survey-html-form","7","25272","0.0-3.0-4.0","3978","","{""Q0"":""5""}","","","","","","","","","","","","","","","","","","","","","","",""
"","","","","","virtual-chinrest","8","156999","0.0-4.0","131723","","","","85.6","53.98","462.4444007050871","5.399490488679508","529.13","9.248888014101741","50","0.774147117911167","25.6","12.18","","","","","","","","","","","",""
"true","","","","","fullscreen","9","163793","0.0-5.0","","","","","","","","","","","","","","","","","","","","","","","","","",""
"","","","","","instructions","10","264616","0.0-6.0","100822","","","","","","","","","","","","","","[{""page_index"":0,""viewing_time"":21373},{""page_index"":1,""viewing_time"":52795},{""page_index"":2,""viewing_time"":23973},{""page_index"":3,""viewing_time"":2679}]","","","","","","","","","","",""
"","","","","","psychophysics","11","267296","0.0-7.0-0.0-0.0","null","","null","","","","","","","","","","","","","key","null","17.314758169934613","640","356","j","false","img/T_ambi40.png","三角","prac_image_first",""
"","","","","","html-keyboard-response","12","267606","0.0-7.0-0.0-1.0","null","<span class='add_' style='color:yellow; font-size: 70px;'> 太慢! </span>","null","","","","","","","","","","","","","","","","","","","","","","","feedback_test"
"","","","","","psychophysics","13","270274","0.0-7.0-0.0-0.1","null","","null","","","","","","","","","","","","","key","null","17.31247712418306","640","356","f","false","img/T_ambi40.png","圆形","prac_image_first",""
"","","","","","html-keyboard-response","14","270593","0.0-7.0-0.0-1.1","null","<span class='add_' style='color:yellow; font-size: 70px;'> 太慢! </span>","null","","","","","","","","","","","","","","","","","","","","","","","feedback_test"
"","","","","","psychophysics","15","272486","0.0-7.0-0.0-0.2","738","","f","","","","","","","","","","","","","key","f","16.81040178571441","640","356","f","true","img/S_ambi40.png","圆形","prac_image_first",""
"","","","","","html-keyboard-response","16","272796","0.0-7.0-0.0-1.2","null","<span style='color:GreenYellow; font-size: 70px;'>正确! </span>","null","","","","","","","","","","","","","","","","","","","","","","","feedback_test"
"","","","","","psychophysics","17","274659","0.0-7.0-0.0-0.3","695","","f","","","","","","","","","","","","","key","f","16.97145370370385","640","356","j","false","img/S_ambi40.png","方形","prac_image_first",""
"","","","","","html-keyboard-response","18","274971","0.0-7.0-0.0-1.3","null","<span style='color:red; font-size: 70px;'>错误! </span>","null","","","","","","","","","","","","","","","","","","","","","","","feedback_test"
"","","","","","psychophysics","19","276841","0.0-7.0-0.0-0.4","701","","f","","","","","","","","","","","","","key","f","16.799972477064088","640","356","j","false","img/S_ambi40.png","方形","prac_image_first",""
"","","","","","html-keyboard-response","20","277157","0.0-7.0-0.0-1.4","null","<span style='color:red; font-size: 70px;'>错误! </span>","null","","","","","","","","","","","","","","","","","","","","","","","feedback_test"
"","","","","","psychophysics","21","278962","0.0-7.0-0.0-0.5","642","","j","","","","","","","","","","","","","key","j","16.979490384615648","640","356","j","true","img/C_ambi40.png","圆形","prac_image_first",""
"","","","","","html-keyboard-response","22","279278","0.0-7.0-0.0-1.5","null","<span style='color:GreenYellow; font-size: 70px;'>正确! </span>","null","","","","","","","","","","","","","","","","","","","","","","","feedback_test"
"","","","","","psychophysics","23","281366","0.0-7.0-0.0-0.6","884","","j","","","","","","","","","","","","","key","j","16.93186885245921","640","356","j","true","img/T_ambi40.png","三角","prac_image_first",""
"","","","","","html-keyboard-response","24","281683","0.0-7.0-0.0-1.6","null","<span style='color:GreenYellow; font-size: 70px;'>正确! </span>","null","","","","","","","","","","","","","","","","","","","","","","","feedback_test"
"","","","","","psychophysics","25","283821","0.0-7.0-0.0-0.7","974","","j","","","","","","","","","","","","","key","j","16.792416000000202","640","356","j","true","img/C_ambi40.png","圆形","prac_image_first",""
"","","","","","html-keyboard-response","26","284129","0.0-7.0-0.0-1.7","null","<span style='color:GreenYellow; font-size: 70px;'>正确! </span>","null","","","","","","","","","","","","","","","","","","","","","","","feedback_test"
"","","","","","psychophysics","27","286559","0.0-7.0-0.0-0.8","1272","","f","","","","","","","","","","","","","key","f","16.776027972028032","640","356","f","true","img/C_ambi40.png","三角","prac_image_first",""
"","","","","","html-keyboard-response","28","286874","0.0-7.0-0.0-1.8","null","<span style='color:GreenYellow; font-size: 70px;'>正确! </span>","null","","","","","","","","","","","","","","","","","","","","","","","feedback_test"
"","","","","","psychophysics","29","289062","0.0-7.0-0.0-0.9","1034","","f","","","","","","","","","","","","","key","f","16.659576923076887","640","356","f","true","img/T_ambi40.png","方形","prac_image_first",""
"","","","","","html-keyboard-response","30","289378","0.0-7.0-0.0-1.9","null","<span style='color:GreenYellow; font-size: 70px;'>正确! </span>","null","","","","","","","","","","","","","","","","","","","","","","","feedback_test"
"","","","","","psychophysics","31","291500","0.0-7.0-0.0-0.10","966","","f","","","","","","","","","","","","","key","f","17.06510569105716","640","356","f","true","img/C_ambi40.png","方形","prac_image_first",""
"","","","","","html-keyboard-response","32","291813","0.0-7.0-0.0-1.10","null","<span style='color:GreenYellow; font-size: 70px;'>正确! </span>","null","","","","","","","","","","","","","","","","","","","","","","","feedback_test"
"","","","","","psychophysics","33","293661","0.0-7.0-0.0-0.11","680","","j","","","","","","","","","","","","","key","j","16.66133027522955","640","356","f","false","img/S_ambi40.png","三角","prac_image_first",""
"","","","","","html-keyboard-response","34","293966","0.0-7.0-0.0-1.11","null","<span style='color:red; font-size: 70px;'>错误! </span>","null","","","","","","","","","","","","","","","","","","","","","","","feedback_test"
"","","","","","psychophysics","35","296017","0.0-7.0-0.0-0.12","891","","j","","","","","","","","","","","","","key","j","16.659188524589943","640","356","j","true","img/T_ambi40.png","三角","prac_image_first",""
"","","","","","html-keyboard-response","36","296330","0.0-7.0-0.0-1.12","null","<span style='color:GreenYellow; font-size: 70px;'>正确! </span>","null","","","","","","","","","","","","","","","","","","","","","","","feedback_test"
"","","","","","psychophysics","37","298146","0.0-7.0-0.0-0.13","664","","f","","","","","","","","","","","","","key","f","16.676898148147977","640","356","f","true","img/T_ambi40.png","方形","prac_image_first",""
"","","","","","html-keyboard-response","38","298458","0.0-7.0-0.0-1.13","null","<span style='color:GreenYellow; font-size: 70px;'>正确! </span>","null","","","","","","","","","","","","","","","","","","","","","","","feedback_test"
"","","","","","psychophysics","39","300437","0.0-7.0-0.0-0.14","818","","j","","","","","","","","","","","","","key","j","16.659811965811752","640","356","j","true","img/T_ambi40.png","三角","prac_image_first",""
"","","","","","html-keyboard-response","40","300744","0.0-7.0-0.0-1.14","null","<span style='color:GreenYellow; font-size: 70px;'>正确! </span>","null","","","","","","","","","","","","","","","","","","","","","","","feedback_test"
"","","","","","psychophysics","41","302904","0.0-7.0-0.0-0.15","1004","","f","","","","","","","","","","","","","key","f","16.654656250000244","640","356","f","true","img/S_ambi40.png","圆形","prac_image_first",""
"","","","","","html-keyboard-response","42","303218","0.0-7.0-0.0-1.15","null","<span style='color:GreenYellow; font-size: 70px;'>正确! </span>","null","","","","","","","","","","","","","","","","","","","","","","","feedback_test"
"","","","","","psychophysics","43","305679","0.0-7.0-0.0-0.16","1309","","f","","","","","","","","","","","","","key","f","16.662561643835595","640","356","f","true","img/S_ambi40.png","三角","prac_image_first",""
"","","","","","html-keyboard-response","44","305989","0.0-7.0-0.0-1.16","null","<span style='color:GreenYellow; font-size: 70px;'>正确! </span>","null","","","","","","","","","","","","","","","","","","","","","","","feedback_test"
"","","","","","psychophysics","45","307895","0.0-7.0-0.0-0.17","753","","j","","","","","","","","","","","","","key","j","16.65882300884943","640","356","f","false","img/C_ambi40.png","方形","prac_image_first",""
"","","","","","html-keyboard-response","46","308203","0.0-7.0-0.0-1.17","null","<span style='color:red; font-size: 70px;'>错误! </span>","null","","","","","","","","","","","","","","","","","","","","","","","feedback_test"
"","","","","","psychophysics","47","310178","0.0-7.0-0.0-0.18","818","","j","","","","","","","","","","","","","key","j","16.659615384615286","640","356","j","true","img/S_ambi40.png","方形","prac_image_first",""
"","","","","","html-keyboard-response","48","310487","0.0-7.0-0.0-1.18","null","<span style='color:GreenYellow; font-size: 70px;'>正确! </span>","null","","","","","","","","","","","","","","","","","","","","","","","feedback_test"
"","","","","","psychophysics","49","312490","0.0-7.0-0.0-0.19","842","","f","","","","","","","","","","","","","key","f","16.657294117647005","640","356","f","true","img/C_ambi40.png","三角","prac_image_first",""
"","","","","","html-keyboard-response","50","312804","0.0-7.0-0.0-1.19","null","<span style='color:GreenYellow; font-size: 70px;'>正确! </span>","null","","","","","","","","","","","","","","","","","","","","","","","feedback_test"
"","","","","","psychophysics","51","314806","0.0-7.0-0.0-0.20","851","","j","","","","","","","","","","","","","key","j","16.65897478991601","640","356","j","true","img/C_ambi40.png","圆形","prac_image_first",""
"","","","","","html-keyboard-response","52","315117","0.0-7.0-0.0-1.20","null","<span style='color:GreenYellow; font-size: 70px;'>正确! </span>","null","","","","","","","","","","","","","","","","","","","","","","","feedback_test"
"","","","","","psychophysics","53","317259","0.0-7.0-0.0-0.21","977","","j","","","","","","","","","","","","","key","j","16.65919841269848","640","356","j","true","img/C_ambi40.png","圆形","prac_image_first",""
"","","","","","html-keyboard-response","54","317579","0.0-7.0-0.0-1.21","null","<span style='color:GreenYellow; font-size: 70px;'>正确! </span>","null","","","","","","","","","","","","","","","","","","","","","","","feedback_test"
"","","","","","psychophysics","55","319664","0.0-7.0-0.0-0.22","933","","j","","","","","","","","","","","","","key","j","16.67595934959335","640","356","j","true","img/S_ambi40.png","方形","prac_image_first",""
"","","","","","html-keyboard-response","56","319976","0.0-7.0-0.0-1.22","null","<span style='color:GreenYellow; font-size: 70px;'>正确! </span>","null","","","","","","","","","","","","","","","","","","","","","","","feedback_test"
"","","","","","psychophysics","57","321886","0.0-7.0-0.0-0.23","757","","f","","","","","","","","","","","","","key","f","16.6595486725662","640","356","f","true","img/T_ambi40.png","圆形","prac_image_first",""
"","","","","","html-keyboard-response","58","322199","0.0-7.0-0.0-1.23","null","<span style='color:GreenYellow; font-size: 70px;'>正确! </span>","null","","","","","","","","","","","","","","","","","","","","","","","feedback_test"
"","","","","","html-keyboard-response","59","326194","0.0-8.0","3992","<style>.context{color:white; font-size: 35px; line-height:40px}</style>                            <div><p class='context'>您正确回答了75% 的试次。</p><p class='context'>您的平均反应时为910毫秒。</p><p class='context'>恭喜您完成这一阶段的练习。按任意键进入<span style='color: yellow;'>先文字后图形条件</span>的练习。</p></div>"," ","","","","","","","","","","","","","","","","","","","","","","",""
"","","","","","psychophysics","60","328143","0.0-9.0-0.0-0.0","793","","j","","","","","","","","","","","","","key","j","16.6632695652175","640","356","j","true","img/T_ambi40.png","三角","prac_word_first",""
"","","","","","html-keyboard-response","61","328460","0.0-9.0-0.0-1.0","null","<span style='color:GreenYellow; font-size: 70px;'>正确! </span>","null","","","","","","","","","","","","","","","","","","","","","","","feedback_test"
"","","","","","psychophysics","62","330258","0.0-9.0-0.0-0.1","638","","j","","","","","","","","","","","","","key","j","16.659160377358347","640","356","j","true","img/C_ambi40.png","圆形","prac_word_first",""
"","","","","","html-keyboard-response","63","330576","0.0-9.0-0.0-1.1","null","<span style='color:GreenYellow; font-size: 70px;'>正确! </span>","null","","","","","","","","","","","","","","","","","","","","","","","feedback_test"
"","","","","","psychophysics","64","332498","0.0-9.0-0.0-0.2","767","","f","","","","","","","","","","","","","key","f","16.657421052631545","640","356","f","true","img/C_ambi40.png","三角","prac_word_first",""
"","","","","","html-keyboard-response","65","332804","0.0-9.0-0.0-1.2","null","<span style='color:GreenYellow; font-size: 70px;'>正确! </span>","null","","","","","","","","","","","","","","","","","","","","","","","feedback_test"
"","","","","","psychophysics","66","334677","0.0-9.0-0.0-0.3","719","","f","","","","","","","","","","","","","key","f","16.661736363636077","640","356","f","true","img/S_ambi40.png","圆形","prac_word_first",""
"","","","","","html-keyboard-response","67","334989","0.0-9.0-0.0-1.3","null","<span style='color:GreenYellow; font-size: 70px;'>正确! </span>","null","","","","","","","","","","","","","","","","","","","","","","","feedback_test"
"","","","","","psychophysics","68","336841","0.0-9.0-0.0-0.4","681","","j","","","","","","","","","","","","","key","j","16.65943119266079","640","356","j","true","img/T_ambi40.png","三角","prac_word_first",""
"","","","","","html-keyboard-response","69","337152","0.0-9.0-0.0-1.4","null","<span style='color:GreenYellow; font-size: 70px;'>正确! </span>","null","","","","","","","","","","","","","","","","","","","","","","","feedback_test"
"","","","","","psychophysics","70","339096","0.0-9.0-0.0-0.5","790","","f","","","","","","","","","","","","","key","f","16.659069565217436","640","356","f","true","img/T_ambi40.png","方形","prac_word_first",""
"","","","","","html-keyboard-response","71","339403","0.0-9.0-0.0-1.5","null","<span style='color:GreenYellow; font-size: 70px;'>正确! </span>","null","","","","","","","","","","","","","","","","","","","","","","","feedback_test"
"","","","","","psychophysics","72","341197","0.0-9.0-0.0-0.6","636","","j","","","","","","","","","","","","","key","j","16.661028301886958","640","356","j","true","img/C_ambi40.png","圆形","prac_word_first",""
"","","","","","html-keyboard-response","73","341504","0.0-9.0-0.0-1.6","null","<span style='color:GreenYellow; font-size: 70px;'>正确! </span>","null","","","","","","","","","","","","","","","","","","","","","","","feedback_test"
"","","","","","psychophysics","74","343542","0.0-9.0-0.0-0.7","883","","f","","","","","","","","","","","","","key","f","16.65915702479316","640","356","f","true","img/S_ambi40.png","三角","prac_word_first",""
"","","","","","html-keyboard-response","75","343849","0.0-9.0-0.0-1.7","null","<span style='color:GreenYellow; font-size: 70px;'>正确! </span>","null","","","","","","","","","","","","","","","","","","","","","","","feedback_test"
"","","","","","psychophysics","76","345785","0.0-9.0-0.0-0.8","782","","f","","","","","","","","","","","","","key","f","16.655149122806808","640","356","f","true","img/C_ambi40.png","方形","prac_word_first",""
"","","","","","html-keyboard-response","77","346091","0.0-9.0-0.0-1.8","null","<span style='color:GreenYellow; font-size: 70px;'>正确! </span>","null","","","","","","","","","","","","","","","","","","","","","","","feedback_test"
"","","","","","psychophysics","78","347967","0.0-9.0-0.0-0.9","719","","f","","","","","","","","","","","","","key","f","16.659999999999854","640","356","f","true","img/T_ambi40.png","圆形","prac_word_first",""
"","","","","","html-keyboard-response","79","348287","0.0-9.0-0.0-1.9","null","<span style='color:GreenYellow; font-size: 70px;'>正确! </span>","null","","","","","","","","","","","","","","","","","","","","","","","feedback_test"
"","","","","","psychophysics","80","350158","0.0-9.0-0.0-0.10","705","","j","","","","","","","","","","","","","key","j","16.659891891892084","640","356","j","true","img/S_ambi40.png","方形","prac_word_first",""
"","","","","","html-keyboard-response","81","350471","0.0-9.0-0.0-1.10","null","<span style='color:GreenYellow; font-size: 70px;'>正确! </span>","null","","","","","","","","","","","","","","","","","","","","","","","feedback_test"
"","","","","","psychophysics","82","352286","0.0-9.0-0.0-0.11","661","","j","","","","","","","","","","","","","key","j","16.658574074073975","640","356","j","true","img/S_ambi40.png","方形","prac_word_first",""
"","","","","","html-keyboard-response","83","352601","0.0-9.0-0.0-1.11","null","<span style='color:GreenYellow; font-size: 70px;'>正确! </span>","null","","","","","","","","","","","","","","","","","","","","","","","feedback_test"
"","","","","","psychophysics","84","354463","0.0-9.0-0.0-0.12","707","","f","","","","","","","","","","","","","key","f","16.65767272727257","640","356","f","true","img/C_ambi40.png","三角","prac_word_first",""
"","","","","","html-keyboard-response","85","354780","0.0-9.0-0.0-1.12","null","<span style='color:GreenYellow; font-size: 70px;'>正确! </span>","null","","","","","","","","","","","","","","","","","","","","","","","feedback_test"
"","","","","","psychophysics","86","356537","0.0-9.0-0.0-0.13","605","","j","","","","","","","","","","","","","key","j","16.659346153846016","640","356","j","true","img/C_ambi40.png","圆形","prac_word_first",""
"","","","","","html-keyboard-response","87","356840","0.0-9.0-0.0-1.13","null","<span style='color:GreenYellow; font-size: 70px;'>正确! </span>","null","","","","","","","","","","","","","","","","","","","","","","","feedback_test"
"","","","","","psychophysics","88","358751","0.0-9.0-0.0-0.14","756","","f","","","","","","","","","","","","","key","f","16.65797345132765","640","356","f","true","img/S_ambi40.png","三角","prac_word_first",""
"","","","","","html-keyboard-response","89","359053","0.0-9.0-0.0-1.14","null","<span style='color:GreenYellow; font-size: 70px;'>正确! </span>","null","","","","","","","","","","","","","","","","","","","","","","","feedback_test"
"","","","","","psychophysics","90","360894","0.0-9.0-0.0-0.15","688","","j","","","","","","","","","","","","","key","j","16.70271559632992","640","356","j","true","img/S_ambi40.png","方形","prac_word_first",""
"","","","","","html-keyboard-response","91","361198","0.0-9.0-0.0-1.15","null","<span style='color:GreenYellow; font-size: 70px;'>正确! </span>","null","","","","","","","","","","","","","","","","","","","","","","","feedback_test"
"","","","","","psychophysics","92","363084","0.0-9.0-0.0-0.16","733","","j","","","","","","","","","","","","","key","j","16.722846846847148","640","356","j","true","img/S_ambi40.png","方形","prac_word_first",""
"","","","","","html-keyboard-response","93","363395","0.0-9.0-0.0-1.16","null","<span style='color:GreenYellow; font-size: 70px;'>正确! </span>","null","","","","","","","","","","","","","","","","","","","","","","","feedback_test"
"","","","","","psychophysics","94","365165","0.0-9.0-0.0-0.17","617","","f","","","","","","","","","","","","","key","f","16.655161904762057","640","356","f","true","img/T_ambi40.png","圆形","prac_word_first",""
"","","","","","html-keyboard-response","95","365471","0.0-9.0-0.0-1.17","null","<span style='color:GreenYellow; font-size: 70px;'>正确! </span>","null","","","","","","","","","","","","","","","","","","","","","","","feedback_test"
"","","","","","psychophysics","96","367300","0.0-9.0-0.0-0.18","673","","j","","","","","","","","","","","","","key","j","16.659444444444187","640","356","j","true","img/T_ambi40.png","三角","prac_word_first",""
"","","","","","html-keyboard-response","97","367608","0.0-9.0-0.0-1.18","null","<span style='color:GreenYellow; font-size: 70px;'>正确! </span>","null","","","","","","","","","","","","","","","","","","","","","","","feedback_test"
"","","","","","psychophysics","98","369615","0.0-9.0-0.0-0.19","854","","f","","","","","","","","","","","","","key","f","16.661050420167893","640","356","f","true","img/S_ambi40.png","圆形","prac_word_first",""
"","","","","","html-keyboard-response","99","369923","0.0-9.0-0.0-1.19","null","<span style='color:GreenYellow; font-size: 70px;'>正确! </span>","null","","","","","","","","","","","","","","","","","","","","","","","feedback_test"
"","","","","","psychophysics","100","371858","0.0-9.0-0.0-0.20","778","","f","","","","","","","","","","","","","key","f","16.65854385964881","640","356","f","true","img/C_ambi40.png","方形","prac_word_first",""
"","","","","","html-keyboard-response","101","372176","0.0-9.0-0.0-1.20","null","<span style='color:GreenYellow; font-size: 70px;'>正确! </span>","null","","","","","","","","","","","","","","","","","","","","","","","feedback_test"
"","","","","","psychophysics","102","374179","0.0-9.0-0.0-0.21","837","","f","","","","","","","","","","","","","key","f","16.659655462184965","640","356","f","true","img/T_ambi40.png","方形","prac_word_first",""
"","","","","","html-keyboard-response","103","374498","0.0-9.0-0.0-1.21","null","<span style='color:GreenYellow; font-size: 70px;'>正确! </span>","null","","","","","","","","","","","","","","","","","","","","","","","feedback_test"
"","","","","","psychophysics","104","376426","0.0-9.0-0.0-0.22","758","","j","","","","","","","","","","","","","key","j","16.659000000000418","640","356","j","true","img/C_ambi40.png","圆形","prac_word_first",""
"","","","","","html-keyboard-response","105","376732","0.0-9.0-0.0-1.22","null","<span style='color:GreenYellow; font-size: 70px;'>正确! </span>","null","","","","","","","","","","","","","","","","","","","","","","","feedback_test"
"","","","","","psychophysics","106","378588","0.0-9.0-0.0-0.23","704","","j","","","","","","","","","","","","","key","j","16.665709090909115","640","356","j","true","img/T_ambi40.png","三角","prac_word_first",""
"","","","","","html-keyboard-response","107","378903","0.0-9.0-0.0-1.23","null","<span style='color:GreenYellow; font-size: 70px;'>正确! </span>","null","","","","","","","","","","","","","","","","","","","","","","","feedback_test"
"","","","","","html-keyboard-response","108","380536","0.0-10.0","1626","<style>.context{color:white; font-size: 35px; line-height:40px}</style>                            <div><p class='context'>您正确回答了100% 的试次。</p><p class='context'>您的平均反应时为729毫秒。</p><p class='context'>恭喜您完成练习。按任意键进入<span style='color: yellow;'>图形和文字同时呈现条件</span>的练习。</p></div>"," ","","","","","","","","","","","","","","","","","","","","","","",""
"","","","","","psychophysics","109","382694","0.0-11.0-0.0-0.0","1153","","j","","","","","","","","","","","","","key","j","16.65920312499975","640","356","j","true","img/C_ambi40.png","圆形","prac_simultaneous",""
"","","","","","html-keyboard-response","110","383009","0.0-11.0-0.0-1.0","null","<span style='color:GreenYellow; font-size: 70px;'>正确! </span>","null","","","","","","","","","","","","","","","","","","","","","","","feedback_test"
"","","","","","psychophysics","111","384784","0.0-11.0-0.0-0.1","772","","f","","","","","","","","","","","","","key","f","16.657104761904616","640","356","f","true","img/C_ambi40.png","方形","prac_simultaneous",""
"","","","","","html-keyboard-response","112","385089","0.0-11.0-0.0-1.1","null","<span style='color:GreenYellow; font-size: 70px;'>正确! </span>","null","","","","","","","","","","","","","","","","","","","","","","","feedback_test"
"","","","","","psychophysics","113","387005","0.0-11.0-0.0-0.2","913","","f","","","","","","","","","","","","","key","f","16.659456140350493","640","356","j","false","img/C_ambi40.png","圆形","prac_simultaneous",""
"","","","","","html-keyboard-response","114","387315","0.0-11.0-0.0-1.2","null","<span style='color:red; font-size: 70px;'>错误! </span>","null","","","","","","","","","","","","","","","","","","","","","","","feedback_test"
"","","","","","psychophysics","115","389338","0.0-11.0-0.0-0.3","1015","","f","","","","","","","","","","","","","key","f","16.658208333333217","640","356","f","true","img/S_ambi40.png","圆形","prac_simultaneous",""
"","","","","","html-keyboard-response","116","389643","0.0-11.0-0.0-1.3","null","<span style='color:GreenYellow; font-size: 70px;'>正确! </span>","null","","","","","","","","","","","","","","","","","","","","","","","feedback_test"
"","","","","","psychophysics","117","391441","0.0-11.0-0.0-0.4","792","","f","","","","","","","","","","","","","key","f","16.65984905660394","640","356","f","true","img/C_ambi40.png","三角","prac_simultaneous",""
"","","","","","html-keyboard-response","118","391744","0.0-11.0-0.0-1.4","null","<span style='color:GreenYellow; font-size: 70px;'>正确! </span>","null","","","","","","","","","","","","","","","","","","","","","","","feedback_test"
"","","","","","psychophysics","119","393550","0.0-11.0-0.0-0.5","800","","j","","","","","","","","","","","","","key","j","16.659037383178045","640","356","j","true","img/S_ambi40.png","方形","prac_simultaneous",""
"","","","","","html-keyboard-response","120","393863","0.0-11.0-0.0-1.5","null","<span style='color:GreenYellow; font-size: 70px;'>正确! </span>","null","","","","","","","","","","","","","","","","","","","","","","","feedback_test"
"","","","","","psychophysics","121","395800","0.0-11.0-0.0-0.6","933","","j","","","","","","","","","","","","","key","j","16.6690869565218","640","356","j","true","img/T_ambi40.png","三角","prac_simultaneous",""
"","","","","","html-keyboard-response","122","396105","0.0-11.0-0.0-1.6","null","<span style='color:GreenYellow; font-size: 70px;'>正确! </span>","null","","","","","","","","","","","","","","","","","","","","","","","feedback_test"
"","","","","","psychophysics","123","397993","0.0-11.0-0.0-0.7","882","","j","","","","","","","","","","","","","key","j","16.658846846846696","640","356","j","true","img/T_ambi40.png","三角","prac_simultaneous",""
"","","","","","html-keyboard-response","124","398304","0.0-11.0-0.0-1.7","null","<span style='color:GreenYellow; font-size: 70px;'>正确! </span>","null","","","","","","","","","","","","","","","","","","","","","","","feedback_test"
"","","","","","psychophysics","125","400140","0.0-11.0-0.0-0.8","825","","f","","","","","","","","","","","","","key","f","16.661249999999807","640","356","f","true","img/T_ambi40.png","方形","prac_simultaneous",""
"","","","","","html-keyboard-response","126","400443","0.0-11.0-0.0-1.8","null","<span style='color:GreenYellow; font-size: 70px;'>正确! </span>","null","","","","","","","","","","","","","","","","","","","","","","","feedback_test"
"","","","","","psychophysics","127","402335","0.0-11.0-0.0-0.9","889","","f","","","","","","","","","","","","","key","f","16.65952678571453","640","356","f","true","img/T_ambi40.png","圆形","prac_simultaneous",""
"","","","","","html-keyboard-response","128","402657","0.0-11.0-0.0-1.9","null","<span style='color:GreenYellow; font-size: 70px;'>正确! </span>","null","","","","","","","","","","","","","","","","","","","","","","","feedback_test"
"","","","","","psychophysics","129","404679","0.0-11.0-0.0-0.10","1016","","j","","","","","","","","","","","","","key","j","16.656174999999834","640","356","j","true","img/S_ambi40.png","方形","prac_simultaneous",""
"","","","","","html-keyboard-response","130","404987","0.0-11.0-0.0-1.10","null","<span style='color:GreenYellow; font-size: 70px;'>正确! </span>","null","","","","","","","","","","","","","","","","","","","","","","","feedback_test"
"","","","","","psychophysics","131","406761","0.0-11.0-0.0-0.11","767","","f","","","","","","","","","","","","","key","f","16.651219047618742","640","356","f","true","img/S_ambi40.png","三角","prac_simultaneous",""
"","","","","","html-keyboard-response","132","407067","0.0-11.0-0.0-1.11","null","<span style='color:GreenYellow; font-size: 70px;'>正确! </span>","null","","","","","","","","","","","","","","","","","","","","","","","feedback_test"
"","","","","","psychophysics","133","408817","0.0-11.0-0.0-0.12","736","","j","","","","","","","","","","","","","key","j","16.660388349514744","640","356","j","true","img/S_ambi40.png","方形","prac_simultaneous",""
"","","","","","html-keyboard-response","134","409135","0.0-11.0-0.0-1.12","null","<span style='color:GreenYellow; font-size: 70px;'>正确! </span>","null","","","","","","","","","","","","","","","","","","","","","","","feedback_test"
"","","","","","psychophysics","135","410962","0.0-11.0-0.0-0.13","824","","j","","","","","","","","","","","","","key","j","16.66058333333381","640","356","f","false","img/T_ambi40.png","方形","prac_simultaneous",""
"","","","","","html-keyboard-response","136","411276","0.0-11.0-0.0-1.13","null","<span style='color:red; font-size: 70px;'>错误! </span>","null","","","","","","","","","","","","","","","","","","","","","","","feedback_test"
"","","","","","psychophysics","137","413076","0.0-11.0-0.0-0.14","792","","f","","","","","","","","","","","","","key","f","16.66236792452785","640","356","f","true","img/C_ambi40.png","三角","prac_simultaneous",""
"","","","","","html-keyboard-response","138","413383","0.0-11.0-0.0-1.14","null","<span style='color:GreenYellow; font-size: 70px;'>正确! </span>","null","","","","","","","","","","","","","","","","","","","","","","","feedback_test"
"","","","","","psychophysics","139","415321","0.0-11.0-0.0-0.15","933","","j","","","","","","","","","","","","","key","j","16.658482456140693","640","356","j","true","img/C_ambi40.png","圆形","prac_simultaneous",""
"","","","","","html-keyboard-response","140","415628","0.0-11.0-0.0-1.15","null","<span style='color:GreenYellow; font-size: 70px;'>正确! </span>","null","","","","","","","","","","","","","","","","","","","","","","","feedback_test"
"","","","","","psychophysics","141","417457","0.0-11.0-0.0-0.16","827","","f","","","","","","","","","","","","","key","f","16.659175925925847","640","356","f","true","img/T_ambi40.png","圆形","prac_simultaneous",""
"","","","","","html-keyboard-response","142","417778","0.0-11.0-0.0-1.16","null","<span style='color:GreenYellow; font-size: 70px;'>正确! </span>","null","","","","","","","","","","","","","","","","","","","","","","","feedback_test"
"","","","","","psychophysics","143","419891","0.0-11.0-0.0-0.17","1102","","f","","","","","","","","","","","","","key","f","16.658960317460163","640","356","f","true","img/S_ambi40.png","三角","prac_simultaneous",""
"","","","","","html-keyboard-response","144","420199","0.0-11.0-0.0-1.17","null","<span style='color:GreenYellow; font-size: 70px;'>正确! </span>","null","","","","","","","","","","","","","","","","","","","","","","","feedback_test"
"","","","","","psychophysics","145","422023","0.0-11.0-0.0-0.18","812","","j","","","","","","","","","","","","","key","j","16.65905555555569","640","356","j","true","img/S_ambi40.png","方形","prac_simultaneous",""
"","","","","","html-keyboard-response","146","422339","0.0-11.0-0.0-1.18","null","<span style='color:GreenYellow; font-size: 70px;'>正确! </span>","null","","","","","","","","","","","","","","","","","","","","","","","feedback_test"
"","","","","","psychophysics","147","424223","0.0-11.0-0.0-0.19","881","","j","","","","","","","","","","","","","key","j","16.65924107142876","640","356","j","true","img/T_ambi40.png","三角","prac_simultaneous",""
"","","","","","html-keyboard-response","148","424534","0.0-11.0-0.0-1.19","null","<span style='color:GreenYellow; font-size: 70px;'>正确! </span>","null","","","","","","","","","","","","","","","","","","","","","","","feedback_test"
"","","","","","psychophysics","149","426737","0.0-11.0-0.0-0.20","1198","","j","","","","","","","","","","","","","key","j","16.659338461538294","640","356","j","true","img/C_ambi40.png","圆形","prac_simultaneous",""
"","","","","","html-keyboard-response","150","427043","0.0-11.0-0.0-1.20","null","<span style='color:GreenYellow; font-size: 70px;'>正确! </span>","null","","","","","","","","","","","","","","","","","","","","","","","feedback_test"
"","","","","","psychophysics","151","429043","0.0-11.0-0.0-0.21","991","","f","","","","","","","","","","","","","key","f","16.659144067796937","640","356","f","true","img/C_ambi40.png","方形","prac_simultaneous",""
"","","","","","html-keyboard-response","152","429363","0.0-11.0-0.0-1.21","null","<span style='color:GreenYellow; font-size: 70px;'>正确! </span>","null","","","","","","","","","","","","","","","","","","","","","","","feedback_test"
"","","","","","psychophysics","153","431335","0.0-11.0-0.0-0.22","955","","j","","","","","","","","","","","","","key","j","16.659837606837616","640","356","j","true","img/T_ambi40.png","三角","prac_simultaneous",""
"","","","","","html-keyboard-response","154","431645","0.0-11.0-0.0-1.22","null","<span style='color:GreenYellow; font-size: 70px;'>正确! </span>","null","","","","","","","","","","","","","","","","","","","","","","","feedback_test"
"","","","","","psychophysics","155","433980","0.0-11.0-0.0-0.23","1315","","f","","","","","","","","","","","","","key","f","16.656413043478413","640","356","f","true","img/S_ambi40.png","圆形","prac_simultaneous",""
"","","","","","html-keyboard-response","156","434298","0.0-11.0-0.0-1.23","null","<span style='color:GreenYellow; font-size: 70px;'>正确! </span>","null","","","","","","","","","","","","","","","","","","","","","","","feedback_test"
"","","","","","html-keyboard-response","157","459129","0.0-12.0","24826","<style>.context{color:white; font-size: 35px; line-height:40px}</style>                            <div><p class='context'>您正确回答了92% 的试次。</p><p class='context'>您的平均反应时为927毫秒。</p><p class='context'>恭喜您完成练习。按任意键进入正式实验。</p><p class='footer' style='font-size: 35px; line-height:40px;'>请在进入正式实验实验之前将您的<span style='color: lightgreen;'>食指</span>放在电脑键盘的相应键位上进行按键。</p>"," ","","","","","","","","","","","","","","","","","","","","","","",""
"","","","","","html-keyboard-response","158","468633","0.0-13.0-2.0-0.0","9499","
    <p>请您将手指放在按键上，准备进入呈现顺序为<span style='color: yellow;'>图形和文字同时呈现条件</span>的正式匹配任务</p>
    <p> <div style = ""color: green""><按任意键进入下一阶段的匹配任务></div></p>
    "," ","","","","","","","","","","","","","","","","","","","","","","",""
"","","","","","psychophysics","159","470651","0.0-13.0-2.0-1.0-0.0-0.0","1015","","f","","","","","","","","","","","","","key","f","16.799033613445555","640","356","f","true","img/T_ambi40.png","方形","simultaneous",""
"","","","","","html-keyboard-response","160","470957","0.0-13.0-2.0-1.0-0.0-1.0","null","<span style='color:GreenYellow; font-size: 70px;'>正确! </span>","null","","","","","","","","","","","","","","","","","","","","","","","feedback_test"
"","","","","","psychophysics","161","472703","0.0-13.0-2.0-1.0-0.0-0.1","732","","j","","","","","","","","","","","","","key","j","16.659864077670047","640","356","j","true","img/C_ambi40.png","圆形","simultaneous",""
"","","","","","html-keyboard-response","162","473013","0.0-13.0-2.0-1.0-0.0-1.1","null","<span style='color:GreenYellow; font-size: 70px;'>正确! </span>","null","","","","","","","","","","","","","","","","","","","","","","","feedback_test"
"","","","","","psychophysics","163","474913","0.0-13.0-2.0-1.0-0.0-0.2","898","","j","","","","","","","","","","","","","key","j","16.66715178571446","640","356","j","true","img/T_ambi40.png","三角","simultaneous",""
"","","","","","html-keyboard-response","164","475225","0.0-13.0-2.0-1.0-0.0-1.2","null","<span style='color:GreenYellow; font-size: 70px;'>正确! </span>","null","","","","","","","","","","","","","","","","","","","","","","","feedback_test"
"","","","","","psychophysics","165","477245","0.0-13.0-2.0-1.0-0.0-0.3","993","","f","","","","","","","","","","","","","key","f","16.660907563025585","640","356","f","true","img/S_ambi40.png","圆形","simultaneous",""
"","","","","","html-keyboard-response","166","477554","0.0-13.0-2.0-1.0-0.0-1.3","null","<span style='color:GreenYellow; font-size: 70px;'>正确! </span>","null","","","","","","","","","","","","","","","","","","","","","","","feedback_test"
"","","","","","psychophysics","167","479225","0.0-13.0-2.0-1.0-0.0-0.4","649","","j","","","","","","","","","","","","","key","j","16.661989795918366","640","356","j","true","img/T_ambi40.png","三角","simultaneous",""
"","","","","","html-keyboard-response","168","479555","0.0-13.0-2.0-1.0-0.0-1.4","null","<span style='color:GreenYellow; font-size: 70px;'>正确! </span>","null","","","","","","","","","","","","","","","","","","","","","","","feedback_test"
"","","","","","psychophysics","169","481465","0.0-13.0-2.0-1.0-0.0-0.5","886","","j","","","","","","","","","","","","","key","j","16.661796460176955","640","356","j","true","img/S_ambi40.png","方形","simultaneous",""
"","","","","","html-keyboard-response","170","481777","0.0-13.0-2.0-1.0-0.0-1.5","null","<span style='color:GreenYellow; font-size: 70px;'>正确! </span>","null","","","","","","","","","","","","","","","","","","","","","","","feedback_test"
"","","","","","psychophysics","171","483730","0.0-13.0-2.0-1.0-0.0-0.6","949","","f","","","","","","","","","","","","","key","f","16.65750862068922","640","356","f","true","img/C_ambi40.png","三角","simultaneous",""
"","","","","","html-keyboard-response","172","484045","0.0-13.0-2.0-1.0-0.0-1.6","null","<span style='color:GreenYellow; font-size: 70px;'>正确! </span>","null","","","","","","","","","","","","","","","","","","","","","","","feedback_test"
"","","","","","psychophysics","173","485930","0.0-13.0-2.0-1.0-0.0-0.7","853","","f","","","","","","","","","","","","","key","f","16.661026785714057","640","356","f","true","img/C_ambi40.png","方形","simultaneous",""
"","","","","","html-keyboard-response","174","486247","0.0-13.0-2.0-1.0-0.0-1.7","null","<span style='color:GreenYellow; font-size: 70px;'>正确! </span>","null","","","","","","","","","","","","","","","","","","","","","","","feedback_test"
"","","","","","psychophysics","175","488013","0.0-13.0-2.0-1.0-0.0-0.8","759","","j","","","","","","","","","","","","","key","j","16.665438095238503","640","356","j","true","img/C_ambi40.png","圆形","simultaneous",""
"","","","","","html-keyboard-response","176","488320","0.0-13.0-2.0-1.0-0.0-1.8","null","<span style='color:GreenYellow; font-size: 70px;'>正确! </span>","null","","","","","","","","","","","","","","","","","","","","","","","feedback_test"
"","","","","","psychophysics","177","490292","0.0-13.0-2.0-1.0-0.0-0.9","963","","j","","","","","","","","","","","","","key","j","16.805982758620743","640","356","j","true","img/S_ambi40.png","方形","simultaneous",""
"","","","","","html-keyboard-response","178","490598","0.0-13.0-2.0-1.0-0.0-1.9","null","<span style='color:GreenYellow; font-size: 70px;'>正确! </span>","null","","","","","","","","","","","","","","","","","","","","","","","feedback_test"
"","","","","","psychophysics","179","492394","0.0-13.0-2.0-1.0-0.0-0.10","793","","f","","","","","","","","","","","","","key","f","16.658790476190568","640","356","f","true","img/T_ambi40.png","圆形","simultaneous",""
"","","","","","html-keyboard-response","180","492701","0.0-13.0-2.0-1.0-0.0-1.10","null","<span style='color:GreenYellow; font-size: 70px;'>正确! </span>","null","","","","","","","","","","","","","","","","","","","","","","","feedback_test"
"","","","","","psychophysics","181","494489","0.0-13.0-2.0-1.0-0.0-0.11","778","","f","","","","","","","","","","","","","key","f","16.659094339622655","640","356","f","true","img/S_ambi40.png","三角","simultaneous",""
"","","","","","html-keyboard-response","182","494803","0.0-13.0-2.0-1.0-0.0-1.11","null","<span style='color:GreenYellow; font-size: 70px;'>正确! </span>","null","","","","","","","","","","","","","","","","","","","","","","","feedback_test"
"","","","","","psychophysics","183","496539","0.0-13.0-2.0-1.0-0.0-0.12","730","","j","","","","","","","","","","","","","key","j","16.817969999999622","640","356","j","true","img/T_ambi40.png","三角","simultaneous",""
"","","","","","html-keyboard-response","184","496852","0.0-13.0-2.0-1.0-0.0-1.12","null","<span style='color:GreenYellow; font-size: 70px;'>正确! </span>","null","","","","","","","","","","","","","","","","","","","","","","","feedback_test"
"","","","","","psychophysics","185","498672","0.0-13.0-2.0-1.0-0.0-0.13","798","","f","","","","","","","","","","","","","key","f","16.816065420560914","640","356","f","true","img/T_ambi40.png","方形","simultaneous",""
"","","","","","html-keyboard-response","186","498978","0.0-13.0-2.0-1.0-0.0-1.13","null","<span style='color:GreenYellow; font-size: 70px;'>正确! </span>","null","","","","","","","","","","","","","","","","","","","","","","","feedback_test"
"","","","","","psychophysics","187","500606","0.0-13.0-2.0-1.0-0.0-0.14","587","","j","","","","","","","","","","","","","key","j","16.712333333333543","640","356","j","true","img/C_ambi40.png","圆形","simultaneous",""
"","","","","","html-keyboard-response","188","500913","0.0-13.0-2.0-1.0-0.0-1.14","null","<span style='color:GreenYellow; font-size: 70px;'>正确! </span>","null","","","","","","","","","","","","","","","","","","","","","","","feedback_test"
"","","","","","psychophysics","189","502686","0.0-13.0-2.0-1.0-0.0-0.15","761","","f","","","","","","","","","","","","","key","f","16.98560784313732","640","356","f","true","img/C_ambi40.png","三角","simultaneous",""
"","","","","","html-keyboard-response","190","502998","0.0-13.0-2.0-1.0-0.0-1.15","null","<span style='color:GreenYellow; font-size: 70px;'>正确! </span>","null","","","","","","","","","","","","","","","","","","","","","","","feedback_test"
"","","","","","psychophysics","191","504910","0.0-13.0-2.0-1.0-0.0-0.16","906","","f","","","","","","","","","","","","","key","f","16.659371681416108","640","356","f","true","img/S_ambi40.png","圆形","simultaneous",""
"","","","","","html-keyboard-response","192","505222","0.0-13.0-2.0-1.0-0.0-1.16","null","<span style='color:GreenYellow; font-size: 70px;'>正确! </span>","null","","","","","","","","","","","","","","","","","","","","","","","feedback_test"
"","","","","","psychophysics","193","506969","0.0-13.0-2.0-1.0-0.0-0.17","740","","j","","","","","","","","","","","","","key","j","16.65758252427156","640","356","j","true","img/S_ambi40.png","方形","simultaneous",""
"","","","","","html-keyboard-response","194","507279","0.0-13.0-2.0-1.0-0.0-1.17","null","<span style='color:GreenYellow; font-size: 70px;'>正确! </span>","null","","","","","","","","","","","","","","","","","","","","","","","feedback_test"
"","","","","","psychophysics","195","509028","0.0-13.0-2.0-1.0-0.0-0.18","745","","f","","","","","","","","","","","","","key","f","16.662009708737635","640","356","f","true","img/S_ambi40.png","三角","simultaneous",""
"","","","","","html-keyboard-response","196","509341","0.0-13.0-2.0-1.0-0.0-1.18","null","<span style='color:GreenYellow; font-size: 70px;'>正确! </span>","null","","","","","","","","","","","","","","","","","","","","","","","feedback_test"
"","","","","","psychophysics","197","511066","0.0-13.0-2.0-1.0-0.0-0.19","721","","j","","","","","","","","","","","","","key","j","16.655990099009948","640","356","j","true","img/S_ambi40.png","方形","simultaneous",""
"","","","","","html-keyboard-response","198","511381","0.0-13.0-2.0-1.0-0.0-1.19","null","<span style='color:GreenYellow; font-size: 70px;'>正确! </span>","null","","","","","","","","","","","","","","","","","","","","","","","feedback_test"
"","","","","","psychophysics","199","513206","0.0-13.0-2.0-1.0-0.0-0.20","803","","f","","","","","","","","","","","","","key","f","16.817261682242854","640","356","f","true","img/T_ambi40.png","圆形","simultaneous",""
"","","","","","html-keyboard-response","200","513513","0.0-13.0-2.0-1.0-0.0-1.20","null","<span style='color:GreenYellow; font-size: 70px;'>正确! </span>","null","","","","","","","","","","","","","","","","","","","","","","","feedback_test"
"","","","","","psychophysics","201","515216","0.0-13.0-2.0-1.0-0.0-0.21","699","","j","","","","","","","","","","","","","key","j","16.662090000000315","640","356","j","true","img/T_ambi40.png","三角","simultaneous",""
"","","","","","html-keyboard-response","202","515529","0.0-13.0-2.0-1.0-0.0-1.21","null","<span style='color:GreenYellow; font-size: 70px;'>正确! </span>","null","","","","","","","","","","","","","","","","","","","","","","","feedback_test"
"","","","","","psychophysics","203","517424","0.0-13.0-2.0-1.0-0.0-0.22","867","","f","","","","","","","","","","","","","key","f","16.809045045044556","640","356","f","true","img/C_ambi40.png","方形","simultaneous",""
"","","","","","html-keyboard-response","204","517739","0.0-13.0-2.0-1.0-0.0-1.22","null","<span style='color:GreenYellow; font-size: 70px;'>正确! </span>","null","","","","","","","","","","","","","","","","","","","","","","","feedback_test"
"","","","","","psychophysics","205","519478","0.0-13.0-2.0-1.0-0.0-0.23","732","","j","","","","","","","","","","","","","key","j","16.673118811880475","640","356","j","true","img/C_ambi40.png","圆形","simultaneous",""
"","","","","","html-keyboard-response","206","519787","0.0-13.0-2.0-1.0-0.0-1.23","null","<span style='color:GreenYellow; font-size: 70px;'>正确! </span>","null","","","","","","","","","","","","","","","","","","","","","","","feedback_test"
"","","","","","psychophysics","207","521473","0.0-13.0-2.0-1.0-0.0-0.24","675","","j","","","","","","","","","","","","","key","j","17.00985567010315","640","356","j","true","img/S_ambi40.png","方形","simultaneous",""
"","","","","","html-keyboard-response","208","521786","0.0-13.0-2.0-1.0-0.0-1.24","null","<span style='color:GreenYellow; font-size: 70px;'>正确! </span>","null","","","","","","","","","","","","","","","","","","","","","","","feedback_test"
"","","","","","psychophysics","209","523402","0.0-13.0-2.0-1.0-0.0-0.25","608","","f","","","","","","","","","","","","","key","f","16.833914893617397","640","356","f","true","img/C_ambi40.png","三角","simultaneous",""
"","","","","","html-keyboard-response","210","523712","0.0-13.0-2.0-1.0-0.0-1.25","null","<span style='color:GreenYellow; font-size: 70px;'>正确! </span>","null","","","","","","","","","","","","","","","","","","","","","","","feedback_test"
"","","","","","psychophysics","211","525382","0.0-13.0-2.0-1.0-0.0-0.26","663","","j","","","","","","","","","","","","","key","j","16.659101010100315","640","356","f","false","img/S_ambi40.png","圆形","simultaneous",""
"","","","","","html-keyboard-response","212","525692","0.0-13.0-2.0-1.0-0.0-1.26","null","<span style='color:red; font-size: 70px;'>错误! </span>","null","","","","","","","","","","","","","","","","","","","","","","","feedback_test"
"","","","","","psychophysics","213","527711","0.0-13.0-2.0-1.0-0.0-0.27","1015","","f","","","","","","","","","","","","","key","f","16.659999999999613","640","356","f","true","img/T_ambi40.png","方形","simultaneous",""
"","","","","","html-keyboard-response","214","528024","0.0-13.0-2.0-1.0-0.0-1.27","null","<span style='color:GreenYellow; font-size: 70px;'>正确! </span>","null","","","","","","","","","","","","","","","","","","","","","","","feedback_test"
"","","","","","psychophysics","215","529809","0.0-13.0-2.0-1.0-0.0-0.28","781","","j","","","","","","","","","","","","","key","j","16.657811320754742","640","356","j","true","img/T_ambi40.png","三角","simultaneous",""
"","","","","","html-keyboard-response","216","530116","0.0-13.0-2.0-1.0-0.0-1.28","null","<span style='color:GreenYellow; font-size: 70px;'>正确! </span>","null","","","","","","","","","","","","","","","","","","","","","","","feedback_test"
"","","","","","psychophysics","217","531983","0.0-13.0-2.0-1.0-0.0-0.29","861","","f","","","","","","","","","","","","","key","f","16.65820909090954","640","356","f","true","img/T_ambi40.png","圆形","simultaneous",""
"","","","","","html-keyboard-response","218","532301","0.0-13.0-2.0-1.0-0.0-1.29","null","<span style='color:GreenYellow; font-size: 70px;'>正确! </span>","null","","","","","","","","","","","","","","","","","","","","","","","feedback_test"
"","","","","","psychophysics","219","534273","0.0-13.0-2.0-1.0-0.0-0.30","935","","j","","","","","","","","","","","","","key","j","16.661939655172695","640","356","j","true","img/C_ambi40.png","圆形","simultaneous",""
"","","","","","html-keyboard-response","220","534583","0.0-13.0-2.0-1.0-0.0-1.30","null","<span style='color:GreenYellow; font-size: 70px;'>正确! </span>","null","","","","","","","","","","","","","","","","","","","","","","","feedback_test"
"","","","","","psychophysics","221","536540","0.0-13.0-2.0-1.0-0.0-0.31","944","","f","","","","","","","","","","","","","key","f","16.656594827586527","640","356","j","false","img/T_ambi40.png","三角","simultaneous",""
"","","","","","html-keyboard-response","222","536844","0.0-13.0-2.0-1.0-0.0-1.31","null","<span style='color:red; font-size: 70px;'>错误! </span>","null","","","","","","","","","","","","","","","","","","","","","","","feedback_test"
"","","","","","psychophysics","223","538787","0.0-13.0-2.0-1.0-0.0-0.32","941","","j","","","","","","","","","","","","","key","j","16.659643478261348","640","356","j","true","img/C_ambi40.png","圆形","simultaneous",""
"","","","","","html-keyboard-response","224","539090","0.0-13.0-2.0-1.0-0.0-1.32","null","<span style='color:GreenYellow; font-size: 70px;'>正确! </span>","null","","","","","","","","","","","","","","","","","","","","","","","feedback_test"
"","","","","","psychophysics","225","540885","0.0-13.0-2.0-1.0-0.0-0.33","783","","f","","","","","","","","","","","","","key","f","16.52427358490652","640","356","f","true","img/C_ambi40.png","方形","simultaneous",""
"","","","","","html-keyboard-response","226","541193","0.0-13.0-2.0-1.0-0.0-1.33","null","<span style='color:GreenYellow; font-size: 70px;'>正确! </span>","null","","","","","","","","","","","","","","","","","","","","","","","feedback_test"
"","","","","","psychophysics","227","543053","0.0-13.0-2.0-1.0-0.0-0.34","851","","f","","","","","","","","","","","","","key","f","16.807972477064382","640","356","f","true","img/S_ambi40.png","三角","simultaneous",""
"","","","","","html-keyboard-response","228","543361","0.0-13.0-2.0-1.0-0.0-1.34","null","<span style='color:GreenYellow; font-size: 70px;'>正确! </span>","null","","","","","","","","","","","","","","","","","","","","","","","feedback_test"
"","","","","","psychophysics","229","545150","0.0-13.0-2.0-1.0-0.0-0.35","768","","j","","","","","","","","","","","","","key","j","16.817857142857143","640","356","j","true","img/S_ambi40.png","方形","simultaneous",""
"","","","","","html-keyboard-response","230","545460","0.0-13.0-2.0-1.0-0.0-1.35","null","<span style='color:GreenYellow; font-size: 70px;'>正确! </span>","null","","","","","","","","","","","","","","","","","","","","","","","feedback_test"
"","","","","","psychophysics","231","547299","0.0-13.0-2.0-1.0-0.0-0.36","804","","j","","","","","","","","","","","","","key","j","16.658685185184435","640","356","j","true","img/C_ambi40.png","圆形","simultaneous",""
"","","","","","html-keyboard-response","232","547605","0.0-13.0-2.0-1.0-0.0-1.36","null","<span style='color:GreenYellow; font-size: 70px;'>正确! </span>","null","","","","","","","","","","","","","","","","","","","","","","","feedback_test"
"","","","","","psychophysics","233","549382","0.0-13.0-2.0-1.0-0.0-0.37","774","","f","","","","","","","","","","","","","key","f","16.656180952380723","640","356","f","true","img/C_ambi40.png","三角","simultaneous",""
"","","","","","html-keyboard-response","234","549694","0.0-13.0-2.0-1.0-0.0-1.37","null","<span style='color:GreenYellow; font-size: 70px;'>正确! </span>","null","","","","","","","","","","","","","","","","","","","","","","","feedback_test"
"","","","","","psychophysics","235","551549","0.0-13.0-2.0-1.0-0.0-0.38","848","","j","","","","","","","","","","","","","key","j","16.660363636363762","640","356","j","true","img/C_ambi40.png","圆形","simultaneous",""
"","","","","","html-keyboard-response","236","551862","0.0-13.0-2.0-1.0-0.0-1.38","null","<span style='color:GreenYellow; font-size: 70px;'>正确! </span>","null","","","","","","","","","","","","","","","","","","","","","","","feedback_test"
"","","","","","psychophysics","237","553806","0.0-13.0-2.0-1.0-0.0-0.39","940","","f","","","","","","","","","","","","","key","f","16.657775862068178","640","356","f","true","img/C_ambi40.png","方形","simultaneous",""
"","","","","","html-keyboard-response","238","554122","0.0-13.0-2.0-1.0-0.0-1.39","null","<span style='color:GreenYellow; font-size: 70px;'>正确! </span>","null","","","","","","","","","","","","","","","","","","","","","","","feedback_test"
"","","","","","psychophysics","239","556165","0.0-13.0-2.0-1.0-0.0-0.40","1041","","f","","","","","","","","","","","","","key","f","16.799883333333614","640","356","f","true","img/T_ambi40.png","圆形","simultaneous",""
"","","","","","html-keyboard-response","240","556481","0.0-13.0-2.0-1.0-0.0-1.40","null","<span style='color:GreenYellow; font-size: 70px;'>正确! </span>","null","","","","","","","","","","","","","","","","","","","","","","","feedback_test"
"","","","","","psychophysics","241","558363","0.0-13.0-2.0-1.0-0.0-0.41","876","","j","","","","","","","","","","","","","key","j","16.812504504504194","640","356","j","true","img/T_ambi40.png","三角","simultaneous",""
"","","","","","html-keyboard-response","242","558667","0.0-13.0-2.0-1.0-0.0-1.41","null","<span style='color:GreenYellow; font-size: 70px;'>正确! </span>","null","","","","","","","","","","","","","","","","","","","","","","","feedback_test"
"","","","","","psychophysics","243","560504","0.0-13.0-2.0-1.0-0.0-0.42","806","","f","","","","","","","","","","","","","key","f","16.658629629629473","640","356","f","true","img/T_ambi40.png","方形","simultaneous",""
"","","","","","html-keyboard-response","244","560819","0.0-13.0-2.0-1.0-0.0-1.42","null","<span style='color:GreenYellow; font-size: 70px;'>正确! </span>","null","","","","","","","","","","","","","","","","","","","","","","","feedback_test"
"","","","","","psychophysics","245","562561","0.0-13.0-2.0-1.0-0.0-0.43","735","","j","","","","","","","","","","","","","key","j","16.659796116505163","640","356","j","true","img/S_ambi40.png","方形","simultaneous",""
"","","","","","html-keyboard-response","246","562877","0.0-13.0-2.0-1.0-0.0-1.43","null","<span style='color:GreenYellow; font-size: 70px;'>正确! </span>","null","","","","","","","","","","","","","","","","","","","","","","","feedback_test"
"","","","","","psychophysics","247","564643","0.0-13.0-2.0-1.0-0.0-0.44","748","","f","","","","","","","","","","","","","key","f","16.65909523809484","640","356","f","true","img/S_ambi40.png","圆形","simultaneous",""
"","","","","","html-keyboard-response","248","564971","0.0-13.0-2.0-1.0-0.0-1.44","null","<span style='color:GreenYellow; font-size: 70px;'>正确! </span>","null","","","","","","","","","","","","","","","","","","","","","","","feedback_test"
"","","","","","psychophysics","249","566723","0.0-13.0-2.0-1.0-0.0-0.45","734","","j","","","","","","","","","","","","","key","j","16.655533980581573","640","356","j","true","img/S_ambi40.png","方形","simultaneous",""
"","","","","","html-keyboard-response","250","567040","0.0-13.0-2.0-1.0-0.0-1.45","null","<span style='color:GreenYellow; font-size: 70px;'>正确! </span>","null","","","","","","","","","","","","","","","","","","","","","","","feedback_test"
"","","","","","psychophysics","251","569185","0.0-13.0-2.0-1.0-0.0-0.46","1141","","f","","","","","","","","","","","","","key","f","17.059320000000298","640","356","f","true","img/S_ambi40.png","三角","simultaneous",""
"","","","","","html-keyboard-response","252","569502","0.0-13.0-2.0-1.0-0.0-1.46","null","<span style='color:GreenYellow; font-size: 70px;'>正确! </span>","null","","","","","","","","","","","","","","","","","","","","","","","feedback_test"
"","","","","","psychophysics","253","571273","0.0-13.0-2.0-1.0-0.0-0.47","768","","j","","","","","","","","","","","","","key","j","16.6551809523809","640","356","j","true","img/T_ambi40.png","三角","simultaneous",""
"","","","","","html-keyboard-response","254","571582","0.0-13.0-2.0-1.0-0.0-1.47","null","<span style='color:GreenYellow; font-size: 70px;'>正确! </span>","null","","","","","","","","","","","","","","","","","","","","","","","feedback_test"
"","","","","","psychophysics","255","574088","0.0-13.0-2.0-1.0-0.0-0.48","null","","null","","","","","","","","","","","","","key","null","16.65885234899325","640","356","f","false","img/C_ambi40.png","方形","simultaneous",""
"","","","","","html-keyboard-response","256","574411","0.0-13.0-2.0-1.0-0.0-1.48","null","<span class='add_' style='color:yellow; font-size: 70px;'> 太慢! </span>","null","","","","","","","","","","","","","","","","","","","","","","","feedback_test"
"","","","","","psychophysics","257","576529","0.0-13.0-2.0-1.0-0.0-0.49","1107","","f","","","","","","","","","","","","","key","f","16.659944000000134","640","356","f","true","img/C_ambi40.png","三角","simultaneous",""
"","","","","","html-keyboard-response","258","576847","0.0-13.0-2.0-1.0-0.0-1.49","null","<span style='color:GreenYellow; font-size: 70px;'>正确! </span>","null","","","","","","","","","","","","","","","","","","","","","","","feedback_test"
"","","","","","psychophysics","259","578935","0.0-13.0-2.0-1.0-0.0-0.50","1066","","f","","","","","","","","","","","","","key","f","16.658170731707923","640","356","f","true","img/T_ambi40.png","方形","simultaneous",""
"","","","","","html-keyboard-response","260","579247","0.0-13.0-2.0-1.0-0.0-1.50","null","<span style='color:GreenYellow; font-size: 70px;'>正确! </span>","null","","","","","","","","","","","","","","","","","","","","","","","feedback_test"
"","","","","","psychophysics","261","580945","0.0-13.0-2.0-1.0-0.0-0.51","690","","j","","","","","","","","","","","","","key","j","16.657339999999387","640","356","j","true","img/S_ambi40.png","方形","simultaneous",""
"","","","","","html-keyboard-response","262","581251","0.0-13.0-2.0-1.0-0.0-1.51","null","<span style='color:GreenYellow; font-size: 70px;'>正确! </span>","null","","","","","","","","","","","","","","","","","","","","","","","feedback_test"
"","","","","","psychophysics","263","583285","0.0-13.0-2.0-1.0-0.0-0.52","1018","","j","","","","","","","","","","","","","key","j","16.79809166666625","640","356","j","true","img/C_ambi40.png","圆形","simultaneous",""
"","","","","","html-keyboard-response","264","583596","0.0-13.0-2.0-1.0-0.0-1.52","null","<span style='color:GreenYellow; font-size: 70px;'>正确! </span>","null","","","","","","","","","","","","","","","","","","","","","","","feedback_test"
"","","","","","psychophysics","265","585557","0.0-13.0-2.0-1.0-0.0-0.53","948","","j","","","","","","","","","","","","","key","j","16.80719999999982","640","356","j","true","img/S_ambi40.png","方形","simultaneous",""
"","","","","","html-keyboard-response","266","585864","0.0-13.0-2.0-1.0-0.0-1.53","null","<span style='color:GreenYellow; font-size: 70px;'>正确! </span>","null","","","","","","","","","","","","","","","","","","","","","","","feedback_test"
"","","","","","psychophysics","267","587634","0.0-13.0-2.0-1.0-0.0-0.54","768","","j","","","","","","","","","","","","","key","j","16.989708737863534","640","356","j","true","img/T_ambi40.png","三角","simultaneous",""
"","","","","","html-keyboard-response","268","587954","0.0-13.0-2.0-1.0-0.0-1.54","null","<span style='color:GreenYellow; font-size: 70px;'>正确! </span>","null","","","","","","","","","","","","","","","","","","","","","","","feedback_test"
"","","","","","psychophysics","269","589665","0.0-13.0-2.0-1.0-0.0-0.55","706","","f","","","","","","","","","","","","","key","f","16.658534653465228","640","356","f","true","img/T_ambi40.png","圆形","simultaneous",""
"","","","","","html-keyboard-response","270","589977","0.0-13.0-2.0-1.0-0.0-1.55","null","<span style='color:GreenYellow; font-size: 70px;'>正确! </span>","null","","","","","","","","","","","","","","","","","","","","","","","feedback_test"
"","","","","","psychophysics","271","591739","0.0-13.0-2.0-1.0-0.0-0.56","733","","j","","","","","","","","","","","","","key","j","16.65617307692278","640","356","j","true","img/C_ambi40.png","圆形","simultaneous",""
"","","","","","html-keyboard-response","272","592048","0.0-13.0-2.0-1.0-0.0-1.56","null","<span style='color:GreenYellow; font-size: 70px;'>正确! </span>","null","","","","","","","","","","","","","","","","","","","","","","","feedback_test"
"","","","","","psychophysics","273","593877","0.0-13.0-2.0-1.0-0.0-0.57","813","","j","","","","","","","","","","","","","key","j","16.537750000000447","640","356","j","true","img/T_ambi40.png","三角","simultaneous",""
"","","","","","html-keyboard-response","274","594200","0.0-13.0-2.0-1.0-0.0-1.57","null","<span style='color:GreenYellow; font-size: 70px;'>正确! </span>","null","","","","","","","","","","","","","","","","","","","","","","","feedback_test"
"","","","","","psychophysics","275","595947","0.0-13.0-2.0-1.0-0.0-0.58","740","","f","","","","","","","","","","","","","key","f","16.6555436893199","640","356","f","true","img/S_ambi40.png","圆形","simultaneous",""
"","","","","","html-keyboard-response","276","596256","0.0-13.0-2.0-1.0-0.0-1.58","null","<span style='color:GreenYellow; font-size: 70px;'>正确! </span>","null","","","","","","","","","","","","","","","","","","","","","","","feedback_test"
"","","","","","psychophysics","277","598024","0.0-13.0-2.0-1.0-0.0-0.59","761","","f","","","","","","","","","","","","","key","f","16.6562788461541","640","356","f","true","img/S_ambi40.png","三角","simultaneous",""
"","","","","","html-keyboard-response","278","598345","0.0-13.0-2.0-1.0-0.0-1.59","null","<span style='color:GreenYellow; font-size: 70px;'>正确! </span>","null","","","","","","","","","","","","","","","","","","","","","","","feedback_test"
"","","","","","html-keyboard-response","279","600792","0.0-13.0-2.0-1.0-1.0","2441","<style>.context{color:white; font-size: 35px; line-height:40px}</style>                            <div><p class='context'>您正确回答了95% 的试次。</p><p class='context'>您的平均反应时为827毫秒。</p><p class='context'>请按任意键进入休息</p></div>"," ","","","","","","","","","","","","","","","","","","","","","","",""
"","","","","","html-button-response","280","661626","0.0-13.0-2.0-1.0-2.0","60831","
                    <p>您当前还剩余3组实验</p>
                    <p>现在是休息时间，当您结束休息后，您可以点击 结束休息 按钮 继续</p>
                    <p>建议休息时间还剩余<span id=""iii"">60</span>秒</p>","0","","","","","","","","","","","","","","","","","","","","","","",""
"","","","","","psychophysics","281","664132","0.0-13.0-2.0-1.0-0.1-0.60","null","","null","","","","","","","","","","","","","key","null","16.65943624161109","640","356","j","false","img/S_ambi40.png","方形","simultaneous",""
"","","","","","html-keyboard-response","282","664444","0.0-13.0-2.0-1.0-0.1-1.60","null","<span class='add_' style='color:yellow; font-size: 70px;'> 太慢! </span>","null","","","","","","","","","","","","","","","","","","","","","","","feedback_test"
"","","","","","psychophysics","283","666264","0.0-13.0-2.0-1.0-0.1-0.61","807","","f","","","","","","","","","","","","","key","f","16.69285185185166","640","356","f","true","img/C_ambi40.png","方形","simultaneous",""
"","","","","","html-keyboard-response","284","666577","0.0-13.0-2.0-1.0-0.1-1.61","null","<span style='color:GreenYellow; font-size: 70px;'>正确! </span>","null","","","","","","","","","","","","","","","","","","","","","","","feedback_test"
"","","","","","psychophysics","285","668677","0.0-13.0-2.0-1.0-0.1-0.62","1092","","f","","","","","","","","","","","","","key","f","16.659216000000015","640","356","f","true","img/T_ambi40.png","方形","simultaneous",""
"","","","","","html-keyboard-response","286","668981","0.0-13.0-2.0-1.0-0.1-1.62","null","<span style='color:GreenYellow; font-size: 70px;'>正确! </span>","null","","","","","","","","","","","","","","","","","","","","","","","feedback_test"
"","","","","","psychophysics","287","670644","0.0-13.0-2.0-1.0-0.1-0.63","658","","j","","","","","","","","","","","","","key","j","16.681552083333372","640","356","j","true","img/T_ambi40.png","三角","simultaneous",""
"","","","","","html-keyboard-response","288","670949","0.0-13.0-2.0-1.0-0.1-1.63","null","<span style='color:GreenYellow; font-size: 70px;'>正确! </span>","null","","","","","","","","","","","","","","","","","","","","","","","feedback_test"
"","","","","","psychophysics","289","672720","0.0-13.0-2.0-1.0-0.1-0.64","764","","f","","","","","","","","","","","","","key","f","16.65985576923077","640","356","f","true","img/S_ambi40.png","圆形","simultaneous",""
"","","","","","html-keyboard-response","290","673024","0.0-13.0-2.0-1.0-0.1-1.64","null","<span style='color:GreenYellow; font-size: 70px;'>正确! </span>","null","","","","","","","","","","","","","","","","","","","","","","","feedback_test"
"","","","","","psychophysics","291","674860","0.0-13.0-2.0-1.0-0.1-0.65","831","","j","","","","","","","","","","","","","key","j","16.81323584905641","640","356","j","true","img/C_ambi40.png","圆形","simultaneous",""
"","","","","","html-keyboard-response","292","675170","0.0-13.0-2.0-1.0-0.1-1.65","null","<span style='color:GreenYellow; font-size: 70px;'>正确! </span>","null","","","","","","","","","","","","","","","","","","","","","","","feedback_test"
"","","","","","psychophysics","293","676842","0.0-13.0-2.0-1.0-0.1-0.66","662","","f","","","","","","","","","","","","","key","f","17.004123711340448","640","356","f","true","img/S_ambi40.png","三角","simultaneous",""
"","","","","","html-keyboard-response","294","677156","0.0-13.0-2.0-1.0-0.1-1.66","null","<span style='color:GreenYellow; font-size: 70px;'>正确! </span>","null","","","","","","","","","","","","","","","","","","","","","","","feedback_test"
"","","","","","psychophysics","295","679267","0.0-13.0-2.0-1.0-0.1-0.67","1102","","j","","","","","","","","","","","","","key","j","16.790256000000053","640","356","j","true","img/T_ambi40.png","三角","simultaneous",""
"","","","","","html-keyboard-response","296","679583","0.0-13.0-2.0-1.0-0.1-1.67","null","<span style='color:GreenYellow; font-size: 70px;'>正确! </span>","null","","","","","","","","","","","","","","","","","","","","","","","feedback_test"
"","","","","","psychophysics","297","681224","0.0-13.0-2.0-1.0-0.1-0.68","638","","j","","","","","","","","","","","","","key","j","16.65909278350546","640","356","j","true","img/S_ambi40.png","方形","simultaneous",""
"","","","","","html-keyboard-response","298","681539","0.0-13.0-2.0-1.0-0.1-1.68","null","<span style='color:GreenYellow; font-size: 70px;'>正确! </span>","null","","","","","","","","","","","","","","","","","","","","","","","feedback_test"
"","","","","","psychophysics","299","683189","0.0-13.0-2.0-1.0-0.1-0.69","638","","f","","","","","","","","","","","","","key","f","17.00605208333339","640","356","f","true","img/T_ambi40.png","圆形","simultaneous",""
"","","","","","html-keyboard-response","300","683505","0.0-13.0-2.0-1.0-0.1-1.69","null","<span style='color:GreenYellow; font-size: 70px;'>正确! </span>","null","","","","","","","","","","","","","","","","","","","","","","","feedback_test"
"","","","","","psychophysics","301","685139","0.0-13.0-2.0-1.0-0.1-0.70","617","","j","","","","","","","","","","","","","key","j","16.656639175256714","640","356","j","true","img/C_ambi40.png","圆形","simultaneous",""
"","","","","","html-keyboard-response","302","685454","0.0-13.0-2.0-1.0-0.1-1.70","null","<span style='color:GreenYellow; font-size: 70px;'>正确! </span>","null","","","","","","","","","","","","","","","","","","","","","","","feedback_test"
"","","","","","psychophysics","303","687134","0.0-13.0-2.0-1.0-0.1-0.71","663","","f","","","","","","","","","","","","","key","f","16.658680000000167","640","356","f","true","img/C_ambi40.png","三角","simultaneous",""
"","","","","","html-keyboard-response","304","687444","0.0-13.0-2.0-1.0-0.1-1.71","null","<span style='color:GreenYellow; font-size: 70px;'>正确! </span>","null","","","","","","","","","","","","","","","","","","","","","","","feedback_test"
"","","","","","psychophysics","305","689402","0.0-13.0-2.0-1.0-0.1-0.72","947","","f","","","","","","","","","","","","","key","f","16.685278260869826","640","356","f","true","img/S_ambi40.png","圆形","simultaneous",""
"","","","","","html-keyboard-response","306","689718","0.0-13.0-2.0-1.0-0.1-1.72","null","<span style='color:GreenYellow; font-size: 70px;'>正确! </span>","null","","","","","","","","","","","","","","","","","","","","","","","feedback_test"
"","","","","","psychophysics","307","691647","0.0-13.0-2.0-1.0-0.1-0.73","926","","f","","","","","","","","","","","","","key","f","16.661798245613586","640","356","f","true","img/C_ambi40.png","方形","simultaneous",""
"","","","","","html-keyboard-response","308","691966","0.0-13.0-2.0-1.0-0.1-1.73","null","<span style='color:GreenYellow; font-size: 70px;'>正确! </span>","null","","","","","","","","","","","","","","","","","","","","","","","feedback_test"
"","","","","","psychophysics","309","693606","0.0-13.0-2.0-1.0-0.1-0.74","621","","j","","","","","","","","","","","","","key","j","16.662164948454617","640","356","f","false","img/C_ambi40.png","三角","simultaneous",""
"","","","","","html-keyboard-response","310","693933","0.0-13.0-2.0-1.0-0.1-1.74","null","<span style='color:red; font-size: 70px;'>错误! </span>","null","","","","","","","","","","","","","","","","","","","","","","","feedback_test"
"","","","","","psychophysics","311","695733","0.0-13.0-2.0-1.0-0.1-0.75","790","","f","","","","","","","","","","","","","key","f","16.65818691588764","640","356","f","true","img/T_ambi40.png","方形","simultaneous",""
"","","","","","html-keyboard-response","312","696048","0.0-13.0-2.0-1.0-0.1-1.75","null","<span style='color:GreenYellow; font-size: 70px;'>正确! </span>","null","","","","","","","","","","","","","","","","","","","","","","","feedback_test"
"","","","","","psychophysics","313","697799","0.0-13.0-2.0-1.0-0.1-0.76","746","","j","","","","","","","","","","","","","key","j","16.658115384614437","640","356","j","true","img/T_ambi40.png","三角","simultaneous",""
"","","","","","html-keyboard-response","314","698114","0.0-13.0-2.0-1.0-0.1-1.76","null","<span style='color:GreenYellow; font-size: 70px;'>正确! </span>","null","","","","","","","","","","","","","","","","","","","","","","","feedback_test"
"","","","","","psychophysics","315","699858","0.0-13.0-2.0-1.0-0.1-0.77","730","","j","","","","","","","","","","","","","key","j","16.69828155339872","640","356","j","true","img/S_ambi40.png","方形","simultaneous",""
"","","","","","html-keyboard-response","316","700165","0.0-13.0-2.0-1.0-0.1-1.77","null","<span style='color:GreenYellow; font-size: 70px;'>正确! </span>","null","","","","","","","","","","","","","","","","","","","","","","","feedback_test"
"","","","","","psychophysics","317","701887","0.0-13.0-2.0-1.0-0.1-0.78","705","","j","","","","","","","","","","","","","key","j","16.66151960784405","640","356","j","true","img/S_ambi40.png","方形","simultaneous",""
"","","","","","html-keyboard-response","318","702215","0.0-13.0-2.0-1.0-0.1-1.78","null","<span style='color:GreenYellow; font-size: 70px;'>正确! </span>","null","","","","","","","","","","","","","","","","","","","","","","","feedback_test"
"","","","","","psychophysics","319","704028","0.0-13.0-2.0-1.0-0.1-0.79","791","","f","","","","","","","","","","","","","key","f","16.821556603773235","640","356","f","true","img/S_ambi40.png","三角","simultaneous",""
"","","","","","html-keyboard-response","320","704339","0.0-13.0-2.0-1.0-0.1-1.79","null","<span style='color:GreenYellow; font-size: 70px;'>正确! </span>","null","","","","","","","","","","","","","","","","","","","","","","","feedback_test"
"","","","","","psychophysics","321","706022","0.0-13.0-2.0-1.0-0.1-0.80","678","","j","","","","","","","","","","","","","key","j","16.663090909091576","640","356","j","true","img/T_ambi40.png","三角","simultaneous",""
"","","","","","html-keyboard-response","322","706337","0.0-13.0-2.0-1.0-0.1-1.80","null","<span style='color:GreenYellow; font-size: 70px;'>正确! </span>","null","","","","","","","","","","","","","","","","","","","","","","","feedback_test"
"","","","","","psychophysics","323","707978","0.0-13.0-2.0-1.0-0.1-0.81","632","","j","","","","","","","","","","","","","key","j","16.65459793814477","640","356","j","true","img/C_ambi40.png","圆形","simultaneous",""
"","","","","","html-keyboard-response","324","708293","0.0-13.0-2.0-1.0-0.1-1.81","null","<span style='color:GreenYellow; font-size: 70px;'>正确! </span>","null","","","","","","","","","","","","","","","","","","","","","","","feedback_test"
"","","","","","psychophysics","325","709984","0.0-13.0-2.0-1.0-0.1-0.82","678","","j","","","","","","","","","","","","","key","j","16.66185999999987","640","356","j","true","img/C_ambi40.png","圆形","simultaneous",""
"","","","","","html-keyboard-response","326","710295","0.0-13.0-2.0-1.0-0.1-1.82","null","<span style='color:GreenYellow; font-size: 70px;'>正确! </span>","null","","","","","","","","","","","","","","","","","","","","","","","feedback_test"
"","","","","","psychophysics","327","712226","0.0-13.0-2.0-1.0-0.1-0.83","928","","f","","","","","","","","","","","","","key","f","16.710808695652318","640","356","f","true","img/T_ambi40.png","圆形","simultaneous",""
"","","","","","html-keyboard-response","328","712547","0.0-13.0-2.0-1.0-0.1-1.83","null","<span style='color:GreenYellow; font-size: 70px;'>正确! </span>","null","","","","","","","","","","","","","","","","","","","","","","","feedback_test"
"","","","","","psychophysics","329","714293","0.0-13.0-2.0-1.0-0.1-0.84","735","","j","","","","","","","","","","","","","key","j","16.618048543689177","640","356","j","true","img/T_ambi40.png","三角","simultaneous",""
"","","","","","html-keyboard-response","330","714609","0.0-13.0-2.0-1.0-0.1-1.84","null","<span style='color:GreenYellow; font-size: 70px;'>正确! </span>","null","","","","","","","","","","","","","","","","","","","","","","","feedback_test"
"","","","","","psychophysics","331","716377","0.0-13.0-2.0-1.0-0.1-0.85","757","","j","","","","","","","","","","","","","key","j","16.65953333333268","640","356","j","true","img/S_ambi40.png","方形","simultaneous",""
"","","","","","html-keyboard-response","332","716684","0.0-13.0-2.0-1.0-0.1-1.85","null","<span style='color:GreenYellow; font-size: 70px;'>正确! </span>","null","","","","","","","","","","","","","","","","","","","","","","","feedback_test"
"","","","","","psychophysics","333","718458","0.0-13.0-2.0-1.0-0.1-0.86","773","","f","","","","","","","","","","","","","key","f","16.662259615384617","640","356","f","true","img/T_ambi40.png","圆形","simultaneous",""
"","","","","","html-keyboard-response","334","718768","0.0-13.0-2.0-1.0-0.1-1.86","null","<span style='color:GreenYellow; font-size: 70px;'>正确! </span>","null","","","","","","","","","","","","","","","","","","","","","","","feedback_test"
"","","","","","psychophysics","335","720566","0.0-13.0-2.0-1.0-0.1-0.87","793","","f","","","","","","","","","","","","","key","f","16.65609345794438","640","356","f","true","img/S_ambi40.png","圆形","simultaneous",""
"","","","","","html-keyboard-response","336","720884","0.0-13.0-2.0-1.0-0.1-1.87","null","<span style='color:GreenYellow; font-size: 70px;'>正确! </span>","null","","","","","","","","","","","","","","","","","","","","","","","feedback_test"
"","","","","","psychophysics","337","722624","0.0-13.0-2.0-1.0-0.1-0.88","737","","j","","","","","","","","","","","","","key","j","16.654495145630506","640","356","j","true","img/C_ambi40.png","圆形","simultaneous",""
"","","","","","html-keyboard-response","338","722943","0.0-13.0-2.0-1.0-0.1-1.88","null","<span style='color:GreenYellow; font-size: 70px;'>正确! </span>","null","","","","","","","","","","","","","","","","","","","","","","","feedback_test"
"","","","","","psychophysics","339","724764","0.0-13.0-2.0-1.0-0.1-0.89","816","","j","","","","","","","","","","","","","key","j","16.65950467289756","640","356","j","true","img/T_ambi40.png","三角","simultaneous",""
"","","","","","html-keyboard-response","340","725080","0.0-13.0-2.0-1.0-0.1-1.89","null","<span style='color:GreenYellow; font-size: 70px;'>正确! </span>","null","","","","","","","","","","","","","","","","","","","","","","","feedback_test"
"","","","","","psychophysics","341","726921","0.0-13.0-2.0-1.0-0.1-0.90","834","","f","","","","","","","","","","","","","key","f","16.638724770641527","640","356","f","true","img/T_ambi40.png","方形","simultaneous",""
"","","","","","html-keyboard-response","342","727229","0.0-13.0-2.0-1.0-0.1-1.90","null","<span style='color:GreenYellow; font-size: 70px;'>正确! </span>","null","","","","","","","","","","","","","","","","","","","","","","","feedback_test"
"","","","","","psychophysics","343","728887","0.0-13.0-2.0-1.0-0.1-0.91","654","","f","","","","","","","","","","","","","key","f","16.70453061224484","640","356","f","true","img/S_ambi40.png","三角","simultaneous",""
"","","","","","html-keyboard-response","344","729215","0.0-13.0-2.0-1.0-0.1-1.91","null","<span style='color:GreenYellow; font-size: 70px;'>正确! </span>","null","","","","","","","","","","","","","","","","","","","","","","","feedback_test"
"","","","","","psychophysics","345","731118","0.0-13.0-2.0-1.0-0.1-0.92","897","","f","","","","","","","","","","","","","key","f","16.65967256637224","640","356","f","true","img/C_ambi40.png","三角","simultaneous",""
"","","","","","html-keyboard-response","346","731428","0.0-13.0-2.0-1.0-0.1-1.92","null","<span style='color:GreenYellow; font-size: 70px;'>正确! </span>","null","","","","","","","","","","","","","","","","","","","","","","","feedback_test"
"","","","","","psychophysics","347","733163","0.0-13.0-2.0-1.0-0.1-0.93","724","","j","","","","","","","","","","","","","key","j","16.659176470587422","640","356","j","true","img/C_ambi40.png","圆形","simultaneous",""
"","","","","","html-keyboard-response","348","733473","0.0-13.0-2.0-1.0-0.1-1.93","null","<span style='color:GreenYellow; font-size: 70px;'>正确! </span>","null","","","","","","","","","","","","","","","","","","","","","","","feedback_test"
"","","","","","psychophysics","349","735130","0.0-13.0-2.0-1.0-0.1-0.94","654","","j","","","","","","","","","","","","","key","j","16.65978571428556","640","356","j","true","img/S_ambi40.png","方形","simultaneous",""
"","","","","","html-keyboard-response","350","735444","0.0-13.0-2.0-1.0-0.1-1.94","null","<span style='color:GreenYellow; font-size: 70px;'>正确! </span>","null","","","","","","","","","","","","","","","","","","","","","","","feedback_test"
"","","","","","psychophysics","351","737398","0.0-13.0-2.0-1.0-0.1-0.95","939","","j","","","","","","","","","","","","","key","j","16.65910344827591","640","356","f","false","img/C_ambi40.png","方形","simultaneous",""
"","","","","","html-keyboard-response","352","737710","0.0-13.0-2.0-1.0-0.1-1.95","null","<span style='color:red; font-size: 70px;'>错误! </span>","null","","","","","","","","","","","","","","","","","","","","","","","feedback_test"
"","","","","","psychophysics","353","739647","0.0-13.0-2.0-1.0-0.1-0.96","934","","j","","","","","","","","","","","","","key","j","16.683652173913003","640","356","j","true","img/C_ambi40.png","圆形","simultaneous",""
"","","","","","html-keyboard-response","354","739958","0.0-13.0-2.0-1.0-0.1-1.96","null","<span style='color:GreenYellow; font-size: 70px;'>正确! </span>","null","","","","","","","","","","","","","","","","","","","","","","","feedback_test"
"","","","","","psychophysics","355","741815","0.0-13.0-2.0-1.0-0.1-0.97","851","","f","","","","","","","","","","","","","key","f","16.660900000000204","640","356","f","true","img/S_ambi40.png","圆形","simultaneous",""
"","","","","","html-keyboard-response","356","742126","0.0-13.0-2.0-1.0-0.1-1.97","null","<span style='color:GreenYellow; font-size: 70px;'>正确! </span>","null","","","","","","","","","","","","","","","","","","","","","","","feedback_test"
"","","","","","psychophysics","357","743925","0.0-13.0-2.0-1.0-0.1-0.98","793","","f","","","","","","","","","","","","","key","f","16.659299065419866","640","356","f","true","img/C_ambi40.png","方形","simultaneous",""
"","","","","","html-keyboard-response","358","744241","0.0-13.0-2.0-1.0-0.1-1.98","null","<span style='color:GreenYellow; font-size: 70px;'>正确! </span>","null","","","","","","","","","","","","","","","","","","","","","","","feedback_test"
"","","","","","psychophysics","359","746026","0.0-13.0-2.0-1.0-0.1-0.99","780","","f","","","","","","","","","","","","","key","f","16.650499999999806","640","356","f","true","img/T_ambi40.png","圆形","simultaneous",""
"","","","","","html-keyboard-response","360","746338","0.0-13.0-2.0-1.0-0.1-1.99","null","<span style='color:GreenYellow; font-size: 70px;'>正确! </span>","null","","","","","","","","","","","","","","","","","","","","","","","feedback_test"
"","","","","","psychophysics","361","748168","0.0-13.0-2.0-1.0-0.1-0.100","810","","j","","","","","","","","","","","","","key","j","16.659574074074584","640","356","j","true","img/C_ambi40.png","圆形","simultaneous",""
"","","","","","html-keyboard-response","362","748476","0.0-13.0-2.0-1.0-0.1-1.100","null","<span style='color:GreenYellow; font-size: 70px;'>正确! </span>","null","","","","","","","","","","","","","","","","","","","","","","","feedback_test"
"","","","","","psychophysics","363","750339","0.0-13.0-2.0-1.0-0.1-0.101","854","","f","","","","","","","","","","","","","key","f","16.836128440366227","640","356","j","false","img/T_ambi40.png","三角","simultaneous",""
"","","","","","html-keyboard-response","364","750653","0.0-13.0-2.0-1.0-0.1-1.101","null","<span style='color:red; font-size: 70px;'>错误! </span>","null","","","","","","","","","","","","","","","","","","","","","","","feedback_test"
"","","","","","psychophysics","365","752382","0.0-13.0-2.0-1.0-0.1-0.102","711","","j","","","","","","","","","","","","","key","j","16.659188118811677","640","356","j","true","img/S_ambi40.png","方形","simultaneous",""
"","","","","","html-keyboard-response","366","752694","0.0-13.0-2.0-1.0-0.1-1.102","null","<span style='color:GreenYellow; font-size: 70px;'>正确! </span>","null","","","","","","","","","","","","","","","","","","","","","","","feedback_test"
"","","","","","psychophysics","367","754475","0.0-13.0-2.0-1.0-0.1-0.103","748","","j","","","","","","","","","","","","","key","j","16.657276190475873","640","356","j","true","img/S_ambi40.png","方形","simultaneous",""
"","","","","","html-keyboard-response","368","754792","0.0-13.0-2.0-1.0-0.1-1.103","null","<span style='color:GreenYellow; font-size: 70px;'>正确! </span>","null","","","","","","","","","","","","","","","","","","","","","","","feedback_test"
"","","","","","psychophysics","369","756439","0.0-13.0-2.0-1.0-0.1-0.104","643","","j","","","","","","","","","","","","","key","j","16.65074226804097","640","356","j","true","img/T_ambi40.png","三角","simultaneous",""
"","","","","","html-keyboard-response","370","756754","0.0-13.0-2.0-1.0-0.1-1.104","null","<span style='color:GreenYellow; font-size: 70px;'>正确! </span>","null","","","","","","","","","","","","","","","","","","","","","","","feedback_test"
"","","","","","psychophysics","371","758486","0.0-13.0-2.0-1.0-0.1-0.105","720","","f","","","","","","","","","","","","","key","f","16.65874757281577","640","356","f","true","img/T_ambi40.png","方形","simultaneous",""
"","","","","","html-keyboard-response","372","758792","0.0-13.0-2.0-1.0-0.1-1.105","null","<span style='color:GreenYellow; font-size: 70px;'>正确! </span>","null","","","","","","","","","","","","","","","","","","","","","","","feedback_test"
"","","","","","psychophysics","373","760583","0.0-13.0-2.0-1.0-0.1-0.106","777","","f","","","","","","","","","","","","","key","f","16.65091428571447","640","356","f","true","img/S_ambi40.png","三角","simultaneous",""
"","","","","","html-keyboard-response","374","760892","0.0-13.0-2.0-1.0-0.1-1.106","null","<span style='color:GreenYellow; font-size: 70px;'>正确! </span>","null","","","","","","","","","","","","","","","","","","","","","","","feedback_test"
"","","","","","psychophysics","375","762682","0.0-13.0-2.0-1.0-0.1-0.107","782","","f","","","","","","","","","","","","","key","f","17.148117647058896","640","356","f","true","img/C_ambi40.png","三角","simultaneous",""
"","","","","","html-keyboard-response","376","762994","0.0-13.0-2.0-1.0-0.1-1.107","null","<span style='color:GreenYellow; font-size: 70px;'>正确! </span>","null","","","","","","","","","","","","","","","","","","","","","","","feedback_test"
"","","","","","psychophysics","377","764668","0.0-13.0-2.0-1.0-0.1-0.108","662","","j","","","","","","","","","","","","","key","j","16.658515463918015","640","356","j","true","img/S_ambi40.png","方形","simultaneous",""
"","","","","","html-keyboard-response","378","764982","0.0-13.0-2.0-1.0-0.1-1.108","null","<span style='color:GreenYellow; font-size: 70px;'>正确! </span>","null","","","","","","","","","","","","","","","","","","","","","","","feedback_test"
"","","","","","psychophysics","379","766910","0.0-13.0-2.0-1.0-0.1-0.109","923","","f","","","","","","","","","","","","","key","f","16.656228070175928","640","356","f","true","img/S_ambi40.png","圆形","simultaneous",""
"","","","","","html-keyboard-response","380","767220","0.0-13.0-2.0-1.0-0.1-1.109","null","<span style='color:GreenYellow; font-size: 70px;'>正确! </span>","null","","","","","","","","","","","","","","","","","","","","","","","feedback_test"
"","","","","","psychophysics","381","769048","0.0-13.0-2.0-1.0-0.1-0.110","822","","f","","","","","","","","","","","","","key","f","16.659583333333202","640","356","f","true","img/C_ambi40.png","三角","simultaneous",""
"","","","","","html-keyboard-response","382","769357","0.0-13.0-2.0-1.0-0.1-1.110","null","<span style='color:GreenYellow; font-size: 70px;'>正确! </span>","null","","","","","","","","","","","","","","","","","","","","","","","feedback_test"
"","","","","","psychophysics","383","771290","0.0-13.0-2.0-1.0-0.1-0.111","926","","f","","","","","","","","","","","","","key","f","16.662236842105223","640","356","f","true","img/C_ambi40.png","方形","simultaneous",""
"","","","","","html-keyboard-response","384","771601","0.0-13.0-2.0-1.0-0.1-1.111","null","<span style='color:GreenYellow; font-size: 70px;'>正确! </span>","null","","","","","","","","","","","","","","","","","","","","","","","feedback_test"
"","","","","","psychophysics","385","773399","0.0-13.0-2.0-1.0-0.1-0.112","793","","j","","","","","","","","","","","","","key","j","16.69435238095244","640","356","j","true","img/S_ambi40.png","方形","simultaneous",""
"","","","","","html-keyboard-response","386","773703","0.0-13.0-2.0-1.0-0.1-1.112","null","<span style='color:GreenYellow; font-size: 70px;'>正确! </span>","null","","","","","","","","","","","","","","","","","","","","","","","feedback_test"
"","","","","","psychophysics","387","775663","0.0-13.0-2.0-1.0-0.1-0.113","957","","j","","","","","","","","","","","","","key","j","16.658669565217163","640","356","j","true","img/C_ambi40.png","圆形","simultaneous",""
"","","","","","html-keyboard-response","388","775994","0.0-13.0-2.0-1.0-0.1-1.113","null","<span style='color:GreenYellow; font-size: 70px;'>正确! </span>","null","","","","","","","","","","","","","","","","","","","","","","","feedback_test"
"","","","","","psychophysics","389","777847","0.0-13.0-2.0-1.0-0.1-0.114","825","","f","","","","","","","","","","","","","key","f","16.695472727272534","640","356","f","true","img/T_ambi40.png","圆形","simultaneous",""
"","","","","","html-keyboard-response","390","778166","0.0-13.0-2.0-1.0-0.1-1.114","null","<span style='color:GreenYellow; font-size: 70px;'>正确! </span>","null","","","","","","","","","","","","","","","","","","","","","","","feedback_test"
"","","","","","psychophysics","391","779902","0.0-13.0-2.0-1.0-0.1-0.115","720","","j","","","","","","","","","","","","","key","j","16.82325742574349","640","356","j","true","img/C_ambi40.png","圆形","simultaneous",""
"","","","","","html-keyboard-response","392","780210","0.0-13.0-2.0-1.0-0.1-1.115","null","<span style='color:GreenYellow; font-size: 70px;'>正确! </span>","null","","","","","","","","","","","","","","","","","","","","","","","feedback_test"
"","","","","","psychophysics","393","781976","0.0-13.0-2.0-1.0-0.1-0.116","755","","f","","","","","","","","","","","","","key","f","16.818750000000225","640","356","f","true","img/T_ambi40.png","方形","simultaneous",""
"","","","","","html-keyboard-response","394","782289","0.0-13.0-2.0-1.0-0.1-1.116","null","<span style='color:GreenYellow; font-size: 70px;'>正确! </span>","null","","","","","","","","","","","","","","","","","","","","","","","feedback_test"
"","","","","","psychophysics","395","784220","0.0-13.0-2.0-1.0-0.1-0.117","916","","j","","","","","","","","","","","","","key","j","16.80260176991166","640","356","j","true","img/T_ambi40.png","三角","simultaneous",""
"","","","","","html-keyboard-response","396","784526","0.0-13.0-2.0-1.0-0.1-1.117","null","<span style='color:GreenYellow; font-size: 70px;'>正确! </span>","null","","","","","","","","","","","","","","","","","","","","","","","feedback_test"
"","","","","","psychophysics","397","786283","0.0-13.0-2.0-1.0-0.1-0.118","744","","j","","","","","","","","","","","","","key","j","16.99369306930705","640","356","j","true","img/T_ambi40.png","三角","simultaneous",""
"","","","","","html-keyboard-response","398","786600","0.0-13.0-2.0-1.0-0.1-1.118","null","<span style='color:GreenYellow; font-size: 70px;'>正确! </span>","null","","","","","","","","","","","","","","","","","","","","","","","feedback_test"
"","","","","","psychophysics","399","788349","0.0-13.0-2.0-1.0-0.1-0.119","746","","f","","","","","","","","","","","","","key","f","16.659174757281733","640","356","f","true","img/S_ambi40.png","三角","simultaneous",""
"","","","","","html-keyboard-response","400","788656","0.0-13.0-2.0-1.0-0.1-1.119","null","<span style='color:GreenYellow; font-size: 70px;'>正确! </span>","null","","","","","","","","","","","","","","","","","","","","","","","feedback_test"
"","","","","","html-keyboard-response","401","790504","0.0-13.0-2.0-1.0-1.1","1845","<style>.context{color:white; font-size: 35px; line-height:40px}</style>                            <div><p class='context'>您正确回答了93% 的试次。</p><p class='context'>您的平均反应时为781毫秒。</p><p class='context'>请按任意键进入休息</p></div>"," ","","","","","","","","","","","","","","","","","","","","","","",""
"","","","","","html-button-response","402","842475","0.0-13.0-2.0-1.0-2.1","51967","
                    <p>您当前还剩余2组实验</p>
                    <p>现在是休息时间，当您结束休息后，您可以点击 结束休息 按钮 继续</p>
                    <p>建议休息时间还剩余<span id=""iii"">60</span>秒</p>","0","","","","","","","","","","","","","","","","","","","","","","",""
"","","","","","psychophysics","403","844293","0.0-13.0-2.0-1.0-0.2-0.120","814","","j","","","","","","","","","","","","","key","j","16.65737383177604","640","356","j","true","img/C_ambi40.png","圆形","simultaneous",""
"","","","","","html-keyboard-response","404","844614","0.0-13.0-2.0-1.0-0.2-1.120","null","<span style='color:GreenYellow; font-size: 70px;'>正确! </span>","null","","","","","","","","","","","","","","","","","","","","","","","feedback_test"
"","","","","","psychophysics","405","846324","0.0-13.0-2.0-1.0-0.2-0.121","703","","f","","","","","","","","","","","","","key","f","16.66752475247451","640","356","f","true","img/S_ambi40.png","圆形","simultaneous",""
"","","","","","html-keyboard-response","406","846637","0.0-13.0-2.0-1.0-0.2-1.121","null","<span style='color:GreenYellow; font-size: 70px;'>正确! </span>","null","","","","","","","","","","","","","","","","","","","","","","","feedback_test"
"","","","","","psychophysics","407","848362","0.0-13.0-2.0-1.0-0.2-0.122","704","","f","","","","","","","","","","","","","key","f","16.66957425742553","640","356","f","true","img/S_ambi40.png","三角","simultaneous",""
"","","","","","html-keyboard-response","408","848670","0.0-13.0-2.0-1.0-0.2-1.122","null","<span style='color:GreenYellow; font-size: 70px;'>正确! </span>","null","","","","","","","","","","","","","","","","","","","","","","","feedback_test"
"","","","","","psychophysics","409","850461","0.0-13.0-2.0-1.0-0.2-0.123","778","","j","","","","","","","","","","","","","key","j","16.658409523809816","640","356","j","true","img/T_ambi40.png","三角","simultaneous",""
"","","","","","html-keyboard-response","410","850770","0.0-13.0-2.0-1.0-0.2-1.123","null","<span style='color:GreenYellow; font-size: 70px;'>正确! </span>","null","","","","","","","","","","","","","","","","","","","","","","","feedback_test"
"","","","","","psychophysics","411","852386","0.0-13.0-2.0-1.0-0.2-0.124","611","","j","","","","","","","","","","","","","key","j","16.657000000000455","640","356","j","true","img/S_ambi40.png","方形","simultaneous",""
"","","","","","html-keyboard-response","412","852695","0.0-13.0-2.0-1.0-0.2-1.124","null","<span style='color:GreenYellow; font-size: 70px;'>正确! </span>","null","","","","","","","","","","","","","","","","","","","","","","","feedback_test"
"","","","","","psychophysics","413","854566","0.0-13.0-2.0-1.0-0.2-0.125","864","","f","","","","","","","","","","","","","key","f","16.662045045044728","640","356","f","true","img/C_ambi40.png","方形","simultaneous",""
"","","","","","html-keyboard-response","414","854886","0.0-13.0-2.0-1.0-0.2-1.125","null","<span style='color:GreenYellow; font-size: 70px;'>正确! </span>","null","","","","","","","","","","","","","","","","","","","","","","","feedback_test"
"","","","","","psychophysics","415","856641","0.0-13.0-2.0-1.0-0.2-0.126","747","","j","","","","","","","","","","","","","key","j","16.655403846153952","640","356","j","true","img/C_ambi40.png","圆形","simultaneous",""
"","","","","","html-keyboard-response","416","856949","0.0-13.0-2.0-1.0-0.2-1.126","null","<span style='color:GreenYellow; font-size: 70px;'>正确! </span>","null","","","","","","","","","","","","","","","","","","","","","","","feedback_test"
"","","","","","psychophysics","417","858702","0.0-13.0-2.0-1.0-0.2-0.127","727","","f","","","","","","","","","","","","","key","f","16.659271844660466","640","356","f","true","img/C_ambi40.png","三角","simultaneous",""
"","","","","","html-keyboard-response","418","859014","0.0-13.0-2.0-1.0-0.2-1.127","null","<span style='color:GreenYellow; font-size: 70px;'>正确! </span>","null","","","","","","","","","","","","","","","","","","","","","","","feedback_test"
"","","","","","psychophysics","419","860785","0.0-13.0-2.0-1.0-0.2-0.128","767","","j","","","","","","","","","","","","","key","j","16.6536857142856","640","356","j","true","img/S_ambi40.png","方形","simultaneous",""
"","","","","","html-keyboard-response","420","861091","0.0-13.0-2.0-1.0-0.2-1.128","null","<span style='color:GreenYellow; font-size: 70px;'>正确! </span>","null","","","","","","","","","","","","","","","","","","","","","","","feedback_test"
"","","","","","psychophysics","421","862839","0.0-13.0-2.0-1.0-0.2-0.129","737","","f","","","","","","","","","","","","","key","f","16.65920192307609","640","356","f","true","img/T_ambi40.png","方形","simultaneous",""
"","","","","","html-keyboard-response","422","863145","0.0-13.0-2.0-1.0-0.2-1.129","null","<span style='color:GreenYellow; font-size: 70px;'>正确! </span>","null","","","","","","","","","","","","","","","","","","","","","","","feedback_test"
"","","","","","psychophysics","423","864830","0.0-13.0-2.0-1.0-0.2-0.130","679","","j","","","","","","","","","","","","","key","j","16.670464646465128","640","356","j","true","img/T_ambi40.png","三角","simultaneous",""
"","","","","","html-keyboard-response","424","865135","0.0-13.0-2.0-1.0-0.2-1.130","null","<span style='color:GreenYellow; font-size: 70px;'>正确! </span>","null","","","","","","","","","","","","","","","","","","","","","","","feedback_test"
"","","","","","psychophysics","425","866781","0.0-13.0-2.0-1.0-0.2-0.131","639","","f","","","","","","","","","","","","","key","f","16.658989795918423","640","356","f","true","img/T_ambi40.png","圆形","simultaneous",""
"","","","","","html-keyboard-response","426","867093","0.0-13.0-2.0-1.0-0.2-1.131","null","<span style='color:GreenYellow; font-size: 70px;'>正确! </span>","null","","","","","","","","","","","","","","","","","","","","","","","feedback_test"
"","","","","","psychophysics","427","868821","0.0-13.0-2.0-1.0-0.2-0.132","722","","j","","","","","","","","","","","","","key","j","16.660411764706677","640","356","j","true","img/T_ambi40.png","三角","simultaneous",""
"","","","","","html-keyboard-response","428","869136","0.0-13.0-2.0-1.0-0.2-1.132","null","<span style='color:GreenYellow; font-size: 70px;'>正确! </span>","null","","","","","","","","","","","","","","","","","","","","","","","feedback_test"
"","","","","","psychophysics","429","870834","0.0-13.0-2.0-1.0-0.2-0.133","687","","f","","","","","","","","","","","","","key","f","16.658920792078987","640","356","f","true","img/T_ambi40.png","圆形","simultaneous",""
"","","","","","html-keyboard-response","430","871151","0.0-13.0-2.0-1.0-0.2-1.133","null","<span style='color:GreenYellow; font-size: 70px;'>正确! </span>","null","","","","","","","","","","","","","","","","","","","","","","","feedback_test"
"","","","","","psychophysics","431","872957","0.0-13.0-2.0-1.0-0.2-0.134","796","","j","","","","","","","","","","","","","key","j","16.660878504673235","640","356","j","true","img/C_ambi40.png","圆形","simultaneous",""
