"success","timeout","failed_images","failed_audio","failed_video","trial_type","trial_index","time_elapsed","internal_node_id","rt","stimulus","response","value","item_width_mm","item_height_mm","item_width_px","px2mm","view_dist_mm","item_width_deg","px2deg","scale_factor","win_width_deg","win_height_deg","view_history","response_type","key_press","avg_frame_time","center_x","center_y","correct_response","correct","Image","word","condition","screen_id"
"true","false","[]","[]","[]","preload","0","36652","0.0-0.0","","","","","","","","","","","","","","","","","","","","","","","","","",""
"","","","","","html-keyboard-response","1","45782","0.0-1.0","9128","
   <p>您好，欢迎参加本次实验。</p>
   <p>为充分保障您的权利，请确保您已经知晓并同意《参与实验同意书》以及《数据公开知情同意书》。</p>
   <p>如果您未见过上述内容，请咨询实验员。</p>
   <p>如果您选择继续实验，则表示您已经清楚两份知情同意书的内容并同意。</p>
   <p> <div style = ""color: green""><按任意键至下页></div> </p>
   "," ","","","","","","","","","","","","","","","","","","","","","","",""
"","","","","","html-keyboard-response","2","48249","0.0-2.0","2467","
   <p>本实验首先需要您填写一些基本个人信息。</p>
   <p> <div style = ""color: green""><按任意键至下页></div></p>
   "," ","","","","","","","","","","","","","","","","","","","","","","",""
"","","","","","call-function","3","48250","0.0-3.0-0.0","","","","","","","","","","","","","","","","","","","","","","","","","",""
"","","","","","survey-html-form","4","54665","0.0-3.0-1.0","6412","","{""Q0"":""37""}","","","","","","","","","","","","","","","","","","","","","","",""
"","","","","","html-button-response","5","55725","0.0-3.0-2.0","1058","<p style = 'color : white'>您的性别</p>","1","","","","","","","","","","","","","","","","","","","","","","",""
"","","","","","survey-html-form","6","61427","0.0-3.0-3.0","5701","","{""Q0"":""2000""}","","","","","","","","","","","","","","","","","","","","","","",""
"","","","","","survey-html-form","7","68672","0.0-3.0-4.0","7243","","{""Q0"":""5""}","","","","","","","","","","","","","","","","","","","","","","",""
"","","","","","virtual-chinrest","8","224039","0.0-4.0","155365","","","","85.6","53.98","436.70422405875735","5.103758716133851","560.45","8.734084481175147","50","1.1266206574035857","37.46","19.38","","","","","","","","","","","",""
"true","","","","","fullscreen","9","228635","0.0-5.0","","","","","","","","","","","","","","","","","","","","","","","","","",""
"","","","","","instructions","10","288697","0.0-6.0","60061","","","","","","","","","","","","","","[{""page_index"":0,""viewing_time"":3732},{""page_index"":1,""viewing_time"":35269},{""page_index"":2,""viewing_time"":17549},{""page_index"":3,""viewing_time"":3510}]","","","","","","","","","","",""
"","","","","","psychophysics","11","291365","0.0-7.0-0.0-0.0","null","","null","","","","","","","","","","","","","key","null","16.586591194968438","960","536","f","false","img/S_ambi40.png","三角","prac_image_first",""
"","","","","","html-keyboard-response","12","291675","0.0-7.0-0.0-1.0","null","<span class='add_' style='color:yellow; font-size: 70px;'> 太慢! </span>","null","","","","","","","","","","","","","","","","","","","","","","","feedback_test"
"","","","","","psychophysics","13","293176","0.0-7.0-0.0-0.1","346","","f","","","","","","","","","","","","","key","f","16.661191011236173","960","536","j","false","img/C_ambi40.png","圆形","prac_image_first",""
"","","","","","html-keyboard-response","14","293485","0.0-7.0-0.0-1.1","null","<span style='color:red; font-size: 70px;'>错误! </span>","null","","","","","","","","","","","","","","","","","","","","","","","feedback_test"
"","","","","","psychophysics","15","295045","0.0-7.0-0.0-0.2","400","","j","","","","","","","","","","","","","key","j","16.65767741935473","960","536","f","false","img/C_ambi40.png","三角","prac_image_first",""
"","","","","","html-keyboard-response","16","295355","0.0-7.0-0.0-1.2","null","<span style='color:red; font-size: 70px;'>错误! </span>","null","","","","","","","","","","","","","","","","","","","","","","","feedback_test"
"","","","","","psychophysics","17","298010","0.0-7.0-0.0-0.3","null","","null","","","","","","","","","","","","","key","null","16.658949367088617","960","536","f","false","img/C_ambi40.png","方形","prac_image_first",""
"","","","","","html-keyboard-response","18","298315","0.0-7.0-0.0-1.3","null","<span class='add_' style='color:yellow; font-size: 70px;'> 太慢! </span>","null","","","","","","","","","","","","","","","","","","","","","","","feedback_test"
"","","","","","psychophysics","19","300974","0.0-7.0-0.0-0.4","null","","null","","","","","","","","","","","","","key","null","17.429980132450112","960","536","j","false","img/T_ambi40.png","三角","prac_image_first",""
"","","","","","html-keyboard-response","20","301286","0.0-7.0-0.0-1.4","null","<span class='add_' style='color:yellow; font-size: 70px;'> 太慢! </span>","null","","","","","","","","","","","","","","","","","","","","","","","feedback_test"
"","","","","","psychophysics","21","302769","0.0-7.0-0.0-0.5","328","","f","","","","","","","","","","","","","key","f","16.65770454545484","960","536","j","false","img/S_ambi40.png","方形","prac_image_first",""
"","","","","","html-keyboard-response","22","303076","0.0-7.0-0.0-1.5","null","<span style='color:red; font-size: 70px;'>错误! </span>","null","","","","","","","","","","","","","","","","","","","","","","","feedback_test"
"","","","","","psychophysics","23","305736","0.0-7.0-0.0-0.6","null","","null","","","","","","","","","","","","","key","null","16.65786075949355","960","536","f","false","img/T_ambi40.png","方形","prac_image_first",""
"","","","","","html-keyboard-response","24","306045","0.0-7.0-0.0-1.6","null","<span class='add_' style='color:yellow; font-size: 70px;'> 太慢! </span>","null","","","","","","","","","","","","","","","","","","","","","","","feedback_test"
"","","","","","psychophysics","25","307306","0.0-7.0-0.0-0.7","100","","f","","","","","","","","","","","","","key","f","16.656653333333477","960","536","f","true","img/S_ambi40.png","圆形","prac_image_first",""
"","","","","","html-keyboard-response","26","307615","0.0-7.0-0.0-1.7","null","<span style='color:yellow; font-size: 70px;'>过快! </span>","null","","","","","","","","","","","","","","","","","","","","","","","feedback_test"
"","","","","","psychophysics","27","310270","0.0-7.0-0.0-0.8","null","","null","","","","","","","","","","","","","key","null","17.43161589403973","960","536","f","false","img/T_ambi40.png","圆形","prac_image_first",""
"","","","","","html-keyboard-response","28","310575","0.0-7.0-0.0-1.8","null","<span class='add_' style='color:yellow; font-size: 70px;'> 太慢! </span>","null","","","","","","","","","","","","","","","","","","","","","","","feedback_test"
"","","","","","psychophysics","29","312288","0.0-7.0-0.0-0.9","552","","f","","","","","","","","","","","","","key","f","16.662264705882134","960","536","j","false","img/T_ambi40.png","三角","prac_image_first",""
"","","","","","html-keyboard-response","30","312595","0.0-7.0-0.0-1.9","null","<span style='color:red; font-size: 70px;'>错误! </span>","null","","","","","","","","","","","","","","","","","","","","","","","feedback_test"
"","","","","","psychophysics","31","314269","0.0-7.0-0.0-0.10","519","","j","","","","","","","","","","","","","key","j","16.998010204081563","960","536","j","true","img/C_ambi40.png","圆形","prac_image_first",""
"","","","","","html-keyboard-response","32","314580","0.0-7.0-0.0-1.10","null","<span style='color:GreenYellow; font-size: 70px;'>正确! </span>","null","","","","","","","","","","","","","","","","","","","","","","","feedback_test"
"","","","","","psychophysics","33","316102","0.0-7.0-0.0-0.11","369","","j","","","","","","","","","","","","","key","j","16.65838461538462","960","536","j","true","img/S_ambi40.png","方形","prac_image_first",""
"","","","","","html-keyboard-response","34","316406","0.0-7.0-0.0-1.11","null","<span style='color:GreenYellow; font-size: 70px;'>正确! </span>","null","","","","","","","","","","","","","","","","","","","","","","","feedback_test"
"","","","","","psychophysics","35","317760","0.0-7.0-0.0-0.12","195","","j","","","","","","","","","","","","","key","j","16.657500000000436","960","536","f","false","img/T_ambi40.png","方形","prac_image_first",""
"","","","","","html-keyboard-response","36","318065","0.0-7.0-0.0-1.12","null","<span style='color:yellow; font-size: 70px;'>过快! </span>","null","","","","","","","","","","","","","","","","","","","","","","","feedback_test"
"","","","","","psychophysics","37","319518","0.0-7.0-0.0-0.13","302","","f","","","","","","","","","","","","","key","f","16.661918604651028","960","536","f","true","img/C_ambi40.png","方形","prac_image_first",""
"","","","","","html-keyboard-response","38","319825","0.0-7.0-0.0-1.13","null","<span style='color:GreenYellow; font-size: 70px;'>正确! </span>","null","","","","","","","","","","","","","","","","","","","","","","","feedback_test"
"","","","","","psychophysics","39","321199","0.0-7.0-0.0-0.14","219","","j","","","","","","","","","","","","","key","j","16.66202439024417","960","536","j","true","img/C_ambi40.png","圆形","prac_image_first",""
"","","","","","html-keyboard-response","40","321505","0.0-7.0-0.0-1.14","null","<span style='color:GreenYellow; font-size: 70px;'>正确! </span>","null","","","","","","","","","","","","","","","","","","","","","","","feedback_test"
"","","","","","psychophysics","41","322949","0.0-7.0-0.0-0.15","289","","f","","","","","","","","","","","","","key","f","16.656313953488027","960","536","j","false","img/T_ambi40.png","三角","prac_image_first",""
"","","","","","html-keyboard-response","42","323255","0.0-7.0-0.0-1.15","null","<span style='color:red; font-size: 70px;'>错误! </span>","null","","","","","","","","","","","","","","","","","","","","","","","feedback_test"
"","","","","","psychophysics","43","324750","0.0-7.0-0.0-0.16","339","","j","","","","","","","","","","","","","key","j","16.658370786517192","960","536","j","true","img/S_ambi40.png","方形","prac_image_first",""
"","","","","","html-keyboard-response","44","325056","0.0-7.0-0.0-1.16","null","<span style='color:GreenYellow; font-size: 70px;'>正确! </span>","null","","","","","","","","","","","","","","","","","","","","","","","feedback_test"
"","","","","","psychophysics","45","326587","0.0-7.0-0.0-0.17","377","","j","","","","","","","","","","","","","key","j","16.65371428571442","960","536","f","false","img/S_ambi40.png","三角","prac_image_first",""
"","","","","","html-keyboard-response","46","326896","0.0-7.0-0.0-1.17","null","<span style='color:red; font-size: 70px;'>错误! </span>","null","","","","","","","","","","","","","","","","","","","","","","","feedback_test"
"","","","","","psychophysics","47","328401","0.0-7.0-0.0-0.18","346","","j","","","","","","","","","","","","","key","j","16.65933707865214","960","536","f","false","img/T_ambi40.png","圆形","prac_image_first",""
"","","","","","html-keyboard-response","48","328705","0.0-7.0-0.0-1.18","null","<span style='color:red; font-size: 70px;'>错误! </span>","null","","","","","","","","","","","","","","","","","","","","","","","feedback_test"
"","","","","","psychophysics","49","330252","0.0-7.0-0.0-0.19","395","","f","","","","","","","","","","","","","key","f","20.438999999999844","960","536","j","false","img/T_ambi40.png","三角","prac_image_first",""
"","","","","","html-keyboard-response","50","330555","0.0-7.0-0.0-1.19","null","<span style='color:red; font-size: 70px;'>错误! </span>","null","","","","","","","","","","","","","","","","","","","","","","","feedback_test"
"","","","","","psychophysics","51","332029","0.0-7.0-0.0-0.20","321","","j","","","","","","","","","","","","","key","j","16.662215909091174","960","536","j","true","img/S_ambi40.png","方形","prac_image_first",""
"","","","","","html-keyboard-response","52","332335","0.0-7.0-0.0-1.20","null","<span style='color:GreenYellow; font-size: 70px;'>正确! </span>","null","","","","","","","","","","","","","","","","","","","","","","","feedback_test"
"","","","","","psychophysics","53","333861","0.0-7.0-0.0-0.21","371","","j","","","","","","","","","","","","","key","j","16.65818681318702","960","536","f","false","img/S_ambi40.png","圆形","prac_image_first",""
"","","","","","html-keyboard-response","54","334165","0.0-7.0-0.0-1.21","null","<span style='color:red; font-size: 70px;'>错误! </span>","null","","","","","","","","","","","","","","","","","","","","","","","feedback_test"
"","","","","","psychophysics","55","335620","0.0-7.0-0.0-0.22","299","","j","","","","","","","","","","","","","key","j","16.662627906976457","960","536","j","true","img/C_ambi40.png","圆形","prac_image_first",""
"","","","","","html-keyboard-response","56","335925","0.0-7.0-0.0-1.22","null","<span style='color:GreenYellow; font-size: 70px;'>正确! </span>","null","","","","","","","","","","","","","","","","","","","","","","","feedback_test"
"","","","","","psychophysics","57","337598","0.0-7.0-0.0-0.23","513","","f","","","","","","","","","","","","","key","f","16.65731313131336","960","536","f","true","img/C_ambi40.png","三角","prac_image_first",""
"","","","","","html-keyboard-response","58","337900","0.0-7.0-0.0-1.23","null","<span style='color:GreenYellow; font-size: 70px;'>正确! </span>","null","","","","","","","","","","","","","","","","","","","","","","","feedback_test"
"","","","","","html-keyboard-response","59","341815","0.0-7.0-1.0-0.0","3912","<style>.context{color:white; font-size: 35px; line-height:40px}</style>                            <div><p class='context'>您正确回答了38% 的试次。</p><p class='context'>您的平均反应时为331毫秒。</p>"," ","","","","","","","","","","","","","","","","","","","","","","",""
"","","","","","instructions","60","358507","0.0-7.0-1.0-1.0","16688","","","","","","","","","","","","","","[{""page_index"":0,""viewing_time"":2538},{""page_index"":1,""viewing_time"":10130},{""page_index"":2,""viewing_time"":4020}]","","","","","","","","","","",""
"","","","","","psychophysics","61","360109","0.0-7.1-0.1-0.24","450","","j","","","","","","","","","","","","","key","j","16.548484210526006","960","536","f","false","img/S_ambi40.png","圆形","prac_image_first",""
"","","","","","html-keyboard-response","62","360415","0.0-7.1-0.1-1.24","null","<span style='color:red; font-size: 70px;'>错误! </span>","null","","","","","","","","","","","","","","","","","","","","","","","feedback_test"
"","","","","","psychophysics","63","362137","0.0-7.1-0.1-0.25","563","","j","","","","","","","","","","","","","key","j","16.66151960784291","960","536","j","true","img/C_ambi40.png","圆形","prac_image_first",""
"","","","","","html-keyboard-response","64","362445","0.0-7.1-0.1-1.25","null","<span style='color:GreenYellow; font-size: 70px;'>正确! </span>","null","","","","","","","","","","","","","","","","","","","","","","","feedback_test"
"","","","","","psychophysics","65","364279","0.0-7.1-0.1-0.26","674","","f","","","","","","","","","","","","","key","f","16.659642201834444","960","536","f","true","img/C_ambi40.png","方形","prac_image_first",""
"","","","","","html-keyboard-response","66","364585","0.0-7.1-0.1-1.26","null","<span style='color:GreenYellow; font-size: 70px;'>正确! </span>","null","","","","","","","","","","","","","","","","","","","","","","","feedback_test"
"","","","","","psychophysics","67","366230","0.0-7.1-0.1-0.27","492","","j","","","","","","","","","","","","","key","j","16.659989795918406","960","536","j","true","img/T_ambi40.png","三角","prac_image_first",""
"","","","","","html-keyboard-response","68","366535","0.0-7.1-0.1-1.27","null","<span style='color:GreenYellow; font-size: 70px;'>正确! </span>","null","","","","","","","","","","","","","","","","","","","","","","","feedback_test"
"","","","","","psychophysics","69","368274","0.0-7.1-0.1-0.28","586","","j","","","","","","","","","","","","","key","j","16.64293203883504","960","536","j","true","img/T_ambi40.png","三角","prac_image_first",""
"","","","","","html-keyboard-response","70","368585","0.0-7.1-0.1-1.28","null","<span style='color:GreenYellow; font-size: 70px;'>正确! </span>","null","","","","","","","","","","","","","","","","","","","","","","","feedback_test"
"","","","","","psychophysics","71","370444","0.0-7.1-0.1-0.29","708","","f","","","","","","","","","","","","","key","f","16.63733636363653","960","536","f","true","img/C_ambi40.png","三角","prac_image_first",""
"","","","","","html-keyboard-response","72","370756","0.0-7.1-0.1-1.29","null","<span style='color:GreenYellow; font-size: 70px;'>正确! </span>","null","","","","","","","","","","","","","","","","","","","","","","","feedback_test"
"","","","","","psychophysics","73","372440","0.0-7.1-0.1-0.30","529","","j","","","","","","","","","","","","","key","j","16.658950000000186","960","536","j","true","img/S_ambi40.png","方形","prac_image_first",""
"","","","","","html-keyboard-response","74","372745","0.0-7.1-0.1-1.30","null","<span style='color:GreenYellow; font-size: 70px;'>正确! </span>","null","","","","","","","","","","","","","","","","","","","","","","","feedback_test"
"","","","","","psychophysics","75","374582","0.0-7.1-0.1-0.31","682","","j","","","","","","","","","","","","","key","j","16.656311926605508","960","536","j","true","img/S_ambi40.png","方形","prac_image_first",""
"","","","","","html-keyboard-response","76","374885","0.0-7.1-0.1-1.31","null","<span style='color:GreenYellow; font-size: 70px;'>正确! </span>","null","","","","","","","","","","","","","","","","","","","","","","","feedback_test"
"","","","","","psychophysics","77","376943","0.0-7.1-0.1-0.32","899","","f","","","","","","","","","","","","","key","f","16.659459016393665","960","536","f","true","img/T_ambi40.png","方形","prac_image_first",""
"","","","","","html-keyboard-response","78","377245","0.0-7.1-0.1-1.32","null","<span style='color:GreenYellow; font-size: 70px;'>正确! </span>","null","","","","","","","","","","","","","","","","","","","","","","","feedback_test"
"","","","","","psychophysics","79","378867","0.0-7.1-0.1-0.33","469","","j","","","","","","","","","","","","","key","j","16.66260824742254","960","536","f","false","img/S_ambi40.png","三角","prac_image_first",""
"","","","","","html-keyboard-response","80","379175","0.0-7.1-0.1-1.33","null","<span style='color:red; font-size: 70px;'>错误! </span>","null","","","","","","","","","","","","","","","","","","","","","","","feedback_test"
"","","","","","psychophysics","81","381088","0.0-7.1-0.1-0.34","758","","f","","","","","","","","","","","","","key","f","16.803955752212467","960","536","f","true","img/T_ambi40.png","圆形","prac_image_first",""
"","","","","","html-keyboard-response","82","381396","0.0-7.1-0.1-1.34","null","<span style='color:GreenYellow; font-size: 70px;'>正确! </span>","null","","","","","","","","","","","","","","","","","","","","","","","feedback_test"
"","","","","","psychophysics","83","383134","0.0-7.1-0.1-0.35","586","","f","","","","","","","","","","","","","key","f","16.658815533980654","960","536","j","false","img/C_ambi40.png","圆形","prac_image_first",""
"","","","","","html-keyboard-response","84","383445","0.0-7.1-0.1-1.35","null","<span style='color:red; font-size: 70px;'>错误! </span>","null","","","","","","","","","","","","","","","","","","","","","","","feedback_test"
"","","","","","psychophysics","85","385109","0.0-7.1-0.1-0.36","504","","j","","","","","","","","","","","","","key","j","16.832731958762526","960","536","f","false","img/S_ambi40.png","三角","prac_image_first",""
"","","","","","html-keyboard-response","86","385415","0.0-7.1-0.1-1.36","null","<span style='color:red; font-size: 70px;'>错误! </span>","null","","","","","","","","","","","","","","","","","","","","","","","feedback_test"
"","","","","","psychophysics","87","387369","0.0-7.1-0.1-0.37","794","","j","","","","","","","","","","","","","key","j","16.65743965517272","960","536","j","true","img/C_ambi40.png","圆形","prac_image_first",""
"","","","","","html-keyboard-response","88","387675","0.0-7.1-0.1-1.37","null","<span style='color:GreenYellow; font-size: 70px;'>正确! </span>","null","","","","","","","","","","","","","","","","","","","","","","","feedback_test"
"","","","","","psychophysics","89","389579","0.0-7.1-0.1-0.38","752","","f","","","","","","","","","","","","","key","f","17.27185321100902","960","536","j","false","img/T_ambi40.png","三角","prac_image_first",""
"","","","","","html-keyboard-response","90","389885","0.0-7.1-0.1-1.38","null","<span style='color:red; font-size: 70px;'>错误! </span>","null","","","","","","","","","","","","","","","","","","","","","","","feedback_test"
"","","","","","psychophysics","91","391808","0.0-7.1-0.1-0.39","768","","f","","","","","","","","","","","","","key","f","16.656886956521877","960","536","f","true","img/T_ambi40.png","方形","prac_image_first",""
"","","","","","html-keyboard-response","92","392115","0.0-7.1-0.1-1.39","null","<span style='color:GreenYellow; font-size: 70px;'>正确! </span>","null","","","","","","","","","","","","","","","","","","","","","","","feedback_test"
"","","","","","psychophysics","93","393920","0.0-7.1-0.1-0.40","648","","j","","","","","","","","","","","","","key","j","16.65835514018708","960","536","j","true","img/S_ambi40.png","方形","prac_image_first",""
"","","","","","html-keyboard-response","94","394225","0.0-7.1-0.1-1.40","null","<span style='color:GreenYellow; font-size: 70px;'>正确! </span>","null","","","","","","","","","","","","","","","","","","","","","","","feedback_test"
"","","","","","psychophysics","95","396079","0.0-7.1-0.1-0.41","694","","j","","","","","","","","","","","","","key","j","16.661072727272668","960","536","j","true","img/S_ambi40.png","方形","prac_image_first",""
"","","","","","html-keyboard-response","96","396385","0.0-7.1-0.1-1.41","null","<span style='color:GreenYellow; font-size: 70px;'>正确! </span>","null","","","","","","","","","","","","","","","","","","","","","","","feedback_test"
"","","","","","psychophysics","97","398080","0.0-7.1-0.1-0.42","544","","f","","","","","","","","","","","","","key","f","16.65791089108933","960","536","f","true","img/T_ambi40.png","圆形","prac_image_first",""
"","","","","","html-keyboard-response","98","398385","0.0-7.1-0.1-1.42","null","<span style='color:GreenYellow; font-size: 70px;'>正确! </span>","null","","","","","","","","","","","","","","","","","","","","","","","feedback_test"
"","","","","","psychophysics","99","400245","0.0-7.1-0.1-0.43","709","","f","","","","","","","","","","","","","key","f","17.2610377358489","960","536","f","true","img/S_ambi40.png","圆形","prac_image_first",""
"","","","","","html-keyboard-response","100","400565","0.0-7.1-0.1-1.43","null","<span style='color:GreenYellow; font-size: 70px;'>正确! </span>","null","","","","","","","","","","","","","","","","","","","","","","","feedback_test"
"","","","","","psychophysics","101","402515","0.0-7.1-0.1-0.44","795","","j","","","","","","","","","","","","","key","j","16.660534482758397","960","536","j","true","img/C_ambi40.png","圆形","prac_image_first",""
"","","","","","html-keyboard-response","102","402820","0.0-7.1-0.1-1.44","null","<span style='color:GreenYellow; font-size: 70px;'>正确! </span>","null","","","","","","","","","","","","","","","","","","","","","","","feedback_test"
"","","","","","psychophysics","103","404472","0.0-7.1-0.1-0.45","497","","j","","","","","","","","","","","","","key","j","16.65332653061178","960","536","f","false","img/C_ambi40.png","方形","prac_image_first",""
"","","","","","html-keyboard-response","104","404781","0.0-7.1-0.1-1.45","null","<span style='color:red; font-size: 70px;'>错误! </span>","null","","","","","","","","","","","","","","","","","","","","","","","feedback_test"
"","","","","","psychophysics","105","407318","0.0-7.1-0.1-0.46","1386","","f","","","","","","","","","","","","","key","f","16.66033774834444","960","536","j","false","img/T_ambi40.png","三角","prac_image_first",""
"","","","","","html-keyboard-response","106","407625","0.0-7.1-0.1-1.46","null","<span style='color:red; font-size: 70px;'>错误! </span>","null","","","","","","","","","","","","","","","","","","","","","","","feedback_test"
"","","","","","psychophysics","107","409490","0.0-7.1-0.1-0.47","703","","f","","","","","","","","","","","","","key","f","16.661036036036037","960","536","f","true","img/C_ambi40.png","三角","prac_image_first",""
"","","","","","html-keyboard-response","108","409795","0.0-7.1-0.1-1.47","null","<span style='color:GreenYellow; font-size: 70px;'>正确! </span>","null","","","","","","","","","","","","","","","","","","","","","","","feedback_test"
"","","","","","html-keyboard-response","109","413004","0.0-8.0","3207","<style>.context{color:white; font-size: 35px; line-height:40px}</style>                            <div><p class='context'>您正确回答了71% 的试次。</p><p class='context'>您的平均反应时为679毫秒。</p><p class='context'>恭喜您完成这一阶段的练习。按任意键进入<span style='color: yellow;'>先文字后图形条件</span>的练习。</p></div>"," ","","","","","","","","","","","","","","","","","","","","","","",""
"","","","","","psychophysics","110","415661","0.0-9.0-0.0-0.0","null","","null","","","","","","","","","","","","","key","null","16.660208860759646","960","536","j","false","img/C_ambi40.png","圆形","prac_word_first",""
"","","","","","html-keyboard-response","111","415966","0.0-9.0-0.0-1.0","null","<span class='add_' style='color:yellow; font-size: 70px;'> 太慢! </span>","null","","","","","","","","","","","","","","","","","","","","","","","feedback_test"
"","","","","","psychophysics","112","417674","0.0-9.0-0.0-0.1","549","","j","","","","","","","","","","","","","key","j","16.654425742574347","960","536","j","true","img/C_ambi40.png","圆形","prac_word_first",""
"","","","","","html-keyboard-response","113","417981","0.0-9.0-0.0-1.1","null","<span style='color:GreenYellow; font-size: 70px;'>正确! </span>","null","","","","","","","","","","","","","","","","","","","","","","","feedback_test"
"","","","","","psychophysics","114","419921","0.0-9.0-0.0-0.2","785","","f","","","","","","","","","","","","","key","f","18.419894230769177","960","536","f","true","img/C_ambi40.png","方形","prac_word_first",""
"","","","","","html-keyboard-response","115","420236","0.0-9.0-0.0-1.2","null","<span style='color:GreenYellow; font-size: 70px;'>正确! </span>","null","","","","","","","","","","","","","","","","","","","","","","","feedback_test"
"","","","","","psychophysics","116","422192","0.0-9.0-0.0-0.3","802","","j","","","","","","","","","","","","","key","j","16.801232758620934","960","536","j","true","img/T_ambi40.png","三角","prac_word_first",""
"","","","","","html-keyboard-response","117","422505","0.0-9.0-0.0-1.3","null","<span style='color:GreenYellow; font-size: 70px;'>正确! </span>","null","","","","","","","","","","","","","","","","","","","","","","","feedback_test"
"","","","","","psychophysics","118","424336","0.0-9.0-0.0-0.4","679","","j","","","","","","","","","","","","","key","j","16.655685185184765","960","536","j","true","img/S_ambi40.png","方形","prac_word_first",""
"","","","","","html-keyboard-response","119","424645","0.0-9.0-0.0-1.4","null","<span style='color:GreenYellow; font-size: 70px;'>正确! </span>","null","","","","","","","","","","","","","","","","","","","","","","","feedback_test"
"","","","","","psychophysics","120","426220","0.0-9.0-0.0-0.5","416","","j","","","","","","","","","","","","","key","j","16.66008602150513","960","536","j","true","img/S_ambi40.png","方形","prac_word_first",""
"","","","","","html-keyboard-response","121","426525","0.0-9.0-0.0-1.5","null","<span style='color:GreenYellow; font-size: 70px;'>正确! </span>","null","","","","","","","","","","","","","","","","","","","","","","","feedback_test"
"","","","","","psychophysics","122","428276","0.0-9.0-0.0-0.6","591","","j","","","","","","","","","","","","","key","j","16.65748076923046","960","536","f","false","img/S_ambi40.png","三角","prac_word_first",""
"","","","","","html-keyboard-response","123","428585","0.0-9.0-0.0-1.6","null","<span style='color:red; font-size: 70px;'>错误! </span>","null","","","","","","","","","","","","","","","","","","","","","","","feedback_test"
"","","","","","psychophysics","124","430510","0.0-9.0-0.0-0.7","773","","j","","","","","","","","","","","","","key","j","17.558944444444258","960","536","j","true","img/T_ambi40.png","三角","prac_word_first",""
"","","","","","html-keyboard-response","125","430815","0.0-9.0-0.0-1.7","null","<span style='color:GreenYellow; font-size: 70px;'>正确! </span>","null","","","","","","","","","","","","","","","","","","","","","","","feedback_test"
"","","","","","psychophysics","126","432705","0.0-9.0-0.0-0.8","737","","f","","","","","","","","","","","","","key","f","16.660575221239103","960","536","f","true","img/T_ambi40.png","圆形","prac_word_first",""
"","","","","","html-keyboard-response","127","433005","0.0-9.0-0.0-1.8","null","<span style='color:GreenYellow; font-size: 70px;'>正确! </span>","null","","","","","","","","","","","","","","","","","","","","","","","feedback_test"
"","","","","","psychophysics","128","434790","0.0-9.0-0.0-0.9","625","","j","","","","","","","","","","","","","key","j","16.81824999999998","960","536","f","false","img/T_ambi40.png","方形","prac_word_first",""
"","","","","","html-keyboard-response","129","435095","0.0-9.0-0.0-1.9","null","<span style='color:red; font-size: 70px;'>错误! </span>","null","","","","","","","","","","","","","","","","","","","","","","","feedback_test"
"","","","","","psychophysics","130","436901","0.0-9.0-0.0-0.10","652","","j","","","","","","","","","","","","","key","j","16.658249999999597","960","536","f","false","img/C_ambi40.png","三角","prac_word_first",""
"","","","","","html-keyboard-response","131","437205","0.0-9.0-0.0-1.10","null","<span style='color:red; font-size: 70px;'>错误! </span>","null","","","","","","","","","","","","","","","","","","","","","","","feedback_test"
"","","","","","psychophysics","132","439235","0.0-9.0-0.0-0.11","871","","j","","","","","","","","","","","","","key","j","16.940075630252153","960","536","f","false","img/S_ambi40.png","圆形","prac_word_first",""
"","","","","","html-keyboard-response","133","439545","0.0-9.0-0.0-1.11","null","<span style='color:red; font-size: 70px;'>错误! </span>","null","","","","","","","","","","","","","","","","","","","","","","","feedback_test"
"","","","","","psychophysics","134","441323","0.0-9.0-0.0-0.12","626","","f","","","","","","","","","","","","","key","f","16.647514285714298","960","536","f","true","img/S_ambi40.png","三角","prac_word_first",""
"","","","","","html-keyboard-response","135","441625","0.0-9.0-0.0-1.12","null","<span style='color:GreenYellow; font-size: 70px;'>正确! </span>","null","","","","","","","","","","","","","","","","","","","","","","","feedback_test"
"","","","","","psychophysics","136","443431","0.0-9.0-0.0-0.13","654","","j","","","","","","","","","","","","","key","j","16.65987962962956","960","536","j","true","img/T_ambi40.png","三角","prac_word_first",""
"","","","","","html-keyboard-response","137","443735","0.0-9.0-0.0-1.13","null","<span style='color:GreenYellow; font-size: 70px;'>正确! </span>","null","","","","","","","","","","","","","","","","","","","","","","","feedback_test"
"","","","","","psychophysics","138","445483","0.0-9.0-0.0-0.14","589","","j","","","","","","","","","","","","","key","j","16.983764705882184","960","536","f","false","img/C_ambi40.png","三角","prac_word_first",""
"","","","","","html-keyboard-response","139","445785","0.0-9.0-0.0-1.14","null","<span style='color:red; font-size: 70px;'>错误! </span>","null","","","","","","","","","","","","","","","","","","","","","","","feedback_test"
"","","","","","psychophysics","140","447650","0.0-9.0-0.0-0.15","706","","j","","","","","","","","","","","","","key","j","16.659198198198478","960","536","j","true","img/C_ambi40.png","圆形","prac_word_first",""
"","","","","","html-keyboard-response","141","447955","0.0-9.0-0.0-1.15","null","<span style='color:GreenYellow; font-size: 70px;'>正确! </span>","null","","","","","","","","","","","","","","","","","","","","","","","feedback_test"
"","","","","","psychophysics","142","449831","0.0-9.0-0.0-0.16","723","","f","","","","","","","","","","","","","key","f","17.438467289719874","960","536","f","true","img/T_ambi40.png","圆形","prac_word_first",""
"","","","","","html-keyboard-response","143","450135","0.0-9.0-0.0-1.16","null","<span style='color:GreenYellow; font-size: 70px;'>正确! </span>","null","","","","","","","","","","","","","","","","","","","","","","","feedback_test"
"","","","","","psychophysics","144","451999","0.0-9.0-0.0-0.17","709","","f","","","","","","","","","","","","","key","f","16.657225225225137","960","536","f","true","img/C_ambi40.png","方形","prac_word_first",""
"","","","","","html-keyboard-response","145","452305","0.0-9.0-0.0-1.17","null","<span style='color:GreenYellow; font-size: 70px;'>正确! </span>","null","","","","","","","","","","","","","","","","","","","","","","","feedback_test"
"","","","","","psychophysics","146","454071","0.0-9.0-0.0-0.18","614","","j","","","","","","","","","","","","","key","j","16.823038834951326","960","536","j","true","img/S_ambi40.png","方形","prac_word_first",""
"","","","","","html-keyboard-response","147","454375","0.0-9.0-0.0-1.18","null","<span style='color:GreenYellow; font-size: 70px;'>正确! </span>","null","","","","","","","","","","","","","","","","","","","","","","","feedback_test"
"","","","","","psychophysics","148","456191","0.0-9.0-0.0-0.19","655","","j","","","","","","","","","","","","","key","j","16.658722222222153","960","536","j","true","img/C_ambi40.png","圆形","prac_word_first",""
"","","","","","html-keyboard-response","149","456498","0.0-9.0-0.0-1.19","null","<span style='color:GreenYellow; font-size: 70px;'>正确! </span>","null","","","","","","","","","","","","","","","","","","","","","","","feedback_test"
"","","","","","psychophysics","150","458319","0.0-9.0-0.0-0.20","668","","f","","","","","","","","","","","","","key","f","16.81352336448563","960","536","f","true","img/T_ambi40.png","方形","prac_word_first",""
"","","","","","html-keyboard-response","151","458625","0.0-9.0-0.0-1.20","null","<span style='color:GreenYellow; font-size: 70px;'>正确! </span>","null","","","","","","","","","","","","","","","","","","","","","","","feedback_test"
"","","","","","psychophysics","152","460396","0.0-9.0-0.0-0.21","615","","j","","","","","","","","","","","","","key","j","16.661780952381168","960","536","j","true","img/S_ambi40.png","方形","prac_word_first",""
"","","","","","html-keyboard-response","153","460705","0.0-9.0-0.0-1.21","null","<span style='color:GreenYellow; font-size: 70px;'>正确! </span>","null","","","","","","","","","","","","","","","","","","","","","","","feedback_test"
"","","","","","psychophysics","154","462632","0.0-9.0-0.0-0.22","767","","j","","","","","","","","","","","","","key","j","16.657350877193192","960","536","f","false","img/S_ambi40.png","圆形","prac_word_first",""
"","","","","","html-keyboard-response","155","462935","0.0-9.0-0.0-1.22","null","<span style='color:red; font-size: 70px;'>错误! </span>","null","","","","","","","","","","","","","","","","","","","","","","","feedback_test"
"","","","","","psychophysics","156","464989","0.0-9.0-0.0-0.23","893","","j","","","","","","","","","","","","","key","j","16.65729508196723","960","536","j","true","img/T_ambi40.png","三角","prac_word_first",""
"","","","","","html-keyboard-response","157","465305","0.0-9.0-0.0-1.23","null","<span style='color:GreenYellow; font-size: 70px;'>正确! </span>","null","","","","","","","","","","","","","","","","","","","","","","","feedback_test"
"","","","","","html-keyboard-response","158","467725","0.0-10.0","2418","<style>.context{color:white; font-size: 35px; line-height:40px}</style>                            <div><p class='context'>您正确回答了71% 的试次。</p><p class='context'>您的平均反应时为683毫秒。</p><p class='context'>恭喜您完成练习。按任意键进入<span style='color: yellow;'>图形和文字同时呈现条件</span>的练习。</p></div>"," ","","","","","","","","","","","","","","","","","","","","","","",""
"","","","","","psychophysics","159","469957","0.0-11.0-0.0-0.0","1225","","j","","","","","","","","","","","","","key","j","16.65776691729329","960","536","j","true","img/T_ambi40.png","三角","prac_simultaneous",""
"","","","","","html-keyboard-response","160","470265","0.0-11.0-0.0-1.0","null","<span style='color:GreenYellow; font-size: 70px;'>正确! </span>","null","","","","","","","","","","","","","","","","","","","","","","","feedback_test"
"","","","","","psychophysics","161","472545","0.0-11.0-0.0-0.1","1269","","f","","","","","","","","","","","","","key","f","16.781947761194157","960","536","f","true","img/T_ambi40.png","方形","prac_simultaneous",""
"","","","","","html-keyboard-response","162","472855","0.0-11.0-0.0-1.1","null","<span style='color:GreenYellow; font-size: 70px;'>正确! </span>","null","","","","","","","","","","","","","","","","","","","","","","","feedback_test"
"","","","","","psychophysics","163","474868","0.0-11.0-0.0-0.2","1007","","j","","","","","","","","","","","","","key","j","16.798899159664014","960","536","j","true","img/T_ambi40.png","三角","prac_simultaneous",""
"","","","","","html-keyboard-response","164","475180","0.0-11.0-0.0-1.2","null","<span style='color:GreenYellow; font-size: 70px;'>正确! </span>","null","","","","","","","","","","","","","","","","","","","","","","","feedback_test"
"","","","","","psychophysics","165","476997","0.0-11.0-0.0-0.3","805","","j","","","","","","","","","","","","","key","j","16.65785185185194","960","536","f","false","img/C_ambi40.png","三角","prac_simultaneous",""
"","","","","","html-keyboard-response","166","477305","0.0-11.0-0.0-1.3","null","<span style='color:red; font-size: 70px;'>错误! </span>","null","","","","","","","","","","","","","","","","","","","","","","","feedback_test"
"","","","","","psychophysics","167","479194","0.0-11.0-0.0-0.4","884","","j","","","","","","","","","","","","","key","j","17.75806603773622","960","536","j","true","img/S_ambi40.png","方形","prac_simultaneous",""
"","","","","","html-keyboard-response","168","479495","0.0-11.0-0.0-1.4","null","<span style='color:GreenYellow; font-size: 70px;'>正确! </span>","null","","","","","","","","","","","","","","","","","","","","","","","feedback_test"
"","","","","","psychophysics","169","481103","0.0-11.0-0.0-0.5","598","","f","","","","","","","","","","","","","key","f","16.657736842105116","960","536","f","true","img/C_ambi40.png","方形","prac_simultaneous",""
"","","","","","html-keyboard-response","170","481405","0.0-11.0-0.0-1.5","null","<span style='color:GreenYellow; font-size: 70px;'>正确! </span>","null","","","","","","","","","","","","","","","","","","","","","","","feedback_test"
"","","","","","psychophysics","171","483236","0.0-11.0-0.0-0.6","830","","f","","","","","","","","","","","","","key","f","16.654759259259595","960","536","j","false","img/C_ambi40.png","圆形","prac_simultaneous",""
"","","","","","html-keyboard-response","172","483545","0.0-11.0-0.0-1.6","null","<span style='color:red; font-size: 70px;'>错误! </span>","null","","","","","","","","","","","","","","","","","","","","","","","feedback_test"
"","","","","","psychophysics","173","485087","0.0-11.0-0.0-0.7","532","","j","","","","","","","","","","","","","key","j","16.659637362637383","960","536","j","true","img/C_ambi40.png","圆形","prac_simultaneous",""
"","","","","","html-keyboard-response","174","485395","0.0-11.0-0.0-1.7","null","<span style='color:GreenYellow; font-size: 70px;'>正确! </span>","null","","","","","","","","","","","","","","","","","","","","","","","feedback_test"
"","","","","","psychophysics","175","487445","0.0-11.0-0.0-0.8","1040","","f","","","","","","","","","","","","","key","f","16.658499999999997","960","536","f","true","img/S_ambi40.png","三角","prac_simultaneous",""
"","","","","","html-keyboard-response","176","487755","0.0-11.0-0.0-1.8","null","<span style='color:GreenYellow; font-size: 70px;'>正确! </span>","null","","","","","","","","","","","","","","","","","","","","","","","feedback_test"
"","","","","","psychophysics","177","489534","0.0-11.0-0.0-0.9","769","","j","","","","","","","","","","","","","key","j","17.31691089108884","960","536","j","true","img/S_ambi40.png","方形","prac_simultaneous",""
"","","","","","html-keyboard-response","178","489845","0.0-11.0-0.0-1.9","null","<span style='color:GreenYellow; font-size: 70px;'>正确! </span>","null","","","","","","","","","","","","","","","","","","","","","","","feedback_test"
"","","","","","psychophysics","179","491741","0.0-11.0-0.0-0.10","890","","f","","","","","","","","","","","","","key","f","16.661026548672535","960","536","f","true","img/S_ambi40.png","圆形","prac_simultaneous",""
"","","","","","html-keyboard-response","180","492045","0.0-11.0-0.0-1.10","null","<span style='color:GreenYellow; font-size: 70px;'>正确! </span>","null","","","","","","","","","","","","","","","","","","","","","","","feedback_test"
"","","","","","psychophysics","181","493980","0.0-11.0-0.0-0.11","930","","j","","","","","","","","","","","","","key","j","16.659965217391374","960","536","f","false","img/T_ambi40.png","圆形","prac_simultaneous",""
"","","","","","html-keyboard-response","182","494295","0.0-11.0-0.0-1.11","null","<span style='color:red; font-size: 70px;'>错误! </span>","null","","","","","","","","","","","","","","","","","","","","","","","feedback_test"
"","","","","","psychophysics","183","496142","0.0-11.0-0.0-0.12","843","","j","","","","","","","","","","","","","key","j","16.660709090908693","960","536","j","true","img/S_ambi40.png","方形","prac_simultaneous",""
"","","","","","html-keyboard-response","184","496445","0.0-11.0-0.0-1.12","null","<span style='color:GreenYellow; font-size: 70px;'>正确! </span>","null","","","","","","","","","","","","","","","","","","","","","","","feedback_test"
"","","","","","psychophysics","185","498299","0.0-11.0-0.0-0.13","852","","f","","","","","","","","","","","","","key","f","16.657315315315312","960","536","f","true","img/T_ambi40.png","圆形","prac_simultaneous",""
"","","","","","html-keyboard-response","186","498604","0.0-11.0-0.0-1.13","null","<span style='color:GreenYellow; font-size: 70px;'>正确! </span>","null","","","","","","","","","","","","","","","","","","","","","","","feedback_test"
"","","","","","psychophysics","187","500476","0.0-11.0-0.0-0.14","864","","j","","","","","","","","","","","","","key","j","16.659423423423913","960","536","j","true","img/C_ambi40.png","圆形","prac_simultaneous",""
"","","","","","html-keyboard-response","188","500785","0.0-11.0-0.0-1.14","null","<span style='color:GreenYellow; font-size: 70px;'>正确! </span>","null","","","","","","","","","","","","","","","","","","","","","","","feedback_test"
"","","","","","psychophysics","189","502757","0.0-11.0-0.0-0.15","963","","f","","","","","","","","","","","","","key","f","16.95010434782598","960","536","f","true","img/T_ambi40.png","方形","prac_simultaneous",""
"","","","","","html-keyboard-response","190","503064","0.0-11.0-0.0-1.15","null","<span style='color:GreenYellow; font-size: 70px;'>正确! </span>","null","","","","","","","","","","","","","","","","","","","","","","","feedback_test"
"","","","","","psychophysics","191","504702","0.0-11.0-0.0-0.16","627","","j","","","","","","","","","","","","","key","j","16.66171134020605","960","536","j","true","img/C_ambi40.png","圆形","prac_simultaneous",""
"","","","","","html-keyboard-response","192","505010","0.0-11.0-0.0-1.16","null","<span style='color:GreenYellow; font-size: 70px;'>正确! </span>","null","","","","","","","","","","","","","","","","","","","","","","","feedback_test"
"","","","","","psychophysics","193","506485","0.0-11.0-0.0-0.17","474","","f","","","","","","","","","","","","","key","f","16.659448275863106","960","536","f","true","img/C_ambi40.png","三角","prac_simultaneous",""
"","","","","","html-keyboard-response","194","506795","0.0-11.0-0.0-1.17","null","<span style='color:GreenYellow; font-size: 70px;'>正确! </span>","null","","","","","","","","","","","","","","","","","","","","","","","feedback_test"
"","","","","","psychophysics","195","508335","0.0-11.0-0.0-0.18","529","","j","","","","","","","","","","","","","key","j","16.66102197802252","960","536","f","false","img/S_ambi40.png","圆形","prac_simultaneous",""
"","","","","","html-keyboard-response","196","508644","0.0-11.0-0.0-1.18","null","<span style='color:red; font-size: 70px;'>错误! </span>","null","","","","","","","","","","","","","","","","","","","","","","","feedback_test"
"","","","","","psychophysics","197","510711","0.0-11.0-0.0-0.19","1057","","j","","","","","","","","","","","","","key","j","17.663353448276055","960","536","j","true","img/T_ambi40.png","三角","prac_simultaneous",""
"","","","","","html-keyboard-response","198","511024","0.0-11.0-0.0-1.19","null","<span style='color:GreenYellow; font-size: 70px;'>正确! </span>","null","","","","","","","","","","","","","","","","","","","","","","","feedback_test"
"","","","","","psychophysics","199","513228","0.0-11.0-0.0-0.20","1194","","j","","","","","","","","","","","","","key","j","16.657389312977227","960","536","j","true","img/T_ambi40.png","三角","prac_simultaneous",""
"","","","","","html-keyboard-response","200","513534","0.0-11.0-0.0-1.20","null","<span style='color:GreenYellow; font-size: 70px;'>正确! </span>","null","","","","","","","","","","","","","","","","","","","","","","","feedback_test"
"","","","","","psychophysics","201","515241","0.0-11.0-0.0-0.21","703","","j","","","","","","","","","","","","","key","j","16.65692156862682","960","536","j","true","img/S_ambi40.png","方形","prac_simultaneous",""
"","","","","","html-keyboard-response","202","515545","0.0-11.0-0.0-1.21","null","<span style='color:GreenYellow; font-size: 70px;'>正确! </span>","null","","","","","","","","","","","","","","","","","","","","","","","feedback_test"
"","","","","","psychophysics","203","517299","0.0-11.0-0.0-0.22","746","","f","","","","","","","","","","","","","key","f","16.658471153845312","960","536","f","true","img/S_ambi40.png","三角","prac_simultaneous",""
"","","","","","html-keyboard-response","204","517604","0.0-11.0-0.0-1.22","null","<span style='color:GreenYellow; font-size: 70px;'>正确! </span>","null","","","","","","","","","","","","","","","","","","","","","","","feedback_test"
"","","","","","psychophysics","205","519430","0.0-11.0-0.0-0.23","815","","j","","","","","","","","","","","","","key","j","17.465825242718267","960","536","f","false","img/C_ambi40.png","方形","prac_simultaneous",""
"","","","","","html-keyboard-response","206","519734","0.0-11.0-0.0-1.23","null","<span style='color:red; font-size: 70px;'>错误! </span>","null","","","","","","","","","","","","","","","","","","","","","","","feedback_test"
"","","","","","html-keyboard-response","207","524192","0.0-12.0","4456","<style>.context{color:white; font-size: 35px; line-height:40px}</style>                            <div><p class='context'>您正确回答了79% 的试次。</p><p class='context'>您的平均反应时为870毫秒。</p><p class='context'>恭喜您完成练习。按任意键进入正式实验。</p><p class='footer' style='font-size: 35px; line-height:40px;'>请在进入正式实验实验之前将您的<span style='color: lightgreen;'>食指</span>放在电脑键盘的相应键位上进行按键。</p>"," ","","","","","","","","","","","","","","","","","","","","","","",""
"","","","","","html-keyboard-response","208","529662","0.0-13.0-0.0-0.0","5467","
    <p>请您将手指放在按键上，准备进入呈现顺序为<span style='color: yellow;'>先图形后文字条件</span>的正式匹配任务</p>
    <p> <div style = ""color: green""><按任意键进入下一阶段的匹配任务></div></p>
    "," ","","","","","","","","","","","","","","","","","","","","","","",""
"","","","","","psychophysics","209","531684","0.0-13.0-0.0-1.0-0.0-0.0","871","","f","","","","","","","","","","","","","key","f","16.657508333332952","960","536","f","true","img/C_ambi40.png","方形","image_first",""
"","","","","","html-keyboard-response","210","531994","0.0-13.0-0.0-1.0-0.0-1.0","null","<span style='color:GreenYellow; font-size: 70px;'>正确! </span>","null","","","","","","","","","","","","","","","","","","","","","","","feedback_test"
"","","","","","psychophysics","211","533739","0.0-13.0-0.0-1.0-0.0-0.1","593","","f","","","","","","","","","","","","","key","f","16.66127184466052","960","536","f","true","img/C_ambi40.png","三角","image_first",""
"","","","","","html-keyboard-response","212","534044","0.0-13.0-0.0-1.0-0.0-1.1","null","<span style='color:GreenYellow; font-size: 70px;'>正确! </span>","null","","","","","","","","","","","","","","","","","","","","","","","feedback_test"
"","","","","","psychophysics","213","536337","0.0-13.0-0.0-1.0-0.0-0.2","1132","","f","","","","","","","","","","","","","key","f","17.69922656250037","960","536","f","true","img/T_ambi40.png","方形","image_first",""
"","","","","","html-keyboard-response","214","536645","0.0-13.0-0.0-1.0-0.0-1.2","null","<span style='color:GreenYellow; font-size: 70px;'>正确! </span>","null","","","","","","","","","","","","","","","","","","","","","","","feedback_test"
"","","","","","psychophysics","215","538540","0.0-13.0-0.0-1.0-0.0-0.3","735","","j","","","","","","","","","","","","","key","j","16.661366071428347","960","536","j","true","img/C_ambi40.png","圆形","image_first",""
"","","","","","html-keyboard-response","216","538845","0.0-13.0-0.0-1.0-0.0-1.3","null","<span style='color:GreenYellow; font-size: 70px;'>正确! </span>","null","","","","","","","","","","","","","","","","","","","","","","","feedback_test"
"","","","","","psychophysics","217","540700","0.0-13.0-0.0-1.0-0.0-0.4","695","","f","","","","","","","","","","","","","key","f","16.6604545454537","960","536","f","true","img/T_ambi40.png","圆形","image_first",""
"","","","","","html-keyboard-response","218","541005","0.0-13.0-0.0-1.0-0.0-1.4","null","<span style='color:GreenYellow; font-size: 70px;'>正确! </span>","null","","","","","","","","","","","","","","","","","","","","","","","feedback_test"
"","","","","","psychophysics","219","542960","0.0-13.0-0.0-1.0-0.0-0.5","803","","f","","","","","","","","","","","","","key","f","16.65776724137912","960","536","f","true","img/S_ambi40.png","三角","image_first",""
"","","","","","html-keyboard-response","220","543265","0.0-13.0-0.0-1.0-0.0-1.5","null","<span style='color:GreenYellow; font-size: 70px;'>正确! </span>","null","","","","","","","","","","","","","","","","","","","","","","","feedback_test"
"","","","","","psychophysics","221","545106","0.0-13.0-0.0-1.0-0.0-0.6","685","","f","","","","","","","","","","","","","key","f","16.968185185185305","960","536","f","true","img/S_ambi40.png","圆形","image_first",""
"","","","","","html-keyboard-response","222","545415","0.0-13.0-0.0-1.0-0.0-1.6","null","<span style='color:GreenYellow; font-size: 70px;'>正确! </span>","null","","","","","","","","","","","","","","","","","","","","","","","feedback_test"
"","","","","","psychophysics","223","547237","0.0-13.0-0.0-1.0-0.0-0.7","668","","j","","","","","","","","","","","","","key","j","16.657605504587192","960","536","j","true","img/S_ambi40.png","方形","image_first",""
"","","","","","html-keyboard-response","224","547544","0.0-13.0-0.0-1.0-0.0-1.7","null","<span style='color:GreenYellow; font-size: 70px;'>正确! </span>","null","","","","","","","","","","","","","","","","","","","","","","","feedback_test"
"","","","","","psychophysics","225","549495","0.0-13.0-0.0-1.0-0.0-0.8","793","","f","","","","","","","","","","","","","key","f","16.803139130435074","960","536","j","false","img/T_ambi40.png","三角","image_first",""
"","","","","","html-keyboard-response","226","549805","0.0-13.0-0.0-1.0-0.0-1.8","null","<span style='color:red; font-size: 70px;'>错误! </span>","null","","","","","","","","","","","","","","","","","","","","","","","feedback_test"
"","","","","","psychophysics","227","551687","0.0-13.0-0.0-1.0-0.0-0.9","722","","j","","","","","","","","","","","","","key","j","16.66190178571352","960","536","j","true","img/S_ambi40.png","方形","image_first",""
"","","","","","html-keyboard-response","228","551995","0.0-13.0-0.0-1.0-0.0-1.9","null","<span style='color:GreenYellow; font-size: 70px;'>正确! </span>","null","","","","","","","","","","","","","","","","","","","","","","","feedback_test"
"","","","","","psychophysics","229","554030","0.0-13.0-0.0-1.0-0.0-0.10","881","","j","","","","","","","","","","","","","key","j","16.658132231405606","960","536","j","true","img/C_ambi40.png","圆形","image_first",""
"","","","","","html-keyboard-response","230","554334","0.0-13.0-0.0-1.0-0.0-1.10","null","<span style='color:GreenYellow; font-size: 70px;'>正确! </span>","null","","","","","","","","","","","","","","","","","","","","","","","feedback_test"
"","","","","","psychophysics","231","556393","0.0-13.0-0.0-1.0-0.0-0.11","899","","j","","","","","","","","","","","","","key","j","17.223457627118787","960","536","j","true","img/T_ambi40.png","三角","image_first",""
"","","","","","html-keyboard-response","232","556695","0.0-13.0-0.0-1.0-0.0-1.11","null","<span style='color:GreenYellow; font-size: 70px;'>正确! </span>","null","","","","","","","","","","","","","","","","","","","","","","","feedback_test"
"","","","","","psychophysics","233","558539","0.0-13.0-0.0-1.0-0.0-0.12","692","","j","","","","","","","","","","","","","key","j","16.65815454545452","960","536","j","true","img/C_ambi40.png","圆形","image_first",""
"","","","","","html-keyboard-response","234","558840","0.0-13.0-0.0-1.0-0.0-1.12","null","<span style='color:GreenYellow; font-size: 70px;'>正确! </span>","null","","","","","","","","","","","","","","","","","","","","","","","feedback_test"
"","","","","","psychophysics","235","560482","0.0-13.0-0.0-1.0-0.0-0.13","487","","j","","","","","","","","","","","","","key","j","16.656561224489728","960","536","f","false","img/C_ambi40.png","方形","image_first",""
"","","","","","html-keyboard-response","236","560785","0.0-13.0-0.0-1.0-0.0-1.13","null","<span style='color:red; font-size: 70px;'>错误! </span>","null","","","","","","","","","","","","","","","","","","","","","","","feedback_test"
"","","","","","psychophysics","237","562730","0.0-13.0-0.0-1.0-0.0-0.14","786","","j","","","","","","","","","","","","","key","j","16.65784482758669","960","536","j","true","img/C_ambi40.png","圆形","image_first",""
"","","","","","html-keyboard-response","238","563035","0.0-13.0-0.0-1.0-0.0-1.14","null","<span style='color:GreenYellow; font-size: 70px;'>正确! </span>","null","","","","","","","","","","","","","","","","","","","","","","","feedback_test"
"","","","","","psychophysics","239","564857","0.0-13.0-0.0-1.0-0.0-0.15","671","","j","","","","","","","","","","","","","key","j","16.660342592591878","960","536","j","true","img/S_ambi40.png","方形","image_first",""
"","","","","","html-keyboard-response","240","565165","0.0-13.0-0.0-1.0-0.0-1.15","null","<span style='color:GreenYellow; font-size: 70px;'>正确! </span>","null","","","","","","","","","","","","","","","","","","","","","","","feedback_test"
"","","","","","psychophysics","241","567071","0.0-13.0-0.0-1.0-0.0-0.16","755","","f","","","","","","","","","","","","","key","f","16.6579026548672","960","536","f","true","img/T_ambi40.png","圆形","image_first",""
"","","","","","html-keyboard-response","242","567374","0.0-13.0-0.0-1.0-0.0-1.16","null","<span style='color:GreenYellow; font-size: 70px;'>正确! </span>","null","","","","","","","","","","","","","","","","","","","","","","","feedback_test"
"","","","","","psychophysics","243","569296","0.0-13.0-0.0-1.0-0.0-0.17","770","","f","","","","","","","","","","","","","key","f","17.1085765765768","960","536","j","false","img/T_ambi40.png","三角","image_first",""
"","","","","","html-keyboard-response","244","569604","0.0-13.0-0.0-1.0-0.0-1.17","null","<span style='color:red; font-size: 70px;'>错误! </span>","null","","","","","","","","","","","","","","","","","","","","","","","feedback_test"
"","","","","","psychophysics","245","571343","0.0-13.0-0.0-1.0-0.0-0.18","585","","j","","","","","","","","","","","","","key","j","16.64033009708764","960","536","f","false","img/S_ambi40.png","三角","image_first",""
"","","","","","html-keyboard-response","246","571644","0.0-13.0-0.0-1.0-0.0-1.18","null","<span style='color:red; font-size: 70px;'>错误! </span>","null","","","","","","","","","","","","","","","","","","","","","","","feedback_test"
"","","","","","psychophysics","247","573008","0.0-13.0-0.0-1.0-0.0-0.19","203","","f","","","","","","","","","","","","","key","f","16.66309876543079","960","536","j","false","img/T_ambi40.png","三角","image_first",""
"","","","","","html-keyboard-response","248","573314","0.0-13.0-0.0-1.0-0.0-1.19","null","<span style='color:red; font-size: 70px;'>错误! </span>","null","","","","","","","","","","","","","","","","","","","","","","","feedback_test"
"","","","","","psychophysics","249","575196","0.0-13.0-0.0-1.0-0.0-0.20","726","","j","","","","","","","","","","","","","key","j","16.810873873873724","960","536","f","false","img/C_ambi40.png","三角","image_first",""
"","","","","","html-keyboard-response","250","575504","0.0-13.0-0.0-1.0-0.0-1.20","null","<span style='color:red; font-size: 70px;'>错误! </span>","null","","","","","","","","","","","","","","","","","","","","","","","feedback_test"
"","","","","","psychophysics","251","577166","0.0-13.0-0.0-1.0-0.0-0.21","501","","f","","","","","","","","","","","","","key","f","16.660938775510175","960","536","j","false","img/S_ambi40.png","方形","image_first",""
"","","","","","html-keyboard-response","252","577480","0.0-13.0-0.0-1.0-0.0-1.21","null","<span style='color:red; font-size: 70px;'>错误! </span>","null","","","","","","","","","","","","","","","","","","","","","","","feedback_test"
"","","","","","psychophysics","253","579492","0.0-13.0-0.0-1.0-0.0-0.22","858","","f","","","","","","","","","","","","","key","f","17.68423684210447","960","536","f","true","img/S_ambi40.png","圆形","image_first",""
"","","","","","html-keyboard-response","254","579804","0.0-13.0-0.0-1.0-0.0-1.22","null","<span style='color:GreenYellow; font-size: 70px;'>正确! </span>","null","","","","","","","","","","","","","","","","","","","","","","","feedback_test"
"","","","","","psychophysics","255","581914","0.0-13.0-0.0-1.0-0.0-0.23","950","","f","","","","","","","","","","","","","key","f","16.65988800000027","960","536","f","true","img/T_ambi40.png","方形","image_first",""
"","","","","","html-keyboard-response","256","582225","0.0-13.0-0.0-1.0-0.0-1.23","null","<span style='color:GreenYellow; font-size: 70px;'>正确! </span>","null","","","","","","","","","","","","","","","","","","","","","","","feedback_test"
"","","","","","psychophysics","257","584024","0.0-13.0-0.0-1.0-0.0-0.24","642","","f","","","","","","","","","","","","","key","f","16.65755140186814","960","536","j","false","img/T_ambi40.png","三角","image_first",""
"","","","","","html-keyboard-response","258","584334","0.0-13.0-0.0-1.0-0.0-1.24","null","<span style='color:red; font-size: 70px;'>错误! </span>","null","","","","","","","","","","","","","","","","","","","","","","","feedback_test"
"","","","","","psychophysics","259","586483","0.0-13.0-0.0-1.0-0.0-0.25","988","","j","","","","","","","","","","","","","key","j","16.657914062499913","960","536","j","true","img/T_ambi40.png","三角","image_first",""
"","","","","","html-keyboard-response","260","586784","0.0-13.0-0.0-1.0-0.0-1.25","null","<span style='color:GreenYellow; font-size: 70px;'>正确! </span>","null","","","","","","","","","","","","","","","","","","","","","","","feedback_test"
"","","","","","psychophysics","261","588787","0.0-13.0-0.0-1.0-0.0-0.26","842","","j","","","","","","","","","","","","","key","j","16.656858333334092","960","536","f","false","img/C_ambi40.png","三角","image_first",""
"","","","","","html-keyboard-response","262","589095","0.0-13.0-0.0-1.0-0.0-1.26","null","<span style='color:red; font-size: 70px;'>错误! </span>","null","","","","","","","","","","","","","","","","","","","","","","","feedback_test"
"","","","","","psychophysics","263","591266","0.0-13.0-0.0-1.0-0.0-0.27","1020","","f","","","","","","","","","","","","","key","f","16.657209302325796","960","536","f","true","img/T_ambi40.png","圆形","image_first",""
"","","","","","html-keyboard-response","264","591575","0.0-13.0-0.0-1.0-0.0-1.27","null","<span style='color:GreenYellow; font-size: 70px;'>正确! </span>","null","","","","","","","","","","","","","","","","","","","","","","","feedback_test"
"","","","","","psychophysics","265","593633","0.0-13.0-0.0-1.0-0.0-0.28","906","","j","","","","","","","","","","","","","key","j","16.649778688524002","960","536","j","true","img/S_ambi40.png","方形","image_first",""
"","","","","","html-keyboard-response","266","593944","0.0-13.0-0.0-1.0-0.0-1.28","null","<span style='color:GreenYellow; font-size: 70px;'>正确! </span>","null","","","","","","","","","","","","","","","","","","","","","","","feedback_test"
"","","","","","psychophysics","267","595915","0.0-13.0-0.0-1.0-0.0-0.29","807","","f","","","","","","","","","","","","","key","f","17.71931818181818","960","536","f","true","img/S_ambi40.png","三角","image_first",""
"","","","","","html-keyboard-response","268","596235","0.0-13.0-0.0-1.0-0.0-1.29","null","<span style='color:GreenYellow; font-size: 70px;'>正确! </span>","null","","","","","","","","","","","","","","","","","","","","","","","feedback_test"
"","","","","","psychophysics","269","598328","0.0-13.0-0.0-1.0-0.0-0.30","936","","f","","","","","","","","","","","","","key","f","16.66056799999997","960","536","f","true","img/C_ambi40.png","方形","image_first",""
"","","","","","html-keyboard-response","270","598635","0.0-13.0-0.0-1.0-0.0-1.30","null","<span style='color:GreenYellow; font-size: 70px;'>正确! </span>","null","","","","","","","","","","","","","","","","","","","","","","","feedback_test"
"","","","","","psychophysics","271","600676","0.0-13.0-0.0-1.0-0.0-0.31","886","","f","","","","","","","","","","","","","key","f","16.661196721311217","960","536","f","true","img/S_ambi40.png","圆形","image_first",""
"","","","","","html-keyboard-response","272","600984","0.0-13.0-0.0-1.0-0.0-1.31","null","<span style='color:GreenYellow; font-size: 70px;'>正确! </span>","null","","","","","","","","","","","","","","","","","","","","","","","feedback_test"
"","","","","","psychophysics","273","602960","0.0-13.0-0.0-1.0-0.0-0.32","822","","f","","","","","","","","","","","","","key","f","16.660161016948948","960","536","f","true","img/T_ambi40.png","方形","image_first",""
"","","","","","html-keyboard-response","274","603265","0.0-13.0-0.0-1.0-0.0-1.32","null","<span style='color:GreenYellow; font-size: 70px;'>正确! </span>","null","","","","","","","","","","","","","","","","","","","","","","","feedback_test"
"","","","","","psychophysics","275","605133","0.0-13.0-0.0-1.0-0.0-0.33","711","","j","","","","","","","","","","","","","key","j","16.966486238532724","960","536","j","true","img/C_ambi40.png","圆形","image_first",""
"","","","","","html-keyboard-response","276","605435","0.0-13.0-0.0-1.0-0.0-1.33","null","<span style='color:GreenYellow; font-size: 70px;'>正确! </span>","null","","","","","","","","","","","","","","","","","","","","","","","feedback_test"
"","","","","","psychophysics","277","607249","0.0-13.0-0.0-1.0-0.0-0.34","663","","j","","","","","","","","","","","","","key","j","16.857171428571675","960","536","j","true","img/S_ambi40.png","方形","image_first",""
"","","","","","html-keyboard-response","278","607554","0.0-13.0-0.0-1.0-0.0-1.34","null","<span style='color:GreenYellow; font-size: 70px;'>正确! </span>","null","","","","","","","","","","","","","","","","","","","","","","","feedback_test"
"","","","","","psychophysics","279","609674","0.0-13.0-0.0-1.0-0.0-0.35","960","","j","","","","","","","","","","","","","key","j","16.659984126984554","960","536","j","true","img/C_ambi40.png","圆形","image_first",""
"","","","","","html-keyboard-response","280","609984","0.0-13.0-0.0-1.0-0.0-1.35","null","<span style='color:GreenYellow; font-size: 70px;'>正确! </span>","null","","","","","","","","","","","","","","","","","","","","","","","feedback_test"
"","","","","","psychophysics","281","612113","0.0-13.0-0.0-1.0-0.0-0.36","978","","j","","","","","","","","","","","","","key","j","16.657690476190062","960","536","j","true","img/T_ambi40.png","三角","image_first",""
"","","","","","html-keyboard-response","282","612414","0.0-13.0-0.0-1.0-0.0-1.36","null","<span style='color:GreenYellow; font-size: 70px;'>正确! </span>","null","","","","","","","","","","","","","","","","","","","","","","","feedback_test"
"","","","","","psychophysics","283","614335","0.0-13.0-0.0-1.0-0.0-0.37","768","","f","","","","","","","","","","","","","key","f","16.65479824561401","960","536","f","true","img/S_ambi40.png","圆形","image_first",""
"","","","","","html-keyboard-response","284","614644","0.0-13.0-0.0-1.0-0.0-1.37","null","<span style='color:GreenYellow; font-size: 70px;'>正确! </span>","null","","","","","","","","","","","","","","","","","","","","","","","feedback_test"
"","","","","","psychophysics","285","616558","0.0-13.0-0.0-1.0-0.0-0.38","761","","j","","","","","","","","","","","","","key","j","17.915009433962624","960","536","j","true","img/T_ambi40.png","三角","image_first",""
"","","","","","html-keyboard-response","286","616864","0.0-13.0-0.0-1.0-0.0-1.38","null","<span style='color:GreenYellow; font-size: 70px;'>正确! </span>","null","","","","","","","","","","","","","","","","","","","","","","","feedback_test"
"","","","","","psychophysics","287","618632","0.0-13.0-0.0-1.0-0.0-0.39","616","","j","","","","","","","","","","","","","key","j","16.654704761905375","960","536","j","true","img/S_ambi40.png","方形","image_first",""
"","","","","","html-keyboard-response","288","618935","0.0-13.0-0.0-1.0-0.0-1.39","null","<span style='color:GreenYellow; font-size: 70px;'>正确! </span>","null","","","","","","","","","","","","","","","","","","","","","","","feedback_test"
"","","","","","psychophysics","289","620774","0.0-13.0-0.0-1.0-0.0-0.40","679","","f","","","","","","","","","","","","","key","f","16.65893577981672","960","536","j","false","img/C_ambi40.png","圆形","image_first",""
"","","","","","html-keyboard-response","290","621075","0.0-13.0-0.0-1.0-0.0-1.40","null","<span style='color:red; font-size: 70px;'>错误! </span>","null","","","","","","","","","","","","","","","","","","","","","","","feedback_test"
"","","","","","psychophysics","291","623427","0.0-13.0-0.0-1.0-0.0-0.41","1197","","f","","","","","","","","","","","","","key","f","16.660092857142445","960","536","f","true","img/C_ambi40.png","三角","image_first",""
"","","","","","html-keyboard-response","292","623740","0.0-13.0-0.0-1.0-0.0-1.41","null","<span style='color:GreenYellow; font-size: 70px;'>正确! </span>","null","","","","","","","","","","","","","","","","","","","","","","","feedback_test"
"","","","","","psychophysics","293","625937","0.0-13.0-0.0-1.0-0.0-0.42","1042","","f","","","","","","","","","","","","","key","f","17.457487999999895","960","536","f","true","img/T_ambi40.png","圆形","image_first",""
"","","","","","html-keyboard-response","294","626245","0.0-13.0-0.0-1.0-0.0-1.42","null","<span style='color:GreenYellow; font-size: 70px;'>正确! </span>","null","","","","","","","","","","","","","","","","","","","","","","","feedback_test"
"","","","","","psychophysics","295","628083","0.0-13.0-0.0-1.0-0.0-0.43","678","","j","","","","","","","","","","","","","key","j","16.66117431192633","960","536","j","true","img/S_ambi40.png","方形","image_first",""
"","","","","","html-keyboard-response","296","628385","0.0-13.0-0.0-1.0-0.0-1.43","null","<span style='color:GreenYellow; font-size: 70px;'>正确! </span>","null","","","","","","","","","","","","","","","","","","","","","","","feedback_test"
"","","","","","psychophysics","297","630312","0.0-13.0-0.0-1.0-0.0-0.44","770","","f","","","","","","","","","","","","","key","f","16.65613913043483","960","536","f","true","img/C_ambi40.png","方形","image_first",""
"","","","","","html-keyboard-response","298","630625","0.0-13.0-0.0-1.0-0.0-1.44","null","<span style='color:GreenYellow; font-size: 70px;'>正确! </span>","null","","","","","","","","","","","","","","","","","","","","","","","feedback_test"
"","","","","","psychophysics","299","632625","0.0-13.0-0.0-1.0-0.0-0.45","840","","f","","","","","","","","","","","","","key","f","16.65757142857085","960","536","f","true","img/S_ambi40.png","三角","image_first",""
"","","","","","html-keyboard-response","300","632935","0.0-13.0-0.0-1.0-0.0-1.45","null","<span style='color:GreenYellow; font-size: 70px;'>正确! </span>","null","","","","","","","","","","","","","","","","","","","","","","","feedback_test"
"","","","","","psychophysics","301","634784","0.0-13.0-0.0-1.0-0.0-0.46","696","","j","","","","","","","","","","","","","key","j","16.658081818182573","960","536","j","true","img/C_ambi40.png","圆形","image_first",""
"","","","","","html-keyboard-response","302","635085","0.0-13.0-0.0-1.0-0.0-1.46","null","<span style='color:GreenYellow; font-size: 70px;'>正确! </span>","null","","","","","","","","","","","","","","","","","","","","","","","feedback_test"
"","","","","","psychophysics","303","637177","0.0-13.0-0.0-1.0-0.0-0.47","942","","f","","","","","","","","","","","","","key","f","16.644677419355325","960","536","f","true","img/T_ambi40.png","方形","image_first",""
"","","","","","html-keyboard-response","304","637485","0.0-13.0-0.0-1.0-0.0-1.47","null","<span style='color:GreenYellow; font-size: 70px;'>正确! </span>","null","","","","","","","","","","","","","","","","","","","","","","","feedback_test"
"","","","","","psychophysics","305","639439","0.0-13.0-0.0-1.0-0.0-0.48","802","","j","","","","","","","","","","","","","key","j","16.65491379310321","960","536","j","true","img/C_ambi40.png","圆形","image_first",""
"","","","","","html-keyboard-response","306","639744","0.0-13.0-0.0-1.0-0.0-1.48","null","<span style='color:GreenYellow; font-size: 70px;'>正确! </span>","null","","","","","","","","","","","","","","","","","","","","","","","feedback_test"
"","","","","","psychophysics","307","641945","0.0-13.0-0.0-1.0-0.0-0.49","1044","","j","","","","","","","","","","","","","key","j","16.656305343511637","960","536","j","true","img/T_ambi40.png","三角","image_first",""
"","","","","","html-keyboard-response","308","642255","0.0-13.0-0.0-1.0-0.0-1.49","null","<span style='color:GreenYellow; font-size: 70px;'>正确! </span>","null","","","","","","","","","","","","","","","","","","","","","","","feedback_test"
"","","","","","psychophysics","309","644356","0.0-13.0-0.0-1.0-0.0-0.50","941","","f","","","","","","","","","","","","","key","f","16.930951219513005","960","536","f","true","img/T_ambi40.png","方形","image_first",""
"","","","","","html-keyboard-response","310","644665","0.0-13.0-0.0-1.0-0.0-1.50","null","<span style='color:GreenYellow; font-size: 70px;'>正确! </span>","null","","","","","","","","","","","","","","","","","","","","","","","feedback_test"
"","","","","","psychophysics","311","646599","0.0-13.0-0.0-1.0-0.0-0.51","783","","f","","","","","","","","","","","","","key","f","16.654982608696447","960","536","f","true","img/T_ambi40.png","圆形","image_first",""
"","","","","","html-keyboard-response","312","646905","0.0-13.0-0.0-1.0-0.0-1.51","null","<span style='color:GreenYellow; font-size: 70px;'>正确! </span>","null","","","","","","","","","","","","","","","","","","","","","","","feedback_test"
"","","","","","psychophysics","313","648665","0.0-13.0-0.0-1.0-0.0-0.52","600","","j","","","","","","","","","","","","","key","j","16.65759047619067","960","536","j","true","img/S_ambi40.png","方形","image_first",""
"","","","","","html-keyboard-response","314","648980","0.0-13.0-0.0-1.0-0.0-1.52","null","<span style='color:GreenYellow; font-size: 70px;'>正确! </span>","null","","","","","","","","","","","","","","","","","","","","","","","feedback_test"
"","","","","","psychophysics","315","650870","0.0-13.0-0.0-1.0-0.0-0.53","733","","j","","","","","","","","","","","","","key","j","16.658955357143505","960","536","f","false","img/C_ambi40.png","方形","image_first",""
"","","","","","html-keyboard-response","316","651180","0.0-13.0-0.0-1.0-0.0-1.53","null","<span style='color:red; font-size: 70px;'>错误! </span>","null","","","","","","","","","","","","","","","","","","","","","","","feedback_test"
"","","","","","psychophysics","317","653114","0.0-13.0-0.0-1.0-0.0-0.54","774","","f","","","","","","","","","","","","","key","f","16.658034782608688","960","536","f","true","img/S_ambi40.png","三角","image_first",""
"","","","","","html-keyboard-response","318","653425","0.0-13.0-0.0-1.0-0.0-1.54","null","<span style='color:GreenYellow; font-size: 70px;'>正确! </span>","null","","","","","","","","","","","","","","","","","","","","","","","feedback_test"
"","","","","","psychophysics","319","655339","0.0-13.0-0.0-1.0-0.0-0.55","763","","f","","","","","","","","","","","","","key","f","16.605473214285407","960","536","f","true","img/S_ambi40.png","圆形","image_first",""
"","","","","","html-keyboard-response","320","655640","0.0-13.0-0.0-1.0-0.0-1.55","null","<span style='color:GreenYellow; font-size: 70px;'>正确! </span>","null","","","","","","","","","","","","","","","","","","","","","","","feedback_test"
"","","","","","psychophysics","321","657578","0.0-13.0-0.0-1.0-0.0-0.56","786","","f","","","","","","","","","","","","","key","f","16.60330434782613","960","536","f","true","img/C_ambi40.png","三角","image_first",""
"","","","","","html-keyboard-response","322","657885","0.0-13.0-0.0-1.0-0.0-1.56","null","<span style='color:GreenYellow; font-size: 70px;'>正确! </span>","null","","","","","","","","","","","","","","","","","","","","","","","feedback_test"
"","","","","","psychophysics","323","659659","0.0-13.0-0.0-1.0-0.0-0.57","619","","f","","","","","","","","","","","","","key","f","17.834272727272662","960","536","j","false","img/C_ambi40.png","圆形","image_first",""
"","","","","","html-keyboard-response","324","659965","0.0-13.0-0.0-1.0-0.0-1.57","null","<span style='color:red; font-size: 70px;'>错误! </span>","null","","","","","","","","","","","","","","","","","","","","","","","feedback_test"
"","","","","","psychophysics","325","661828","0.0-13.0-0.0-1.0-0.0-0.58","703","","j","","","","","","","","","","","","","key","j","16.660900900900774","960","536","j","true","img/S_ambi40.png","方形","image_first",""
"","","","","","html-keyboard-response","326","662135","0.0-13.0-0.0-1.0-0.0-1.58","null","<span style='color:GreenYellow; font-size: 70px;'>正确! </span>","null","","","","","","","","","","","","","","","","","","","","","","","feedback_test"
"","","","","","psychophysics","327","664175","0.0-13.0-0.0-1.0-0.0-0.59","886","","j","","","","","","","","","","","","","key","j","16.66036065573781","960","536","j","true","img/T_ambi40.png","三角","image_first",""
"","","","","","html-keyboard-response","328","664485","0.0-13.0-0.0-1.0-0.0-1.59","null","<span style='color:GreenYellow; font-size: 70px;'>正确! </span>","null","","","","","","","","","","","","","","","","","","","","","","","feedback_test"
"","","","","","html-keyboard-response","329","667668","0.0-13.0-0.0-1.0-1.0","3180","<style>.context{color:white; font-size: 35px; line-height:40px}</style>                            <div><p class='context'>您正确回答了80% 的试次。</p><p class='context'>您的平均反应时为822毫秒。</p><p class='context'>请按任意键进入休息</p></div>"," ","","","","","","","","","","","","","","","","","","","","","","",""
"","","","","","html-button-response","330","729856","0.0-13.0-0.0-1.0-2.0","62184","
                    <p>您当前还剩余3组实验</p>
                    <p>现在是休息时间，当您结束休息后，您可以点击 结束休息 按钮 继续</p>
                    <p>建议休息时间还剩余<span id=""iii"">60</span>秒</p>","0","","","","","","","","","","","","","","","","","","","","","","",""
"","","","","","psychophysics","331","731669","0.0-13.0-0.0-1.0-0.1-0.60","654","","j","","","","","","","","","","","","","key","j","16.657462962963447","960","536","j","true","img/S_ambi40.png","方形","image_first",""
"","","","","","html-keyboard-response","332","731975","0.0-13.0-0.0-1.0-0.1-1.60","null","<span style='color:GreenYellow; font-size: 70px;'>正确! </span>","null","","","","","","","","","","","","","","","","","","","","","","","feedback_test"
"","","","","","psychophysics","333","733777","0.0-13.0-0.0-1.0-0.1-0.61","646","","j","","","","","","","","","","","","","key","j","16.661691588784837","960","536","j","true","img/T_ambi40.png","三角","image_first",""
"","","","","","html-keyboard-response","334","734084","0.0-13.0-0.0-1.0-0.1-1.61","null","<span style='color:GreenYellow; font-size: 70px;'>正确! </span>","null","","","","","","","","","","","","","","","","","","","","","","","feedback_test"
"","","","","","psychophysics","335","735769","0.0-13.0-0.0-1.0-0.1-0.62","525","","j","","","","","","","","","","","","","key","j","17.355895833333005","960","536","f","false","img/C_ambi40.png","方形","image_first",""
"","","","","","html-keyboard-response","336","736074","0.0-13.0-0.0-1.0-0.1-1.62","null","<span style='color:red; font-size: 70px;'>错误! </span>","null","","","","","","","","","","","","","","","","","","","","","","","feedback_test"
"","","","","","psychophysics","337","737843","0.0-13.0-0.0-1.0-0.1-0.63","612","","f","","","","","","","","","","","","","key","f","16.660799999999636","960","536","f","true","img/S_ambi40.png","三角","image_first",""
"","","","","","html-keyboard-response","338","738156","0.0-13.0-0.0-1.0-0.1-1.63","null","<span style='color:GreenYellow; font-size: 70px;'>正确! </span>","null","","","","","","","","","","","","","","","","","","","","","","","feedback_test"
"","","","","","psychophysics","339","740053","0.0-13.0-0.0-1.0-0.1-0.64","743","","j","","","","","","","","","","","","","key","j","16.65988495575256","960","536","j","true","img/T_ambi40.png","三角","image_first",""
"","","","","","html-keyboard-response","340","740365","0.0-13.0-0.0-1.0-0.1-1.64","null","<span style='color:GreenYellow; font-size: 70px;'>正确! </span>","null","","","","","","","","","","","","","","","","","","","","","","","feedback_test"
"","","","","","psychophysics","341","742389","0.0-13.0-0.0-1.0-0.1-0.65","862","","j","","","","","","","","","","","","","key","j","16.657474999999977","960","536","j","true","img/C_ambi40.png","圆形","image_first",""
"","","","","","html-keyboard-response","342","742695","0.0-13.0-0.0-1.0-0.1-1.65","null","<span style='color:GreenYellow; font-size: 70px;'>正确! </span>","null","","","","","","","","","","","","","","","","","","","","","","","feedback_test"
"","","","","","psychophysics","343","744529","0.0-13.0-0.0-1.0-0.1-0.66","675","","j","","","","","","","","","","","","","key","j","16.65754128440279","960","536","j","true","img/S_ambi40.png","方形","image_first",""
"","","","","","html-keyboard-response","344","744834","0.0-13.0-0.0-1.0-0.1-1.66","null","<span style='color:GreenYellow; font-size: 70px;'>正确! </span>","null","","","","","","","","","","","","","","","","","","","","","","","feedback_test"
"","","","","","psychophysics","345","746697","0.0-13.0-0.0-1.0-0.1-0.67","706","","f","","","","","","","","","","","","","key","f","16.6610630630633","960","536","f","true","img/T_ambi40.png","圆形","image_first",""
"","","","","","html-keyboard-response","346","747010","0.0-13.0-0.0-1.0-0.1-1.67","null","<span style='color:GreenYellow; font-size: 70px;'>正确! </span>","null","","","","","","","","","","","","","","","","","","","","","","","feedback_test"
"","","","","","psychophysics","347","748702","0.0-13.0-0.0-1.0-0.1-0.68","537","","j","","","","","","","","","","","","","key","j","16.65390999999945","960","536","j","true","img/C_ambi40.png","圆形","image_first",""
"","","","","","html-keyboard-response","348","749004","0.0-13.0-0.0-1.0-0.1-1.68","null","<span style='color:GreenYellow; font-size: 70px;'>正确! </span>","null","","","","","","","","","","","","","","","","","","","","","","","feedback_test"
"","","","","","psychophysics","349","750994","0.0-13.0-0.0-1.0-0.1-0.69","837","","f","","","","","","","","","","","","","key","f","16.65566949152597","960","536","f","true","img/T_ambi40.png","方形","image_first",""
"","","","","","html-keyboard-response","350","751304","0.0-13.0-0.0-1.0-0.1-1.69","null","<span style='color:GreenYellow; font-size: 70px;'>正确! </span>","null","","","","","","","","","","","","","","","","","","","","","","","feedback_test"
"","","","","","psychophysics","351","753209","0.0-13.0-0.0-1.0-0.1-0.70","745","","f","","","","","","","","","","","","","key","f","16.655460176991497","960","536","f","true","img/C_ambi40.png","三角","image_first",""
"","","","","","html-keyboard-response","352","753512","0.0-13.0-0.0-1.0-0.1-1.70","null","<span style='color:GreenYellow; font-size: 70px;'>正确! </span>","null","","","","","","","","","","","","","","","","","","","","","","","feedback_test"
"","","","","","psychophysics","353","755537","0.0-13.0-0.0-1.0-0.1-0.71","868","","f","","","","","","","","","","","","","key","f","16.797445378151817","960","536","f","true","img/S_ambi40.png","圆形","image_first",""
"","","","","","html-keyboard-response","354","755845","0.0-13.0-0.0-1.0-0.1-1.71","null","<span style='color:GreenYellow; font-size: 70px;'>正确! </span>","null","","","","","","","","","","","","","","","","","","","","","","","feedback_test"
"","","","","","psychophysics","355","757720","0.0-13.0-0.0-1.0-0.1-0.72","718","","j","","","","","","","","","","","","","key","j","16.657973214285448","960","536","j","true","img/S_ambi40.png","方形","image_first",""
"","","","","","html-keyboard-response","356","758035","0.0-13.0-0.0-1.0-0.1-1.72","null","<span style='color:GreenYellow; font-size: 70px;'>正确! </span>","null","","","","","","","","","","","","","","","","","","","","","","","feedback_test"
"","","","","","psychophysics","357","759828","0.0-13.0-0.0-1.0-0.1-0.73","643","","j","","","","","","","","","","","","","key","j","17.479079207920673","960","536","j","true","img/S_ambi40.png","方形","image_first",""
"","","","","","html-keyboard-response","358","760140","0.0-13.0-0.0-1.0-0.1-1.73","null","<span style='color:GreenYellow; font-size: 70px;'>正确! </span>","null","","","","","","","","","","","","","","","","","","","","","","","feedback_test"
"","","","","","psychophysics","359","762019","0.0-13.0-0.0-1.0-0.1-0.74","724","","f","","","","","","","","","","","","","key","f","16.656749999999843","960","536","f","true","img/S_ambi40.png","三角","image_first",""
"","","","","","html-keyboard-response","360","762334","0.0-13.0-0.0-1.0-0.1-1.74","null","<span style='color:GreenYellow; font-size: 70px;'>正确! </span>","null","","","","","","","","","","","","","","","","","","","","","","","feedback_test"
"","","","","","psychophysics","361","764286","0.0-13.0-0.0-1.0-0.1-0.75","792","","f","","","","","","","","","","","","","key","f","16.65882758620689","960","536","f","true","img/C_ambi40.png","方形","image_first",""
"","","","","","html-keyboard-response","362","764605","0.0-13.0-0.0-1.0-0.1-1.75","null","<span style='color:GreenYellow; font-size: 70px;'>正确! </span>","null","","","","","","","","","","","","","","","","","","","","","","","feedback_test"
"","","","","","psychophysics","363","766559","0.0-13.0-0.0-1.0-0.1-0.76","796","","j","","","","","","","","","","","","","key","j","16.657594827586856","960","536","j","true","img/T_ambi40.png","三角","image_first",""
"","","","","","html-keyboard-response","364","766864","0.0-13.0-0.0-1.0-0.1-1.76","null","<span style='color:GreenYellow; font-size: 70px;'>正确! </span>","null","","","","","","","","","","","","","","","","","","","","","","","feedback_test"
"","","","","","psychophysics","365","768736","0.0-13.0-0.0-1.0-0.1-0.77","711","","f","","","","","","","","","","","","","key","f","16.65781981982018","960","536","f","true","img/C_ambi40.png","三角","image_first",""
"","","","","","html-keyboard-response","366","769040","0.0-13.0-0.0-1.0-0.1-1.77","null","<span style='color:GreenYellow; font-size: 70px;'>正确! </span>","null","","","","","","","","","","","","","","","","","","","","","","","feedback_test"
"","","","","","psychophysics","367","770929","0.0-13.0-0.0-1.0-0.1-0.78","735","","f","","","","","","","","","","","","","key","f","16.660336283185988","960","536","f","true","img/T_ambi40.png","圆形","image_first",""
"","","","","","html-keyboard-response","368","771235","0.0-13.0-0.0-1.0-0.1-1.78","null","<span style='color:GreenYellow; font-size: 70px;'>正确! </span>","null","","","","","","","","","","","","","","","","","","","","","","","feedback_test"
"","","","","","psychophysics","369","773245","0.0-13.0-0.0-1.0-0.1-0.79","852","","j","","","","","","","","","","","","","key","j","16.660450000000612","960","536","j","true","img/T_ambi40.png","三角","image_first",""
"","","","","","html-keyboard-response","370","773555","0.0-13.0-0.0-1.0-0.1-1.79","null","<span style='color:GreenYellow; font-size: 70px;'>正确! </span>","null","","","","","","","","","","","","","","","","","","","","","","","feedback_test"
"","","","","","psychophysics","371","775547","0.0-13.0-0.0-1.0-0.1-0.80","839","","j","","","","","","","","","","","","","key","j","18.019518181819215","960","536","j","true","img/C_ambi40.png","圆形","image_first",""
"","","","","","html-keyboard-response","372","775855","0.0-13.0-0.0-1.0-0.1-1.80","null","<span style='color:GreenYellow; font-size: 70px;'>正确! </span>","null","","","","","","","","","","","","","","","","","","","","","","","feedback_test"
"","","","","","psychophysics","373","777759","0.0-13.0-0.0-1.0-0.1-0.81","752","","f","","","","","","","","","","","","","key","f","16.657912280701566","960","536","f","true","img/S_ambi40.png","圆形","image_first",""
"","","","","","html-keyboard-response","374","778064","0.0-13.0-0.0-1.0-0.1-1.81","null","<span style='color:GreenYellow; font-size: 70px;'>正确! </span>","null","","","","","","","","","","","","","","","","","","","","","","","feedback_test"
"","","","","","psychophysics","375","780036","0.0-13.0-0.0-1.0-0.1-0.82","813","","f","","","","","","","","","","","","","key","f","16.660222222221595","960","536","f","true","img/T_ambi40.png","方形","image_first",""
"","","","","","html-keyboard-response","376","780345","0.0-13.0-0.0-1.0-0.1-1.82","null","<span style='color:GreenYellow; font-size: 70px;'>正确! </span>","null","","","","","","","","","","","","","","","","","","","","","","","feedback_test"
"","","","","","psychophysics","377","782158","0.0-13.0-0.0-1.0-0.1-0.83","653","","j","","","","","","","","","","","","","key","j","16.656527777778038","960","536","j","true","img/C_ambi40.png","圆形","image_first",""
"","","","","","html-keyboard-response","378","782465","0.0-13.0-0.0-1.0-0.1-1.83","null","<span style='color:GreenYellow; font-size: 70px;'>正确! </span>","null","","","","","","","","","","","","","","","","","","","","","","","feedback_test"
"","","","","","psychophysics","379","784306","0.0-13.0-0.0-1.0-0.1-0.84","687","","j","","","","","","","","","","","","","key","j","16.814247706422258","960","536","j","true","img/S_ambi40.png","方形","image_first",""
"","","","","","html-keyboard-response","380","784614","0.0-13.0-0.0-1.0-0.1-1.84","null","<span style='color:GreenYellow; font-size: 70px;'>正确! </span>","null","","","","","","","","","","","","","","","","","","","","","","","feedback_test"
"","","","","","psychophysics","381","786413","0.0-13.0-0.0-1.0-0.1-0.85","643","","f","","","","","","","","","","","","","key","f","16.661327102803625","960","536","f","true","img/C_ambi40.png","方形","image_first",""
"","","","","","html-keyboard-response","382","786725","0.0-13.0-0.0-1.0-0.1-1.85","null","<span style='color:GreenYellow; font-size: 70px;'>正确! </span>","null","","","","","","","","","","","","","","","","","","","","","","","feedback_test"
"","","","","","psychophysics","383","788554","0.0-13.0-0.0-1.0-0.1-0.86","670","","j","","","","","","","","","","","","","key","j","16.658055045871585","960","536","j","true","img/C_ambi40.png","圆形","image_first",""
"","","","","","html-keyboard-response","384","788865","0.0-13.0-0.0-1.0-0.1-1.86","null","<span style='color:GreenYellow; font-size: 70px;'>正确! </span>","null","","","","","","","","","","","","","","","","","","","","","","","feedback_test"
"","","","","","psychophysics","385","790840","0.0-13.0-0.0-1.0-0.1-0.87","824","","j","","","","","","","","","","","","","key","j","16.66150847457594","960","536","j","true","img/S_ambi40.png","方形","image_first",""
"","","","","","html-keyboard-response","386","791145","0.0-13.0-0.0-1.0-0.1-1.87","null","<span style='color:GreenYellow; font-size: 70px;'>正确! </span>","null","","","","","","","","","","","","","","","","","","","","","","","feedback_test"
"","","","","","psychophysics","387","793569","0.0-13.0-0.0-1.0-0.1-0.88","1271","","j","","","","","","","","","","","","","key","j","16.660172413792942","960","536","j","true","img/T_ambi40.png","三角","image_first",""
"","","","","","html-keyboard-response","388","793874","0.0-13.0-0.0-1.0-0.1-1.88","null","<span style='color:GreenYellow; font-size: 70px;'>正确! </span>","null","","","","","","","","","","","","","","","","","","","","","","","feedback_test"
"","","","","","psychophysics","389","795768","0.0-13.0-0.0-1.0-0.1-0.89","738","","f","","","","","","","","","","","","","key","f","17.2725229357805","960","536","f","true","img/S_ambi40.png","圆形","image_first",""
"","","","","","html-keyboard-response","390","796075","0.0-13.0-0.0-1.0-0.1-1.89","null","<span style='color:GreenYellow; font-size: 70px;'>正确! </span>","null","","","","","","","","","","","","","","","","","","","","","","","feedback_test"
"","","","","","psychophysics","391","798082","0.0-13.0-0.0-1.0-0.1-0.90","853","","f","","","","","","","","","","","","","key","f","16.657641666666798","960","536","f","true","img/T_ambi40.png","圆形","image_first",""
"","","","","","html-keyboard-response","392","798385","0.0-13.0-0.0-1.0-0.1-1.90","null","<span style='color:GreenYellow; font-size: 70px;'>正确! </span>","null","","","","","","","","","","","","","","","","","","","","","","","feedback_test"
"","","","","","psychophysics","393","800380","0.0-13.0-0.0-1.0-0.1-0.91","835","","f","","","","","","","","","","","","","key","f","16.657336134453764","960","536","f","true","img/C_ambi40.png","三角","image_first",""
"","","","","","html-keyboard-response","394","800685","0.0-13.0-0.0-1.0-0.1-1.91","null","<span style='color:GreenYellow; font-size: 70px;'>正确! </span>","null","","","","","","","","","","","","","","","","","","","","","","","feedback_test"
"","","","","","psychophysics","395","802968","0.0-13.0-0.0-1.0-0.1-0.92","1123","","f","","","","","","","","","","","","","key","f","16.656154411764447","960","536","f","true","img/T_ambi40.png","方形","image_first",""
"","","","","","html-keyboard-response","396","803275","0.0-13.0-0.0-1.0-0.1-1.92","null","<span style='color:GreenYellow; font-size: 70px;'>正确! </span>","null","","","","","","","","","","","","","","","","","","","","","","","feedback_test"
"","","","","","psychophysics","397","805173","0.0-13.0-0.0-1.0-0.1-0.93","747","","j","","","","","","","","","","","","","key","j","17.432476635514238","960","536","j","true","img/C_ambi40.png","圆形","image_first",""
"","","","","","html-keyboard-response","398","805474","0.0-13.0-0.0-1.0-0.1-1.93","null","<span style='color:GreenYellow; font-size: 70px;'>正确! </span>","null","","","","","","","","","","","","","","","","","","","","","","","feedback_test"
"","","","","","psychophysics","399","807324","0.0-13.0-0.0-1.0-0.1-0.94","698","","f","","","","","","","","","","","","","key","f","16.655321100916833","960","536","f","true","img/S_ambi40.png","三角","image_first",""
"","","","","","html-keyboard-response","400","807635","0.0-13.0-0.0-1.0-0.1-1.94","null","<span style='color:GreenYellow; font-size: 70px;'>正确! </span>","null","","","","","","","","","","","","","","","","","","","","","","","feedback_test"
"","","","","","psychophysics","401","809552","0.0-13.0-0.0-1.0-0.1-0.95","761","","j","","","","","","","","","","","","","key","j","16.657771929824854","960","536","j","true","img/T_ambi40.png","三角","image_first",""
"","","","","","html-keyboard-response","402","809855","0.0-13.0-0.0-1.0-0.1-1.95","null","<span style='color:GreenYellow; font-size: 70px;'>正确! </span>","null","","","","","","","","","","","","","","","","","","","","","","","feedback_test"
"","","","","","psychophysics","403","811797","0.0-13.0-0.0-1.0-0.1-0.96","791","","f","","","","","","","","","","","","","key","f","16.65414782608758","960","536","f","true","img/S_ambi40.png","三角","image_first",""
"","","","","","html-keyboard-response","404","812104","0.0-13.0-0.0-1.0-0.1-1.96","null","<span style='color:GreenYellow; font-size: 70px;'>正确! </span>","null","","","","","","","","","","","","","","","","","","","","","","","feedback_test"
"","","","","","psychophysics","405","813923","0.0-13.0-0.0-1.0-0.1-0.97","668","","f","","","","","","","","","","","","","key","f","16.657759259258725","960","536","f","true","img/S_ambi40.png","圆形","image_first",""
"","","","","","html-keyboard-response","406","814225","0.0-13.0-0.0-1.0-0.1-1.97","null","<span style='color:GreenYellow; font-size: 70px;'>正确! </span>","null","","","","","","","","","","","","","","","","","","","","","","","feedback_test"
"","","","","","psychophysics","407","816390","0.0-13.0-0.0-1.0-0.1-0.98","1005","","f","","","","","","","","","","","","","key","f","17.617090163934694","960","536","f","true","img/T_ambi40.png","方形","image_first",""
"","","","","","html-keyboard-response","408","816695","0.0-13.0-0.0-1.0-0.1-1.98","null","<span style='color:GreenYellow; font-size: 70px;'>正确! </span>","null","","","","","","","","","","","","","","","","","","","","","","","feedback_test"
"","","","","","psychophysics","409","818870","0.0-13.0-0.0-1.0-0.1-0.99","1019","","j","","","","","","","","","","","","","key","j","16.658230769230375","960","536","j","true","img/S_ambi40.png","方形","image_first",""
"","","","","","html-keyboard-response","410","819175","0.0-13.0-0.0-1.0-0.1-1.99","null","<span style='color:GreenYellow; font-size: 70px;'>正确! </span>","null","","","","","","","","","","","","","","","","","","","","","","","feedback_test"
"","","","","","psychophysics","411","821041","0.0-13.0-0.0-1.0-0.1-0.100","708","","f","","","","","","","","","","","","","key","f","16.658711711711433","960","536","f","true","img/C_ambi40.png","方形","image_first",""
"","","","","","html-keyboard-response","412","821345","0.0-13.0-0.0-1.0-0.1-1.100","null","<span style='color:GreenYellow; font-size: 70px;'>正确! </span>","null","","","","","","","","","","","","","","","","","","","","","","","feedback_test"
"","","","","","psychophysics","413","823530","0.0-13.0-0.0-1.0-0.1-0.101","1032","","j","","","","","","","","","","","","","key","j","16.660915384615343","960","536","j","true","img/C_ambi40.png","圆形","image_first",""
"","","","","","html-keyboard-response","414","823835","0.0-13.0-0.0-1.0-0.1-1.101","null","<span style='color:GreenYellow; font-size: 70px;'>正确! </span>","null","","","","","","","","","","","","","","","","","","","","","","","feedback_test"
"","","","","","psychophysics","415","825684","0.0-13.0-0.0-1.0-0.1-0.102","689","","f","","","","","","","","","","","","","key","f","16.656481818181717","960","536","f","true","img/T_ambi40.png","圆形","image_first",""
"","","","","","html-keyboard-response","416","825994","0.0-13.0-0.0-1.0-0.1-1.102","null","<span style='color:GreenYellow; font-size: 70px;'>正确! </span>","null","","","","","","","","","","","","","","","","","","","","","","","feedback_test"
"","","","","","psychophysics","417","827990","0.0-13.0-0.0-1.0-0.1-0.103","844","","f","","","","","","","","","","","","","key","f","16.636177966101844","960","536","f","true","img/C_ambi40.png","三角","image_first",""
"","","","","","html-keyboard-response","418","828305","0.0-13.0-0.0-1.0-0.1-1.103","null","<span style='color:GreenYellow; font-size: 70px;'>正确! </span>","null","","","","","","","","","","","","","","","","","","","","","","","feedback_test"
"","","","","","psychophysics","419","830410","0.0-13.0-0.0-1.0-0.1-0.104","948","","j","","","","","","","","","","","","","key","j","16.657959999999964","960","536","j","true","img/T_ambi40.png","三角","image_first",""
"","","","","","html-keyboard-response","420","830715","0.0-13.0-0.0-1.0-0.1-1.104","null","<span style='color:GreenYellow; font-size: 70px;'>正确! </span>","null","","","","","","","","","","","","","","","","","","","","","","","feedback_test"
"","","","","","psychophysics","421","832865","0.0-13.0-0.0-1.0-0.1-0.105","990","","j","","","","","","","","","","","","","key","j","16.655906250000044","960","536","j","true","img/T_ambi40.png","三角","image_first",""
"","","","","","html-keyboard-response","422","833175","0.0-13.0-0.0-1.0-0.1-1.105","null","<span style='color:GreenYellow; font-size: 70px;'>正确! </span>","null","","","","","","","","","","","","","","","","","","","","","","","feedback_test"
"","","","","","psychophysics","423","835210","0.0-13.0-0.0-1.0-0.1-0.106","884","","j","","","","","","","","","","","","","key","j","16.658066115702873","960","536","j","true","img/C_ambi40.png","圆形","image_first",""
"","","","","","html-keyboard-response","424","835515","0.0-13.0-0.0-1.0-0.1-1.106","null","<span style='color:GreenYellow; font-size: 70px;'>正确! </span>","null","","","","","","","","","","","","","","","","","","","","","","","feedback_test"
"","","","","","psychophysics","425","837383","0.0-13.0-0.0-1.0-0.1-0.107","708","","j","","","","","","","","","","","","","key","j","16.660684684684778","960","536","j","true","img/S_ambi40.png","方形","image_first",""
"","","","","","html-keyboard-response","426","837685","0.0-13.0-0.0-1.0-0.1-1.107","null","<span style='color:GreenYellow; font-size: 70px;'>正确! </span>","null","","","","","","","","","","","","","","","","","","","","","","","feedback_test"
"","","","","","psychophysics","427","840053","0.0-13.0-0.0-1.0-0.1-0.108","1214","","j","","","","","","","","","","","","","key","j","17.79131060606045","960","536","f","false","img/C_ambi40.png","三角","image_first",""
"","","","","","html-keyboard-response","428","840355","0.0-13.0-0.0-1.0-0.1-1.108","null","<span style='color:red; font-size: 70px;'>错误! </span>","null","","","","","","","","","","","","","","","","","","","","","","","feedback_test"
"","","","","","psychophysics","429","842404","0.0-13.0-0.0-1.0-0.1-0.109","897","","j","","","","","","","","","","","","","key","j","16.65818181818097","960","536","j","true","img/S_ambi40.png","方形","image_first",""
"","","","","","html-keyboard-response","430","842710","0.0-13.0-0.0-1.0-0.1-1.109","null","<span style='color:GreenYellow; font-size: 70px;'>正确! </span>","null","","","","","","","","","","","","","","","","","","","","","","","feedback_test"
"","","","","","psychophysics","431","844745","0.0-13.0-0.0-1.0-0.1-0.110","880","","j","","","","","","","","","","","","","key","j","16.659528925619473","960","536","j","true","img/T_ambi40.png","三角","image_first",""
"","","","","","html-keyboard-response","432","845054","0.0-13.0-0.0-1.0-0.1-1.110","null","<span style='color:GreenYellow; font-size: 70px;'>正确! </span>","null","","","","","","","","","","","","","","","","","","","","","","","feedback_test"
"","","","","","psychophysics","433","846884","0.0-13.0-0.0-1.0-0.1-0.111","669","","j","","","","","","","","","","","","","key","j","16.658861111110095","960","536","j","true","img/C_ambi40.png","圆形","image_first",""
"","","","","","html-keyboard-response","434","847195","0.0-13.0-0.0-1.0-0.1-1.111","null","<span style='color:GreenYellow; font-size: 70px;'>正确! </span>","null","","","","","","","","","","","","","","","","","","","","","","","feedback_test"
