"success","timeout","failed_images","failed_audio","failed_video","trial_type","trial_index","time_elapsed","internal_node_id","rt","stimulus","response","value","item_width_mm","item_height_mm","item_width_px","px2mm","view_dist_mm","item_width_deg","px2deg","scale_factor","win_width_deg","win_height_deg","view_history","response_type","key_press","avg_frame_time","center_x","center_y","correct_response","correct","Image","word","condition","screen_id"
"true","false","[]","[]","[]","preload","0","29","0.0-0.0","","","","","","","","","","","","","","","","","","","","","","","","","",""
"","","","","","html-keyboard-response","1","5878","0.0-1.0","5846","
   <p>您好，欢迎参加本次实验。</p>
   <p>为充分保障您的权利，请确保您已经知晓并同意《参与实验同意书》以及《数据公开知情同意书》。</p>
   <p>如果您未见过上述内容，请咨询实验员。</p>
   <p>如果您选择继续实验，则表示您已经清楚两份知情同意书的内容并同意。</p>
   <p> <div style = ""color: green""><按任意键至下页></div> </p>
   "," ","","","","","","","","","","","","","","","","","","","","","","",""
"","","","","","html-keyboard-response","2","12470","0.0-2.0","6592","
   <p>本实验首先需要您填写一些基本个人信息。</p>
   <p> <div style = ""color: green""><按任意键至下页></div></p>
   "," ","","","","","","","","","","","","","","","","","","","","","","",""
"","","","","","call-function","3","12470","0.0-3.0-0.0","","","","","","","","","","","","","","","","","","","","","","","","","",""
"","","","","","survey-html-form","4","17272","0.0-3.0-1.0","4800","","{""Q0"":""22""}","","","","","","","","","","","","","","","","","","","","","","",""
"","","","","","html-button-response","5","18496","0.0-3.0-2.0","1223","<p style = 'color : white'>您的性别</p>","0","","","","","","","","","","","","","","","","","","","","","","",""
"","","","","","survey-html-form","6","29133","0.0-3.0-3.0","10636","","{""Q0"":""2001""}","","","","","","","","","","","","","","","","","","","","","","",""
"","","","","","survey-html-form","7","36269","0.0-3.0-4.0","7136","","{""Q0"":""5""}","","","","","","","","","","","","","","","","","","","","","","",""
"","","","","","virtual-chinrest","8","352005","0.0-4.0","315734","","","","85.6","53.98","402.59528102243377","4.700457993089148","608.11","8.051905620448675","50","0.948843709816643","29.8","15.84","","","","","","","","","","","",""
"true","","","","","fullscreen","9","356692","0.0-5.0","","","","","","","","","","","","","","","","","","","","","","","","","",""
"","","","","","instructions","10","447129","0.0-6.0","90436","","","","","","","","","","","","","","[{""page_index"":0,""viewing_time"":26065},{""page_index"":1,""viewing_time"":28596},{""page_index"":2,""viewing_time"":31640},{""page_index"":3,""viewing_time"":4136}]","","","","","","","","","","",""
"","","","","","psychophysics","11","449791","0.0-7.0-0.0-0.0","null","","null","","","","","","","","","","","","","key","null","16.651031645569695","768","428","j","false","img/C_ambi40.png","方形","prac_image_first",""
"","","","","","html-keyboard-response","12","450099","0.0-7.0-0.0-1.0","null","<span class='add_' style='color:yellow; font-size: 70px;'> 太慢! </span>","null","","","","","","","","","","","","","","","","","","","","","","","feedback_test"
"","","","","","psychophysics","13","452753","0.0-7.0-0.0-0.1","null","","null","","","","","","","","","","","","","key","null","16.651431249999952","768","428","f","false","img/S_ambi40.png","方形","prac_image_first",""
"","","","","","html-keyboard-response","14","453065","0.0-7.0-0.0-1.1","null","<span class='add_' style='color:yellow; font-size: 70px;'> 太慢! </span>","null","","","","","","","","","","","","","","","","","","","","","","","feedback_test"
"","","","","","psychophysics","15","455719","0.0-7.0-0.0-0.2","null","","null","","","","","","","","","","","","","key","null","16.651490566037733","768","428","j","false","img/T_ambi40.png","圆形","prac_image_first",""
"","","","","","html-keyboard-response","16","456031","0.0-7.0-0.0-1.2","null","<span class='add_' style='color:yellow; font-size: 70px;'> 太慢! </span>","null","","","","","","","","","","","","","","","","","","","","","","","feedback_test"
"","","","","","psychophysics","17","458692","0.0-7.0-0.0-0.3","null","","null","","","","","","","","","","","","","key","null","16.650842767295575","768","428","j","false","img/S_ambi40.png","三角","prac_image_first",""
"","","","","","html-keyboard-response","18","459004","0.0-7.0-0.0-1.3","null","<span class='add_' style='color:yellow; font-size: 70px;'> 太慢! </span>","null","","","","","","","","","","","","","","","","","","","","","","","feedback_test"
"","","","","","psychophysics","19","460406","0.0-7.0-0.0-0.4","248","","j","","","","","","","","","","","","","key","j","16.650614457831196","768","428","f","false","img/S_ambi40.png","方形","prac_image_first",""
"","","","","","html-keyboard-response","20","460721","0.0-7.0-0.0-1.4","null","<span style='color:red; font-size: 70px;'>错误! </span>","null","","","","","","","","","","","","","","","","","","","","","","","feedback_test"
"","","","","","psychophysics","21","463118","0.0-7.0-0.0-0.5","1244","","j","","","","","","","","","","","","","key","j","16.651335664335686","768","428","f","false","img/T_ambi40.png","三角","prac_image_first",""
"","","","","","html-keyboard-response","22","463422","0.0-7.0-0.0-1.5","null","<span style='color:red; font-size: 70px;'>错误! </span>","null","","","","","","","","","","","","","","","","","","","","","","","feedback_test"
"","","","","","psychophysics","23","466074","0.0-7.0-0.0-0.6","null","","null","","","","","","","","","","","","","key","null","16.651101265822483","768","428","f","false","img/C_ambi40.png","圆形","prac_image_first",""
"","","","","","html-keyboard-response","24","466381","0.0-7.0-0.0-1.6","null","<span class='add_' style='color:yellow; font-size: 70px;'> 太慢! </span>","null","","","","","","","","","","","","","","","","","","","","","","","feedback_test"
"","","","","","psychophysics","25","469039","0.0-7.0-0.0-0.7","null","","null","","","","","","","","","","","","","key","null","16.651256250000007","768","428","f","false","img/C_ambi40.png","圆形","prac_image_first",""
"","","","","","html-keyboard-response","26","469351","0.0-7.0-0.0-1.7","null","<span class='add_' style='color:yellow; font-size: 70px;'> 太慢! </span>","null","","","","","","","","","","","","","","","","","","","","","","","feedback_test"
"","","","","","psychophysics","27","472002","0.0-7.0-0.0-0.8","null","","null","","","","","","","","","","","","","key","null","16.755220125786266","768","428","f","false","img/T_ambi40.png","三角","prac_image_first",""
"","","","","","html-keyboard-response","28","472315","0.0-7.0-0.0-1.8","null","<span class='add_' style='color:yellow; font-size: 70px;'> 太慢! </span>","null","","","","","","","","","","","","","","","","","","","","","","","feedback_test"
"","","","","","psychophysics","29","474969","0.0-7.0-0.0-0.9","null","","null","","","","","","","","","","","","","key","null","16.6517106918241","768","428","j","false","img/T_ambi40.png","方形","prac_image_first",""
"","","","","","html-keyboard-response","30","475281","0.0-7.0-0.0-1.9","null","<span class='add_' style='color:yellow; font-size: 70px;'> 太慢! </span>","null","","","","","","","","","","","","","","","","","","","","","","","feedback_test"
"","","","","","psychophysics","31","477936","0.0-7.0-0.0-0.10","null","","null","","","","","","","","","","","","","key","null","16.65074683544322","768","428","j","false","img/C_ambi40.png","三角","prac_image_first",""
"","","","","","html-keyboard-response","32","478248","0.0-7.0-0.0-1.10","null","<span class='add_' style='color:yellow; font-size: 70px;'> 太慢! </span>","null","","","","","","","","","","","","","","","","","","","","","","","feedback_test"
"","","","","","psychophysics","33","479583","0.0-7.0-0.0-0.11","179","","j","","","","","","","","","","","","","key","j","16.650500000000466","768","428","j","true","img/S_ambi40.png","圆形","prac_image_first",""
"","","","","","html-keyboard-response","34","479888","0.0-7.0-0.0-1.11","null","<span style='color:yellow; font-size: 70px;'>过快! </span>","null","","","","","","","","","","","","","","","","","","","","","","","feedback_test"
"","","","","","psychophysics","35","481238","0.0-7.0-0.0-0.12","196","","j","","","","","","","","","","","","","key","j","16.652124999999796","768","428","f","false","img/T_ambi40.png","三角","prac_image_first",""
"","","","","","html-keyboard-response","36","481539","0.0-7.0-0.0-1.12","null","<span style='color:yellow; font-size: 70px;'>过快! </span>","null","","","","","","","","","","","","","","","","","","","","","","","feedback_test"
"","","","","","psychophysics","37","482910","0.0-7.0-0.0-0.13","219","","j","","","","","","","","","","","","","key","j","16.651634146340857","768","428","f","false","img/C_ambi40.png","圆形","prac_image_first",""
"","","","","","html-keyboard-response","38","483226","0.0-7.0-0.0-1.13","null","<span style='color:red; font-size: 70px;'>错误! </span>","null","","","","","","","","","","","","","","","","","","","","","","","feedback_test"
"","","","","","psychophysics","39","484582","0.0-7.0-0.0-0.14","199","","j","","","","","","","","","","","","","key","j","16.65082716049388","768","428","j","true","img/S_ambi40.png","圆形","prac_image_first",""
"","","","","","html-keyboard-response","40","484897","0.0-7.0-0.0-1.14","null","<span style='color:yellow; font-size: 70px;'>过快! </span>","null","","","","","","","","","","","","","","","","","","","","","","","feedback_test"
"","","","","","psychophysics","41","486366","0.0-7.0-0.0-0.15","313","","j","","","","","","","","","","","","","key","j","16.6501954022993","768","428","f","false","img/S_ambi40.png","方形","prac_image_first",""
"","","","","","html-keyboard-response","42","486681","0.0-7.0-0.0-1.15","null","<span style='color:red; font-size: 70px;'>错误! </span>","null","","","","","","","","","","","","","","","","","","","","","","","feedback_test"
"","","","","","psychophysics","43","488062","0.0-7.0-0.0-0.16","227","","j","","","","","","","","","","","","","key","j","16.651445783132615","768","428","f","false","img/S_ambi40.png","方形","prac_image_first",""
"","","","","","html-keyboard-response","44","488366","0.0-7.0-0.0-1.16","null","<span style='color:red; font-size: 70px;'>错误! </span>","null","","","","","","","","","","","","","","","","","","","","","","","feedback_test"
"","","","","","psychophysics","45","491018","0.0-7.0-0.0-0.17","null","","null","","","","","","","","","","","","","key","null","16.651601265822656","768","428","j","false","img/C_ambi40.png","三角","prac_image_first",""
"","","","","","html-keyboard-response","46","491332","0.0-7.0-0.0-1.17","null","<span class='add_' style='color:yellow; font-size: 70px;'> 太慢! </span>","null","","","","","","","","","","","","","","","","","","","","","","","feedback_test"
"","","","","","psychophysics","47","493991","0.0-7.0-0.0-0.18","null","","null","","","","","","","","","","","","","key","null","16.566164556962196","768","428","j","false","img/T_ambi40.png","方形","prac_image_first",""
"","","","","","html-keyboard-response","48","494303","0.0-7.0-0.0-1.18","null","<span class='add_' style='color:yellow; font-size: 70px;'> 太慢! </span>","null","","","","","","","","","","","","","","","","","","","","","","","feedback_test"
"","","","","","psychophysics","49","495631","0.0-7.0-0.0-0.19","169","","j","","","","","","","","","","","","","key","j","16.651113924050197","768","428","j","true","img/C_ambi40.png","方形","prac_image_first",""
"","","","","","html-keyboard-response","50","495945","0.0-7.0-0.0-1.19","null","<span style='color:yellow; font-size: 70px;'>过快! </span>","null","","","","","","","","","","","","","","","","","","","","","","","feedback_test"
"","","","","","psychophysics","51","497406","0.0-7.0-0.0-0.20","305","","j","","","","","","","","","","","","","key","j","16.490372093023495","768","428","f","false","img/T_ambi40.png","三角","prac_image_first",""
"","","","","","html-keyboard-response","52","497710","0.0-7.0-0.0-1.20","null","<span style='color:red; font-size: 70px;'>错误! </span>","null","","","","","","","","","","","","","","","","","","","","","","","feedback_test"
"","","","","","psychophysics","53","498958","0.0-7.0-0.0-0.21","98","","j","","","","","","","","","","","","","key","j","16.463315068492953","768","428","f","false","img/C_ambi40.png","圆形","prac_image_first",""
"","","","","","html-keyboard-response","54","499269","0.0-7.0-0.0-1.21","null","<span style='color:yellow; font-size: 70px;'>过快! </span>","null","","","","","","","","","","","","","","","","","","","","","","","feedback_test"
"","","","","","psychophysics","55","500614","0.0-7.0-0.0-0.22","191","","j","","","","","","","","","","","","","key","j","16.650790123457238","768","428","j","true","img/S_ambi40.png","三角","prac_image_first",""
"","","","","","html-keyboard-response","56","500924","0.0-7.0-0.0-1.22","null","<span style='color:yellow; font-size: 70px;'>过快! </span>","null","","","","","","","","","","","","","","","","","","","","","","","feedback_test"
"","","","","","psychophysics","57","502302","0.0-7.0-0.0-0.23","227","","f","","","","","","","","","","","","","key","f","16.651419753086593","768","428","j","false","img/T_ambi40.png","圆形","prac_image_first",""
"","","","","","html-keyboard-response","58","502615","0.0-7.0-0.0-1.23","null","<span style='color:red; font-size: 70px;'>错误! </span>","null","","","","","","","","","","","","","","","","","","","","","","","feedback_test"
"","","","","","html-keyboard-response","59","536670","0.0-7.0-1.0-0.0","34053","<style>.context{color:white; font-size: 35px; line-height:40px}</style>                            <div><p class='context'>您正确回答了17% 的试次。</p><p class='context'>您的平均反应时为185毫秒。</p>","j","","","","","","","","","","","","","","","","","","","","","","",""
"","","","","","instructions","60","552932","0.0-7.0-1.0-1.0","16261","","","","","","","","","","","","","","[{""page_index"":0,""viewing_time"":4315},{""page_index"":1,""viewing_time"":8261},{""page_index"":2,""viewing_time"":3684}]","","","","","","","","","","",""
"","","","","","psychophysics","61","554286","0.0-7.1-0.1-0.24","200","","f","","","","","","","","","","","","","key","f","16.652037499999278","768","428","f","true","img/S_ambi40.png","方形","prac_image_first",""
"","","","","","html-keyboard-response","62","554588","0.0-7.1-0.1-1.24","null","<span style='color:GreenYellow; font-size: 70px;'>正确! </span>","null","","","","","","","","","","","","","","","","","","","","","","","feedback_test"
"","","","","","psychophysics","63","555975","0.0-7.1-0.1-0.25","234","","j","","","","","","","","","","","","","key","j","16.651975903615178","768","428","j","true","img/T_ambi40.png","圆形","prac_image_first",""
"","","","","","html-keyboard-response","64","556282","0.0-7.1-0.1-1.25","null","<span style='color:GreenYellow; font-size: 70px;'>正确! </span>","null","","","","","","","","","","","","","","","","","","","","","","","feedback_test"
"","","","","","psychophysics","65","557718","0.0-7.1-0.1-0.26","279","","f","","","","","","","","","","","","","key","f","16.651235294117427","768","428","j","false","img/S_ambi40.png","三角","prac_image_first",""
"","","","","","html-keyboard-response","66","558025","0.0-7.1-0.1-1.26","null","<span style='color:red; font-size: 70px;'>错误! </span>","null","","","","","","","","","","","","","","","","","","","","","","","feedback_test"
"","","","","","psychophysics","67","559782","0.0-7.1-0.1-0.27","595","","f","","","","","","","","","","","","","key","f","16.657451923076923","768","428","j","false","img/S_ambi40.png","圆形","prac_image_first",""
"","","","","","html-keyboard-response","68","560082","0.0-7.1-0.1-1.27","null","<span style='color:red; font-size: 70px;'>错误! </span>","null","","","","","","","","","","","","","","","","","","","","","","","feedback_test"
"","","","","","psychophysics","69","561662","0.0-7.1-0.1-0.28","426","","j","","","","","","","","","","","","","key","j","16.651510638297545","768","428","f","false","img/S_ambi40.png","方形","prac_image_first",""
"","","","","","html-keyboard-response","70","561965","0.0-7.1-0.1-1.28","null","<span style='color:red; font-size: 70px;'>错误! </span>","null","","","","","","","","","","","","","","","","","","","","","","","feedback_test"
"","","","","","psychophysics","71","563566","0.0-7.1-0.1-0.29","450","","f","","","","","","","","","","","","","key","f","16.651094736841408","768","428","f","true","img/C_ambi40.png","圆形","prac_image_first",""
"","","","","","html-keyboard-response","72","563871","0.0-7.1-0.1-1.29","null","<span style='color:GreenYellow; font-size: 70px;'>正确! </span>","null","","","","","","","","","","","","","","","","","","","","","","","feedback_test"
"","","","","","psychophysics","73","565598","0.0-7.1-0.1-0.30","569","","f","","","","","","","","","","","","","key","f","16.65172815534006","768","428","f","true","img/T_ambi40.png","三角","prac_image_first",""
"","","","","","html-keyboard-response","74","565907","0.0-7.1-0.1-1.30","null","<span style='color:GreenYellow; font-size: 70px;'>正确! </span>","null","","","","","","","","","","","","","","","","","","","","","","","feedback_test"
"","","","","","psychophysics","75","567670","0.0-7.1-0.1-0.31","606","","j","","","","","","","","","","","","","key","j","16.65060000000078","768","428","j","true","img/C_ambi40.png","三角","prac_image_first",""
"","","","","","html-keyboard-response","76","567972","0.0-7.1-0.1-1.31","null","<span style='color:GreenYellow; font-size: 70px;'>正确! </span>","null","","","","","","","","","","","","","","","","","","","","","","","feedback_test"
"","","","","","psychophysics","77","569663","0.0-7.1-0.1-0.32","535","","j","","","","","","","","","","","","","key","j","16.651198019801484","768","428","f","false","img/C_ambi40.png","圆形","prac_image_first",""
"","","","","","html-keyboard-response","78","569964","0.0-7.1-0.1-1.32","null","<span style='color:red; font-size: 70px;'>错误! </span>","null","","","","","","","","","","","","","","","","","","","","","","","feedback_test"
"","","","","","psychophysics","79","571910","0.0-7.1-0.1-0.33","790","","j","","","","","","","","","","","","","key","j","16.650836206896326","768","428","j","true","img/C_ambi40.png","方形","prac_image_first",""
"","","","","","html-keyboard-response","80","572217","0.0-7.1-0.1-1.33","null","<span style='color:GreenYellow; font-size: 70px;'>正确! </span>","null","","","","","","","","","","","","","","","","","","","","","","","feedback_test"
"","","","","","psychophysics","81","574343","0.0-7.1-0.1-0.34","969","","j","","","","","","","","","","","","","key","j","16.65164566929104","768","428","j","true","img/T_ambi40.png","方形","prac_image_first",""
"","","","","","html-keyboard-response","82","574655","0.0-7.1-0.1-1.34","null","<span style='color:GreenYellow; font-size: 70px;'>正确! </span>","null","","","","","","","","","","","","","","","","","","","","","","","feedback_test"
"","","","","","psychophysics","83","576623","0.0-7.1-0.1-0.35","816","","f","","","","","","","","","","","","","key","f","16.65104273504291","768","428","f","true","img/T_ambi40.png","三角","prac_image_first",""
"","","","","","html-keyboard-response","84","576924","0.0-7.1-0.1-1.35","null","<span style='color:GreenYellow; font-size: 70px;'>正确! </span>","null","","","","","","","","","","","","","","","","","","","","","","","feedback_test"
"","","","","","psychophysics","85","578966","0.0-7.1-0.1-0.36","882","","j","","","","","","","","","","","","","key","j","16.650752066116016","768","428","j","true","img/S_ambi40.png","三角","prac_image_first",""
"","","","","","html-keyboard-response","86","579268","0.0-7.1-0.1-1.36","null","<span style='color:GreenYellow; font-size: 70px;'>正确! </span>","null","","","","","","","","","","","","","","","","","","","","","","","feedback_test"
"","","","","","psychophysics","87","581294","0.0-7.1-0.1-0.37","867","","f","","","","","","","","","","","","","key","f","16.651341666666365","768","428","f","true","img/S_ambi40.png","方形","prac_image_first",""
"","","","","","html-keyboard-response","88","581598","0.0-7.1-0.1-1.37","null","<span style='color:GreenYellow; font-size: 70px;'>正确! </span>","null","","","","","","","","","","","","","","","","","","","","","","","feedback_test"
"","","","","","psychophysics","89","583422","0.0-7.1-0.1-0.38","673","","j","","","","","","","","","","","","","key","j","16.651009174311586","768","428","j","true","img/T_ambi40.png","方形","prac_image_first",""
"","","","","","html-keyboard-response","90","583737","0.0-7.1-0.1-1.38","null","<span style='color:GreenYellow; font-size: 70px;'>正确! </span>","null","","","","","","","","","","","","","","","","","","","","","","","feedback_test"
"","","","","","psychophysics","91","585653","0.0-7.1-0.1-0.39","759","","j","","","","","","","","","","","","","key","j","16.651026086956666","768","428","j","true","img/C_ambi40.png","三角","prac_image_first",""
"","","","","","html-keyboard-response","92","585955","0.0-7.1-0.1-1.39","null","<span style='color:GreenYellow; font-size: 70px;'>正确! </span>","null","","","","","","","","","","","","","","","","","","","","","","","feedback_test"
"","","","","","psychophysics","93","587902","0.0-7.1-0.1-0.40","791","","j","","","","","","","","","","","","","key","j","16.651344827586055","768","428","j","true","img/S_ambi40.png","圆形","prac_image_first",""
"","","","","","html-keyboard-response","94","588207","0.0-7.1-0.1-1.40","null","<span style='color:GreenYellow; font-size: 70px;'>正确! </span>","null","","","","","","","","","","","","","","","","","","","","","","","feedback_test"
"","","","","","psychophysics","95","590366","0.0-7.1-0.1-0.41","1007","","f","","","","","","","","","","","","","key","f","16.65169767441784","768","428","f","true","img/T_ambi40.png","三角","prac_image_first",""
"","","","","","html-keyboard-response","96","590681","0.0-7.1-0.1-1.41","null","<span style='color:GreenYellow; font-size: 70px;'>正确! </span>","null","","","","","","","","","","","","","","","","","","","","","","","feedback_test"
"","","","","","psychophysics","97","592566","0.0-7.1-0.1-0.42","727","","f","","","","","","","","","","","","","key","f","16.65136283185782","768","428","f","true","img/S_ambi40.png","方形","prac_image_first",""
"","","","","","html-keyboard-response","98","592869","0.0-7.1-0.1-1.42","null","<span style='color:GreenYellow; font-size: 70px;'>正确! </span>","null","","","","","","","","","","","","","","","","","","","","","","","feedback_test"
"","","","","","psychophysics","99","594901","0.0-7.1-0.1-0.43","879","","f","","","","","","","","","","","","","key","f","16.651148760330493","768","428","f","true","img/T_ambi40.png","三角","prac_image_first",""
"","","","","","html-keyboard-response","100","595211","0.0-7.1-0.1-1.43","null","<span style='color:GreenYellow; font-size: 70px;'>正确! </span>","null","","","","","","","","","","","","","","","","","","","","","","","feedback_test"
"","","","","","psychophysics","101","597061","0.0-7.1-0.1-0.44","696","","j","","","","","","","","","","","","","key","j","16.650684684684904","768","428","j","true","img/C_ambi40.png","方形","prac_image_first",""
"","","","","","html-keyboard-response","102","597368","0.0-7.1-0.1-1.44","null","<span style='color:GreenYellow; font-size: 70px;'>正确! </span>","null","","","","","","","","","","","","","","","","","","","","","","","feedback_test"
"","","","","","psychophysics","103","599366","0.0-7.1-0.1-0.45","839","","f","","","","","","","","","","","","","key","f","16.650745762711374","768","428","f","true","img/C_ambi40.png","圆形","prac_image_first",""
"","","","","","html-keyboard-response","104","599666","0.0-7.1-0.1-1.45","null","<span style='color:GreenYellow; font-size: 70px;'>正确! </span>","null","","","","","","","","","","","","","","","","","","","","","","","feedback_test"
"","","","","","psychophysics","105","601511","0.0-7.1-0.1-0.46","684","","f","","","","","","","","","","","","","key","f","16.651036363635846","768","428","f","true","img/C_ambi40.png","圆形","prac_image_first",""
"","","","","","html-keyboard-response","106","601814","0.0-7.1-0.1-1.46","null","<span style='color:GreenYellow; font-size: 70px;'>正确! </span>","null","","","","","","","","","","","","","","","","","","","","","","","feedback_test"
"","","","","","psychophysics","107","603789","0.0-7.1-0.1-0.47","810","","j","","","","","","","","","","","","","key","j","16.65113559322061","768","428","j","true","img/T_ambi40.png","圆形","prac_image_first",""
"","","","","","html-keyboard-response","108","604090","0.0-7.1-0.1-1.47","null","<span style='color:GreenYellow; font-size: 70px;'>正确! </span>","null","","","","","","","","","","","","","","","","","","","","","","","feedback_test"
"","","","","","html-keyboard-response","109","610997","0.0-8.0","6905","<style>.context{color:white; font-size: 35px; line-height:40px}</style>                            <div><p class='context'>您正确回答了83% 的试次。</p><p class='context'>您的平均反应时为712毫秒。</p><p class='context'>恭喜您完成这一阶段的练习。按任意键进入<span style='color: yellow;'>先文字后图形条件</span>的练习。</p></div>"," ","","","","","","","","","","","","","","","","","","","","","","",""
"","","","","","psychophysics","110","613086","0.0-9.0-0.0-0.0","935","","j","","","","","","","","","","","","","key","j","16.786902439024306","768","428","j","true","img/S_ambi40.png","三角","prac_word_first",""
"","","","","","html-keyboard-response","111","613399","0.0-9.0-0.0-1.0","null","<span style='color:GreenYellow; font-size: 70px;'>正确! </span>","null","","","","","","","","","","","","","","","","","","","","","","","feedback_test"
"","","","","","psychophysics","112","615190","0.0-9.0-0.0-0.1","637","","j","","","","","","","","","","","","","key","j","16.650749999999622","768","428","j","true","img/C_ambi40.png","方形","prac_word_first",""
"","","","","","html-keyboard-response","113","615492","0.0-9.0-0.0-1.1","null","<span style='color:GreenYellow; font-size: 70px;'>正确! </span>","null","","","","","","","","","","","","","","","","","","","","","","","feedback_test"
"","","","","","psychophysics","114","617254","0.0-9.0-0.0-0.2","603","","j","","","","","","","","","","","","","key","j","16.650780952380348","768","428","j","true","img/C_ambi40.png","三角","prac_word_first",""
"","","","","","html-keyboard-response","115","617569","0.0-9.0-0.0-1.2","null","<span style='color:GreenYellow; font-size: 70px;'>正确! </span>","null","","","","","","","","","","","","","","","","","","","","","","","feedback_test"
"","","","","","psychophysics","116","619663","0.0-9.0-0.0-0.3","938","","f","","","","","","","","","","","","","key","f","16.650838709677636","768","428","j","false","img/T_ambi40.png","圆形","prac_word_first",""
"","","","","","html-keyboard-response","117","619976","0.0-9.0-0.0-1.3","null","<span style='color:red; font-size: 70px;'>错误! </span>","null","","","","","","","","","","","","","","","","","","","","","","","feedback_test"
"","","","","","psychophysics","118","621894","0.0-9.0-0.0-0.4","764","","f","","","","","","","","","","","","","key","f","16.651565217390736","768","428","f","true","img/C_ambi40.png","圆形","prac_word_first",""
"","","","","","html-keyboard-response","119","622207","0.0-9.0-0.0-1.4","null","<span style='color:GreenYellow; font-size: 70px;'>正确! </span>","null","","","","","","","","","","","","","","","","","","","","","","","feedback_test"
"","","","","","psychophysics","120","624022","0.0-9.0-0.0-0.5","661","","f","","","","","","","","","","","","","key","f","16.65128440366964","768","428","f","true","img/T_ambi40.png","三角","prac_word_first",""
"","","","","","html-keyboard-response","121","624329","0.0-9.0-0.0-1.5","null","<span style='color:GreenYellow; font-size: 70px;'>正确! </span>","null","","","","","","","","","","","","","","","","","","","","","","","feedback_test"
"","","","","","psychophysics","122","626086","0.0-9.0-0.0-0.6","604","","f","","","","","","","","","","","","","key","f","16.650894230768944","768","428","f","true","img/S_ambi40.png","方形","prac_word_first",""
"","","","","","html-keyboard-response","123","626400","0.0-9.0-0.0-1.6","null","<span style='color:GreenYellow; font-size: 70px;'>正确! </span>","null","","","","","","","","","","","","","","","","","","","","","","","feedback_test"
"","","","","","psychophysics","124","628110","0.0-9.0-0.0-0.7","554","","f","","","","","","","","","","","","","key","f","16.65073529411765","768","428","f","true","img/T_ambi40.png","三角","prac_word_first",""
"","","","","","html-keyboard-response","125","628414","0.0-9.0-0.0-1.7","null","<span style='color:GreenYellow; font-size: 70px;'>正确! </span>","null","","","","","","","","","","","","","","","","","","","","","","","feedback_test"
"","","","","","psychophysics","126","630166","0.0-9.0-0.0-0.8","596","","f","","","","","","","","","","","","","key","f","16.65098095238098","768","428","f","true","img/C_ambi40.png","圆形","prac_word_first",""
"","","","","","html-keyboard-response","127","630478","0.0-9.0-0.0-1.8","null","<span style='color:GreenYellow; font-size: 70px;'>正确! </span>","null","","","","","","","","","","","","","","","","","","","","","","","feedback_test"
"","","","","","psychophysics","128","632487","0.0-9.0-0.0-0.9","854","","f","","","","","","","","","","","","","key","f","16.651066666665916","768","428","f","true","img/S_ambi40.png","方形","prac_word_first",""
"","","","","","html-keyboard-response","129","632801","0.0-9.0-0.0-1.9","null","<span style='color:GreenYellow; font-size: 70px;'>正确! </span>","null","","","","","","","","","","","","","","","","","","","","","","","feedback_test"
"","","","","","psychophysics","130","634998","0.0-9.0-0.0-0.10","1047","","j","","","","","","","","","","","","","key","j","16.65093846153826","768","428","j","true","img/S_ambi40.png","圆形","prac_word_first",""
"","","","","","html-keyboard-response","131","635311","0.0-9.0-0.0-1.10","null","<span style='color:GreenYellow; font-size: 70px;'>正确! </span>","null","","","","","","","","","","","","","","","","","","","","","","","feedback_test"
"","","","","","psychophysics","132","637141","0.0-9.0-0.0-0.11","676","","j","","","","","","","","","","","","","key","j","16.650318181818477","768","428","j","true","img/T_ambi40.png","方形","prac_word_first",""
"","","","","","html-keyboard-response","133","637447","0.0-9.0-0.0-1.11","null","<span style='color:GreenYellow; font-size: 70px;'>正确! </span>","null","","","","","","","","","","","","","","","","","","","","","","","feedback_test"
"","","","","","psychophysics","134","639654","0.0-9.0-0.0-0.12","1048","","f","","","","","","","","","","","","","key","f","16.650916030534493","768","428","f","true","img/C_ambi40.png","圆形","prac_word_first",""
"","","","","","html-keyboard-response","135","639969","0.0-9.0-0.0-1.12","null","<span style='color:GreenYellow; font-size: 70px;'>正确! </span>","null","","","","","","","","","","","","","","","","","","","","","","","feedback_test"
"","","","","","psychophysics","136","641821","0.0-9.0-0.0-0.13","696","","f","","","","","","","","","","","","","key","f","16.65133636363634","768","428","f","true","img/S_ambi40.png","方形","prac_word_first",""
"","","","","","html-keyboard-response","137","642130","0.0-9.0-0.0-1.13","null","<span style='color:GreenYellow; font-size: 70px;'>正确! </span>","null","","","","","","","","","","","","","","","","","","","","","","","feedback_test"
"","","","","","psychophysics","138","644038","0.0-9.0-0.0-0.14","756","","f","","","","","","","","","","","","","key","f","16.651557522123284","768","428","f","true","img/S_ambi40.png","方形","prac_word_first",""
"","","","","","html-keyboard-response","139","644342","0.0-9.0-0.0-1.14","null","<span style='color:GreenYellow; font-size: 70px;'>正确! </span>","null","","","","","","","","","","","","","","","","","","","","","","","feedback_test"
"","","","","","psychophysics","140","646360","0.0-9.0-0.0-0.15","864","","j","","","","","","","","","","","","","key","j","16.65154999999989","768","428","j","true","img/T_ambi40.png","方形","prac_word_first",""
"","","","","","html-keyboard-response","141","646672","0.0-9.0-0.0-1.15","null","<span style='color:GreenYellow; font-size: 70px;'>正确! </span>","null","","","","","","","","","","","","","","","","","","","","","","","feedback_test"
"","","","","","psychophysics","142","649331","0.0-9.0-0.0-0.16","null","","null","","","","","","","","","","","","","key","null","16.651000000000494","768","428","j","false","img/T_ambi40.png","圆形","prac_word_first",""
"","","","","","html-keyboard-response","143","649643","0.0-9.0-0.0-1.16","null","<span class='add_' style='color:yellow; font-size: 70px;'> 太慢! </span>","null","","","","","","","","","","","","","","","","","","","","","","","feedback_test"
"","","","","","psychophysics","144","651557","0.0-9.0-0.0-0.17","760","","f","","","","","","","","","","","","","key","f","16.651096491227865","768","428","f","true","img/T_ambi40.png","三角","prac_word_first",""
"","","","","","html-keyboard-response","145","651859","0.0-9.0-0.0-1.17","null","<span style='color:GreenYellow; font-size: 70px;'>正确! </span>","null","","","","","","","","","","","","","","","","","","","","","","","feedback_test"
"","","","","","psychophysics","146","654302","0.0-9.0-0.0-0.18","1290","","f","","","","","","","","","","","","","key","f","16.650890410959096","768","428","f","true","img/T_ambi40.png","三角","prac_word_first",""
"","","","","","html-keyboard-response","147","654604","0.0-9.0-0.0-1.18","null","<span style='color:GreenYellow; font-size: 70px;'>正确! </span>","null","","","","","","","","","","","","","","","","","","","","","","","feedback_test"
"","","","","","psychophysics","148","656662","0.0-9.0-0.0-0.19","902","","j","","","","","","","","","","","","","key","j","16.651186991870077","768","428","j","true","img/S_ambi40.png","圆形","prac_word_first",""
"","","","","","html-keyboard-response","149","656976","0.0-9.0-0.0-1.19","null","<span style='color:GreenYellow; font-size: 70px;'>正确! </span>","null","","","","","","","","","","","","","","","","","","","","","","","feedback_test"
"","","","","","psychophysics","150","659056","0.0-9.0-0.0-0.20","928","","f","","","","","","","","","","","","","key","f","16.78535483870937","768","428","j","false","img/C_ambi40.png","方形","prac_word_first",""
"","","","","","html-keyboard-response","151","659372","0.0-9.0-0.0-1.20","null","<span style='color:red; font-size: 70px;'>错误! </span>","null","","","","","","","","","","","","","","","","","","","","","","","feedback_test"
"","","","","","psychophysics","152","661302","0.0-9.0-0.0-0.21","776","","f","","","","","","","","","","","","","key","f","16.651313043477863","768","428","f","true","img/C_ambi40.png","圆形","prac_word_first",""
"","","","","","html-keyboard-response","153","661608","0.0-9.0-0.0-1.21","null","<span style='color:GreenYellow; font-size: 70px;'>正确! </span>","null","","","","","","","","","","","","","","","","","","","","","","","feedback_test"
"","","","","","psychophysics","154","663749","0.0-9.0-0.0-0.22","991","","j","","","","","","","","","","","","","key","j","16.651251968504187","768","428","j","true","img/C_ambi40.png","三角","prac_word_first",""
"","","","","","html-keyboard-response","155","664057","0.0-9.0-0.0-1.22","null","<span style='color:GreenYellow; font-size: 70px;'>正确! </span>","null","","","","","","","","","","","","","","","","","","","","","","","feedback_test"
"","","","","","psychophysics","156","665990","0.0-9.0-0.0-0.23","776","","j","","","","","","","","","","","","","key","j","16.650730434782883","768","428","j","true","img/S_ambi40.png","三角","prac_word_first",""
"","","","","","html-keyboard-response","157","666305","0.0-9.0-0.0-1.23","null","<span style='color:GreenYellow; font-size: 70px;'>正确! </span>","null","","","","","","","","","","","","","","","","","","","","","","","feedback_test"
"","","","","","html-keyboard-response","158","668029","0.0-10.0","1721","<style>.context{color:white; font-size: 35px; line-height:40px}</style>                            <div><p class='context'>您正确回答了88% 的试次。</p><p class='context'>您的平均反应时为800毫秒。</p><p class='context'>恭喜您完成练习。按任意键进入<span style='color: yellow;'>图形和文字同时呈现条件</span>的练习。</p></div>"," ","","","","","","","","","","","","","","","","","","","","","","",""
"","","","","","psychophysics","159","670103","0.0-11.0-0.0-0.0","1068","","j","","","","","","","","","","","","","key","j","16.65202419354858","768","428","f","false","img/T_ambi40.png","三角","prac_simultaneous",""
"","","","","","html-keyboard-response","160","670406","0.0-11.0-0.0-1.0","null","<span style='color:red; font-size: 70px;'>错误! </span>","null","","","","","","","","","","","","","","","","","","","","","","","feedback_test"
"","","","","","psychophysics","161","672214","0.0-11.0-0.0-0.1","798","","f","","","","","","","","","","","","","key","f","16.651392523364695","768","428","f","true","img/S_ambi40.png","方形","prac_simultaneous",""
"","","","","","html-keyboard-response","162","672515","0.0-11.0-0.0-1.1","null","<span style='color:GreenYellow; font-size: 70px;'>正确! </span>","null","","","","","","","","","","","","","","","","","","","","","","","feedback_test"
"","","","","","psychophysics","163","674221","0.0-11.0-0.0-0.2","691","","j","","","","","","","","","","","","","key","j","16.651683168316325","768","428","j","true","img/S_ambi40.png","三角","prac_simultaneous",""
"","","","","","html-keyboard-response","164","674528","0.0-11.0-0.0-1.2","null","<span style='color:GreenYellow; font-size: 70px;'>正确! </span>","null","","","","","","","","","","","","","","","","","","","","","","","feedback_test"
"","","","","","psychophysics","165","676630","0.0-11.0-0.0-0.3","1101","","j","","","","","","","","","","","","","key","j","16.551552000000143","768","428","j","true","img/S_ambi40.png","圆形","prac_simultaneous",""
"","","","","","html-keyboard-response","166","676940","0.0-11.0-0.0-1.3","null","<span style='color:GreenYellow; font-size: 70px;'>正确! </span>","null","","","","","","","","","","","","","","","","","","","","","","","feedback_test"
"","","","","","psychophysics","167","678678","0.0-11.0-0.0-0.4","735","","j","","","","","","","","","","","","","key","j","16.65211538461601","768","428","f","false","img/C_ambi40.png","圆形","prac_simultaneous",""
"","","","","","html-keyboard-response","168","678993","0.0-11.0-0.0-1.4","null","<span style='color:red; font-size: 70px;'>错误! </span>","null","","","","","","","","","","","","","","","","","","","","","","","feedback_test"
"","","","","","psychophysics","169","680822","0.0-11.0-0.0-0.5","815","","j","","","","","","","","","","","","","key","j","16.65082568807288","768","428","j","true","img/C_ambi40.png","三角","prac_simultaneous",""
"","","","","","html-keyboard-response","170","681130","0.0-11.0-0.0-1.5","null","<span style='color:GreenYellow; font-size: 70px;'>正确! </span>","null","","","","","","","","","","","","","","","","","","","","","","","feedback_test"
"","","","","","psychophysics","171","683277","0.0-11.0-0.0-0.6","1138","","j","","","","","","","","","","","","","key","j","16.650906249999935","768","428","j","true","img/T_ambi40.png","圆形","prac_simultaneous",""
"","","","","","html-keyboard-response","172","683581","0.0-11.0-0.0-1.6","null","<span style='color:GreenYellow; font-size: 70px;'>正确! </span>","null","","","","","","","","","","","","","","","","","","","","","","","feedback_test"
"","","","","","psychophysics","173","685430","0.0-11.0-0.0-0.7","843","","j","","","","","","","","","","","","","key","j","16.650818181817886","768","428","j","true","img/C_ambi40.png","方形","prac_simultaneous",""
"","","","","","html-keyboard-response","174","685733","0.0-11.0-0.0-1.7","null","<span style='color:GreenYellow; font-size: 70px;'>正确! </span>","null","","","","","","","","","","","","","","","","","","","","","","","feedback_test"
"","","","","","psychophysics","175","687718","0.0-11.0-0.0-0.8","983","","j","","","","","","","","","","","","","key","j","16.541796610169744","768","428","j","true","img/T_ambi40.png","方形","prac_simultaneous",""
"","","","","","html-keyboard-response","176","688023","0.0-11.0-0.0-1.8","null","<span style='color:GreenYellow; font-size: 70px;'>正确! </span>","null","","","","","","","","","","","","","","","","","","","","","","","feedback_test"
"","","","","","psychophysics","177","690077","0.0-11.0-0.0-0.9","1045","","f","","","","","","","","","","","","","key","f","16.65117213114825","768","428","f","true","img/C_ambi40.png","圆形","prac_simultaneous",""
"","","","","","html-keyboard-response","178","690379","0.0-11.0-0.0-1.9","null","<span style='color:GreenYellow; font-size: 70px;'>正确! </span>","null","","","","","","","","","","","","","","","","","","","","","","","feedback_test"
"","","","","","psychophysics","179","692310","0.0-11.0-0.0-0.10","929","","f","","","","","","","","","","","","","key","f","16.537377192982955","768","428","f","true","img/T_ambi40.png","三角","prac_simultaneous",""
"","","","","","html-keyboard-response","180","692624","0.0-11.0-0.0-1.10","null","<span style='color:GreenYellow; font-size: 70px;'>正确! </span>","null","","","","","","","","","","","","","","","","","","","","","","","feedback_test"
"","","","","","psychophysics","181","694583","0.0-11.0-0.0-0.11","954","","f","","","","","","","","","","","","","key","f","16.651170940171234","768","428","f","true","img/S_ambi40.png","方形","prac_simultaneous",""
"","","","","","html-keyboard-response","182","694886","0.0-11.0-0.0-1.11","null","<span style='color:GreenYellow; font-size: 70px;'>正确! </span>","null","","","","","","","","","","","","","","","","","","","","","","","feedback_test"
"","","","","","psychophysics","183","696838","0.0-11.0-0.0-0.12","945","","j","","","","","","","","","","","","","key","j","16.650777777777307","768","428","j","true","img/S_ambi40.png","三角","prac_simultaneous",""
"","","","","","html-keyboard-response","184","697148","0.0-11.0-0.0-1.12","null","<span style='color:GreenYellow; font-size: 70px;'>正确! </span>","null","","","","","","","","","","","","","","","","","","","","","","","feedback_test"
"","","","","","psychophysics","185","699005","0.0-11.0-0.0-0.13","848","","f","","","","","","","","","","","","","key","f","16.650745454545937","768","428","f","true","img/C_ambi40.png","圆形","prac_simultaneous",""
"","","","","","html-keyboard-response","186","699317","0.0-11.0-0.0-1.13","null","<span style='color:GreenYellow; font-size: 70px;'>正确! </span>","null","","","","","","","","","","","","","","","","","","","","","","","feedback_test"
"","","","","","psychophysics","187","701238","0.0-11.0-0.0-0.14","916","","j","","","","","","","","","","","","","key","j","16.65152173913084","768","428","j","true","img/T_ambi40.png","方形","prac_simultaneous",""
"","","","","","html-keyboard-response","188","701549","0.0-11.0-0.0-1.14","null","<span style='color:GreenYellow; font-size: 70px;'>正确! </span>","null","","","","","","","","","","","","","","","","","","","","","","","feedback_test"
"","","","","","psychophysics","189","703142","0.0-11.0-0.0-0.15","588","","f","","","","","","","","","","","","","key","f","16.650281250000262","768","428","f","true","img/S_ambi40.png","方形","prac_simultaneous",""
"","","","","","html-keyboard-response","190","703451","0.0-11.0-0.0-1.15","null","<span style='color:GreenYellow; font-size: 70px;'>正确! </span>","null","","","","","","","","","","","","","","","","","","","","","","","feedback_test"
"","","","","","psychophysics","191","705445","0.0-11.0-0.0-0.16","993","","j","","","","","","","","","","","","","key","j","16.651101694915887","768","428","j","true","img/T_ambi40.png","圆形","prac_simultaneous",""
"","","","","","html-keyboard-response","192","705749","0.0-11.0-0.0-1.16","null","<span style='color:GreenYellow; font-size: 70px;'>正确! </span>","null","","","","","","","","","","","","","","","","","","","","","","","feedback_test"
"","","","","","psychophysics","193","707838","0.0-11.0-0.0-0.17","1088","","f","","","","","","","","","","","","","key","f","16.651015999999828","768","428","f","true","img/C_ambi40.png","圆形","prac_simultaneous",""
"","","","","","html-keyboard-response","194","708142","0.0-11.0-0.0-1.17","null","<span style='color:GreenYellow; font-size: 70px;'>正确! </span>","null","","","","","","","","","","","","","","","","","","","","","","","feedback_test"
"","","","","","psychophysics","195","709885","0.0-11.0-0.0-0.18","740","","f","","","","","","","","","","","","","key","f","16.651240384615868","768","428","f","true","img/S_ambi40.png","方形","prac_simultaneous",""
"","","","","","html-keyboard-response","196","710189","0.0-11.0-0.0-1.18","null","<span style='color:GreenYellow; font-size: 70px;'>正确! </span>","null","","","","","","","","","","","","","","","","","","","","","","","feedback_test"
"","","","","","psychophysics","197","711949","0.0-11.0-0.0-0.19","755","","f","","","","","","","","","","","","","key","f","16.650647619047334","768","428","f","true","img/T_ambi40.png","三角","prac_simultaneous",""
"","","","","","html-keyboard-response","198","712265","0.0-11.0-0.0-1.19","null","<span style='color:GreenYellow; font-size: 70px;'>正确! </span>","null","","","","","","","","","","","","","","","","","","","","","","","feedback_test"
"","","","","","psychophysics","199","714094","0.0-11.0-0.0-0.20","817","","j","","","","","","","","","","","","","key","j","16.652172727273268","768","428","j","true","img/C_ambi40.png","方形","prac_simultaneous",""
"","","","","","html-keyboard-response","200","714404","0.0-11.0-0.0-1.20","null","<span style='color:GreenYellow; font-size: 70px;'>正确! </span>","null","","","","","","","","","","","","","","","","","","","","","","","feedback_test"
"","","","","","psychophysics","201","716349","0.0-11.0-0.0-0.21","942","","j","","","","","","","","","","","","","key","j","16.65187931034397","768","428","j","true","img/S_ambi40.png","圆形","prac_simultaneous",""
"","","","","","html-keyboard-response","202","716654","0.0-11.0-0.0-1.21","null","<span style='color:GreenYellow; font-size: 70px;'>正确! </span>","null","","","","","","","","","","","","","","","","","","","","","","","feedback_test"
"","","","","","psychophysics","203","718694","0.0-11.0-0.0-0.22","1039","","j","","","","","","","","","","","","","key","j","16.5472809917357","768","428","j","true","img/C_ambi40.png","三角","prac_simultaneous",""
"","","","","","html-keyboard-response","204","719009","0.0-11.0-0.0-1.22","null","<span style='color:GreenYellow; font-size: 70px;'>正确! </span>","null","","","","","","","","","","","","","","","","","","","","","","","feedback_test"
"","","","","","psychophysics","205","720782","0.0-11.0-0.0-0.23","771","","f","","","","","","","","","","","","","key","f","16.6519528301894","768","428","f","true","img/T_ambi40.png","三角","prac_simultaneous",""
"","","","","","html-keyboard-response","206","721095","0.0-11.0-0.0-1.23","null","<span style='color:GreenYellow; font-size: 70px;'>正确! </span>","null","","","","","","","","","","","","","","","","","","","","","","","feedback_test"
"","","","","","html-keyboard-response","207","1081886","0.0-12.0","360790","<style>.context{color:white; font-size: 35px; line-height:40px}</style>                            <div><p class='context'>您正确回答了92% 的试次。</p><p class='context'>您的平均反应时为897毫秒。</p><p class='context'>恭喜您完成练习。按任意键进入正式实验。</p><p class='footer' style='font-size: 35px; line-height:40px;'>请在进入正式实验实验之前将您的<span style='color: lightgreen;'>食指</span>放在电脑键盘的相应键位上进行按键。</p>"," ","","","","","","","","","","","","","","","","","","","","","","",""
"","","","","","html-keyboard-response","208","1084590","0.0-13.0-1.0-0.0","2701","
    <p>请您将手指放在按键上，准备进入呈现顺序为<span style='color: yellow;'>先文字后图形条件</span>的正式匹配任务</p>
    <p> <div style = ""color: green""><按任意键进入下一阶段的匹配任务></div></p>
    "," ","","","","","","","","","","","","","","","","","","","","","","",""
"","","","","","psychophysics","209","1086693","0.0-13.0-1.0-1.0-0.0-0.0","948","","j","","","","","","","","","","","","","key","j","16.6511520000007","768","428","j","true","img/S_ambi40.png","三角","word_first",""
"","","","","","html-keyboard-response","210","1087008","0.0-13.0-1.0-1.0-0.0-1.0","null","<span style='color:GreenYellow; font-size: 70px;'>正确! </span>","null","","","","","","","","","","","","","","","","","","","","","","","feedback_test"
"","","","","","psychophysics","211","1088814","0.0-13.0-1.0-1.0-0.0-0.1","655","","f","","","","","","","","","","","","","key","f","16.65167592592641","768","428","f","true","img/C_ambi40.png","圆形","word_first",""
"","","","","","html-keyboard-response","212","1089118","0.0-13.0-1.0-1.0-0.0-1.1","null","<span style='color:GreenYellow; font-size: 70px;'>正确! </span>","null","","","","","","","","","","","","","","","","","","","","","","","feedback_test"
"","","","","","psychophysics","213","1090926","0.0-13.0-1.0-1.0-0.0-0.2","655","","f","","","","","","","","","","","","","key","f","16.652101851851008","768","428","f","true","img/T_ambi40.png","三角","word_first",""
"","","","","","html-keyboard-response","214","1091239","0.0-13.0-1.0-1.0-0.0-1.2","null","<span style='color:GreenYellow; font-size: 70px;'>正确! </span>","null","","","","","","","","","","","","","","","","","","","","","","","feedback_test"
"","","","","","psychophysics","215","1093047","0.0-13.0-1.0-1.0-0.0-0.3","653","","j","","","","","","","","","","","","","key","j","16.651611111111748","768","428","j","true","img/C_ambi40.png","方形","word_first",""
"","","","","","html-keyboard-response","216","1093348","0.0-13.0-1.0-1.0-0.0-1.3","null","<span style='color:GreenYellow; font-size: 70px;'>正确! </span>","null","","","","","","","","","","","","","","","","","","","","","","","feedback_test"
"","","","","","psychophysics","217","1095238","0.0-13.0-1.0-1.0-0.0-0.4","734","","f","","","","","","","","","","","","","key","f","16.65149557522078","768","428","f","true","img/C_ambi40.png","圆形","word_first",""
"","","","","","html-keyboard-response","218","1095540","0.0-13.0-1.0-1.0-0.0-1.4","null","<span style='color:GreenYellow; font-size: 70px;'>正确! </span>","null","","","","","","","","","","","","","","","","","","","","","","","feedback_test"
"","","","","","psychophysics","219","1097942","0.0-13.0-1.0-1.0-0.0-0.5","1240","","f","","","","","","","","","","","","","key","f","16.65118749999965","768","428","f","true","img/T_ambi40.png","三角","word_first",""
"","","","","","html-keyboard-response","220","1098247","0.0-13.0-1.0-1.0-0.0-1.5","null","<span style='color:GreenYellow; font-size: 70px;'>正确! </span>","null","","","","","","","","","","","","","","","","","","","","","","","feedback_test"
"","","","","","psychophysics","221","1100125","0.0-13.0-1.0-1.0-0.0-0.6","727","","j","","","","","","","","","","","","","key","j","16.800339285714603","768","428","j","true","img/T_ambi40.png","方形","word_first",""
"","","","","","html-keyboard-response","222","1100432","0.0-13.0-1.0-1.0-0.0-1.6","null","<span style='color:GreenYellow; font-size: 70px;'>正确! </span>","null","","","","","","","","","","","","","","","","","","","","","","","feedback_test"
"","","","","","psychophysics","223","1102215","0.0-13.0-1.0-1.0-0.0-0.7","618","","f","","","","","","","","","","","","","key","f","16.651584905660098","768","428","f","true","img/S_ambi40.png","方形","word_first",""
"","","","","","html-keyboard-response","224","1102518","0.0-13.0-1.0-1.0-0.0-1.7","null","<span style='color:GreenYellow; font-size: 70px;'>正确! </span>","null","","","","","","","","","","","","","","","","","","","","","","","feedback_test"
"","","","","","psychophysics","225","1104317","0.0-13.0-1.0-1.0-0.0-0.8","640","","j","","","","","","","","","","","","","key","j","16.651129629628958","768","428","j","true","img/T_ambi40.png","圆形","word_first",""
"","","","","","html-keyboard-response","226","1104627","0.0-13.0-1.0-1.0-0.0-1.8","null","<span style='color:GreenYellow; font-size: 70px;'>正确! </span>","null","","","","","","","","","","","","","","","","","","","","","","","feedback_test"
"","","","","","psychophysics","227","1106358","0.0-13.0-1.0-1.0-0.0-0.9","574","","j","","","","","","","","","","","","","key","j","16.651254901959213","768","428","j","true","img/S_ambi40.png","圆形","word_first",""
"","","","","","html-keyboard-response","228","1106671","0.0-13.0-1.0-1.0-0.0-1.9","null","<span style='color:GreenYellow; font-size: 70px;'>正确! </span>","null","","","","","","","","","","","","","","","","","","","","","","","feedback_test"
"","","","","","psychophysics","229","1108670","0.0-13.0-1.0-1.0-0.0-0.10","846","","f","","","","","","","","","","","","","key","f","16.65133613445444","768","428","f","true","img/S_ambi40.png","方形","word_first",""
"","","","","","html-keyboard-response","230","1108971","0.0-13.0-1.0-1.0-0.0-1.10","null","<span style='color:GreenYellow; font-size: 70px;'>正确! </span>","null","","","","","","","","","","","","","","","","","","","","","","","feedback_test"
"","","","","","psychophysics","231","1110877","0.0-13.0-1.0-1.0-0.0-0.11","755","","j","","","","","","","","","","","","","key","j","16.548566371682554","768","428","j","true","img/C_ambi40.png","三角","word_first",""
"","","","","","html-keyboard-response","232","1111186","0.0-13.0-1.0-1.0-0.0-1.11","null","<span style='color:GreenYellow; font-size: 70px;'>正确! </span>","null","","","","","","","","","","","","","","","","","","","","","","","feedback_test"
"","","","","","psychophysics","233","1112871","0.0-13.0-1.0-1.0-0.0-0.12","533","","j","","","","","","","","","","","","","key","j","16.520500000000467","768","428","j","true","img/S_ambi40.png","三角","word_first",""
"","","","","","html-keyboard-response","234","1113183","0.0-13.0-1.0-1.0-0.0-1.12","null","<span style='color:GreenYellow; font-size: 70px;'>正确! </span>","null","","","","","","","","","","","","","","","","","","","","","","","feedback_test"
"","","","","","psychophysics","235","1115022","0.0-13.0-1.0-1.0-0.0-0.13","687","","f","","","","","","","","","","","","","key","f","16.651627272727307","768","428","f","true","img/T_ambi40.png","三角","word_first",""
"","","","","","html-keyboard-response","236","1115325","0.0-13.0-1.0-1.0-0.0-1.13","null","<span style='color:GreenYellow; font-size: 70px;'>正确! </span>","null","","","","","","","","","","","","","","","","","","","","","","","feedback_test"
"","","","","","psychophysics","237","1117077","0.0-13.0-1.0-1.0-0.0-0.14","599","","f","","","","","","","","","","","","","key","f","16.650352380952487","768","428","f","true","img/S_ambi40.png","方形","word_first",""
"","","","","","html-keyboard-response","238","1117383","0.0-13.0-1.0-1.0-0.0-1.14","null","<span style='color:GreenYellow; font-size: 70px;'>正确! </span>","null","","","","","","","","","","","","","","","","","","","","","","","feedback_test"
"","","","","","psychophysics","239","1119102","0.0-13.0-1.0-1.0-0.0-0.15","560","","j","","","","","","","","","","","","","key","j","16.65098039215595","768","428","j","true","img/C_ambi40.png","方形","word_first",""
"","","","","","html-keyboard-response","240","1119418","0.0-13.0-1.0-1.0-0.0-1.15","null","<span style='color:GreenYellow; font-size: 70px;'>正确! </span>","null","","","","","","","","","","","","","","","","","","","","","","","feedback_test"
"","","","","","psychophysics","241","1121125","0.0-13.0-1.0-1.0-0.0-0.16","546","","f","","","","","","","","","","","","","key","f","16.652178217820584","768","428","f","true","img/T_ambi40.png","三角","word_first",""
"","","","","","html-keyboard-response","242","1121441","0.0-13.0-1.0-1.0-0.0-1.16","null","<span style='color:GreenYellow; font-size: 70px;'>正确! </span>","null","","","","","","","","","","","","","","","","","","","","","","","feedback_test"
"","","","","","psychophysics","243","1123349","0.0-13.0-1.0-1.0-0.0-0.17","755","","f","","","","","","","","","","","","","key","f","16.651938596491195","768","428","f","true","img/C_ambi40.png","圆形","word_first",""
"","","","","","html-keyboard-response","244","1123664","0.0-13.0-1.0-1.0-0.0-1.17","null","<span style='color:GreenYellow; font-size: 70px;'>正确! </span>","null","","","","","","","","","","","","","","","","","","","","","","","feedback_test"
"","","","","","psychophysics","245","1125405","0.0-13.0-1.0-1.0-0.0-0.18","586","","j","","","","","","","","","","","","","key","j","16.65065048543682","768","428","j","true","img/T_ambi40.png","方形","word_first",""
"","","","","","html-keyboard-response","246","1125719","0.0-13.0-1.0-1.0-0.0-1.18","null","<span style='color:GreenYellow; font-size: 70px;'>正确! </span>","null","","","","","","","","","","","","","","","","","","","","","","","feedback_test"
"","","","","","psychophysics","247","1127494","0.0-13.0-1.0-1.0-0.0-0.19","620","","j","","","","","","","","","","","","","key","j","16.65120754716918","768","428","j","true","img/C_ambi40.png","三角","word_first",""
"","","","","","html-keyboard-response","248","1127799","0.0-13.0-1.0-1.0-0.0-1.19","null","<span style='color:GreenYellow; font-size: 70px;'>正确! </span>","null","","","","","","","","","","","","","","","","","","","","","","","feedback_test"
"","","","","","psychophysics","249","1129526","0.0-13.0-1.0-1.0-0.0-0.20","573","","j","","","","","","","","","","","","","key","j","16.65112621359102","768","428","j","true","img/S_ambi40.png","圆形","word_first",""
"","","","","","html-keyboard-response","250","1129828","0.0-13.0-1.0-1.0-0.0-1.20","null","<span style='color:GreenYellow; font-size: 70px;'>正确! </span>","null","","","","","","","","","","","","","","","","","","","","","","","feedback_test"
"","","","","","psychophysics","251","1131838","0.0-13.0-1.0-1.0-0.0-0.21","853","","f","","","","","","","","","","","","","key","f","16.650884297520523","768","428","f","true","img/S_ambi40.png","方形","word_first",""
"","","","","","html-keyboard-response","252","1132142","0.0-13.0-1.0-1.0-0.0-1.21","null","<span style='color:GreenYellow; font-size: 70px;'>正确! </span>","null","","","","","","","","","","","","","","","","","","","","","","","feedback_test"
"","","","","","psychophysics","253","1133807","0.0-13.0-1.0-1.0-0.0-0.22","509","","j","","","","","","","","","","","","","key","j","16.65184848484903","768","428","j","true","img/T_ambi40.png","圆形","word_first",""
"","","","","","html-keyboard-response","254","1134114","0.0-13.0-1.0-1.0-0.0-1.22","null","<span style='color:GreenYellow; font-size: 70px;'>正确! </span>","null","","","","","","","","","","","","","","","","","","","","","","","feedback_test"
"","","","","","psychophysics","255","1136487","0.0-13.0-1.0-1.0-0.0-0.23","1222","","f","","","","","","","","","","","","","key","f","16.651584507043236","768","428","f","true","img/C_ambi40.png","圆形","word_first",""
"","","","","","html-keyboard-response","256","1136798","0.0-13.0-1.0-1.0-0.0-1.23","null","<span style='color:GreenYellow; font-size: 70px;'>正确! </span>","null","","","","","","","","","","","","","","","","","","","","","","","feedback_test"
"","","","","","psychophysics","257","1138446","0.0-13.0-1.0-1.0-0.0-0.24","497","","j","","","","","","","","","","","","","key","j","16.651232323233","768","428","j","true","img/C_ambi40.png","三角","word_first",""
"","","","","","html-keyboard-response","258","1138762","0.0-13.0-1.0-1.0-0.0-1.24","null","<span style='color:GreenYellow; font-size: 70px;'>正确! </span>","null","","","","","","","","","","","","","","","","","","","","","","","feedback_test"
"","","","","","psychophysics","259","1140566","0.0-13.0-1.0-1.0-0.0-0.25","652","","j","","","","","","","","","","","","","key","j","16.65124299065384","768","428","j","true","img/S_ambi40.png","圆形","word_first",""
"","","","","","html-keyboard-response","260","1140882","0.0-13.0-1.0-1.0-0.0-1.25","null","<span style='color:GreenYellow; font-size: 70px;'>正确! </span>","null","","","","","","","","","","","","","","","","","","","","","","","feedback_test"
"","","","","","psychophysics","261","1142517","0.0-13.0-1.0-1.0-0.0-0.26","480","","j","","","","","","","","","","","","","key","j","16.65095918367341","768","428","j","true","img/S_ambi40.png","三角","word_first",""
"","","","","","html-keyboard-response","262","1142834","0.0-13.0-1.0-1.0-0.0-1.26","null","<span style='color:GreenYellow; font-size: 70px;'>正确! </span>","null","","","","","","","","","","","","","","","","","","","","","","","feedback_test"
"","","","","","psychophysics","263","1144574","0.0-13.0-1.0-1.0-0.0-0.27","584","","f","","","","","","","","","","","","","key","f","16.651490384616547","768","428","f","true","img/T_ambi40.png","三角","word_first",""
"","","","","","html-keyboard-response","264","1144880","0.0-13.0-1.0-1.0-0.0-1.27","null","<span style='color:GreenYellow; font-size: 70px;'>正确! </span>","null","","","","","","","","","","","","","","","","","","","","","","","feedback_test"
"","","","","","psychophysics","265","1146517","0.0-13.0-1.0-1.0-0.0-0.28","483","","j","","","","","","","","","","","","","key","j","16.650711340205646","768","428","f","false","img/T_ambi40.png","三角","word_first",""
"","","","","","html-keyboard-response","266","1146832","0.0-13.0-1.0-1.0-0.0-1.28","null","<span style='color:red; font-size: 70px;'>错误! </span>","null","","","","","","","","","","","","","","","","","","","","","","","feedback_test"
"","","","","","psychophysics","267","1148598","0.0-13.0-1.0-1.0-0.0-0.29","611","","f","","","","","","","","","","","","","key","f","16.651019047617556","768","428","f","true","img/C_ambi40.png","圆形","word_first",""
"","","","","","html-keyboard-response","268","1148912","0.0-13.0-1.0-1.0-0.0-1.29","null","<span style='color:GreenYellow; font-size: 70px;'>正确! </span>","null","","","","","","","","","","","","","","","","","","","","","","","feedback_test"
"","","","","","psychophysics","269","1150614","0.0-13.0-1.0-1.0-0.0-0.30","546","","f","","","","","","","","","","","","","key","f","16.65172277227745","768","428","f","true","img/S_ambi40.png","方形","word_first",""
"","","","","","html-keyboard-response","270","1150918","0.0-13.0-1.0-1.0-0.0-1.30","null","<span style='color:GreenYellow; font-size: 70px;'>正确! </span>","null","","","","","","","","","","","","","","","","","","","","","","","feedback_test"
"","","","","","psychophysics","271","1152534","0.0-13.0-1.0-1.0-0.0-0.31","464","","f","","","","","","","","","","","","","key","f","16.65083333333314","768","428","f","true","img/S_ambi40.png","方形","word_first",""
"","","","","","html-keyboard-response","272","1152839","0.0-13.0-1.0-1.0-0.0-1.31","null","<span style='color:GreenYellow; font-size: 70px;'>正确! </span>","null","","","","","","","","","","","","","","","","","","","","","","","feedback_test"
"","","","","","psychophysics","273","1154519","0.0-13.0-1.0-1.0-0.0-0.32","520","","j","","","","","","","","","","","","","key","j","16.650519999999087","768","428","j","true","img/T_ambi40.png","圆形","word_first",""
"","","","","","html-keyboard-response","274","1154828","0.0-13.0-1.0-1.0-0.0-1.32","null","<span style='color:GreenYellow; font-size: 70px;'>正确! </span>","null","","","","","","","","","","","","","","","","","","","","","","","feedback_test"
"","","","","","psychophysics","275","1156462","0.0-13.0-1.0-1.0-0.0-0.33","482","","j","","","","","","","","","","","","","key","j","16.823144329896618","768","428","j","true","img/C_ambi40.png","方形","word_first",""
"","","","","","html-keyboard-response","276","1156764","0.0-13.0-1.0-1.0-0.0-1.33","null","<span style='color:GreenYellow; font-size: 70px;'>正确! </span>","null","","","","","","","","","","","","","","","","","","","","","","","feedback_test"
"","","","","","psychophysics","277","1158574","0.0-13.0-1.0-1.0-0.0-0.34","651","","j","","","","","","","","","","","","","key","j","16.650514018691414","768","428","j","true","img/T_ambi40.png","方形","word_first",""
"","","","","","html-keyboard-response","278","1158885","0.0-13.0-1.0-1.0-0.0-1.34","null","<span style='color:GreenYellow; font-size: 70px;'>正确! </span>","null","","","","","","","","","","","","","","","","","","","","","","","feedback_test"
"","","","","","psychophysics","279","1160646","0.0-13.0-1.0-1.0-0.0-0.35","604","","f","","","","","","","","","","","","","key","f","16.650943396226417","768","428","f","true","img/C_ambi40.png","圆形","word_first",""
"","","","","","html-keyboard-response","280","1160946","0.0-13.0-1.0-1.0-0.0-1.35","null","<span style='color:GreenYellow; font-size: 70px;'>正确! </span>","null","","","","","","","","","","","","","","","","","","","","","","","feedback_test"
"","","","","","psychophysics","281","1162597","0.0-13.0-1.0-1.0-0.0-0.36","494","","j","","","","","","","","","","","","","key","j","16.6513232323247","768","428","j","true","img/T_ambi40.png","方形","word_first",""
"","","","","","html-keyboard-response","282","1162901","0.0-13.0-1.0-1.0-0.0-1.36","null","<span style='color:GreenYellow; font-size: 70px;'>正确! </span>","null","","","","","","","","","","","","","","","","","","","","","","","feedback_test"
"","","","","","psychophysics","283","1164607","0.0-13.0-1.0-1.0-0.0-0.37","551","","f","","","","","","","","","","","","","key","f","16.650578431371947","768","428","f","true","img/S_ambi40.png","方形","word_first",""
"","","","","","html-keyboard-response","284","1164917","0.0-13.0-1.0-1.0-0.0-1.37","null","<span style='color:GreenYellow; font-size: 70px;'>正确! </span>","null","","","","","","","","","","","","","","","","","","","","","","","feedback_test"
"","","","","","psychophysics","285","1166623","0.0-13.0-1.0-1.0-0.0-0.38","552","","j","","","","","","","","","","","","","key","j","16.652194174757064","768","428","j","true","img/C_ambi40.png","三角","word_first",""
"","","","","","html-keyboard-response","286","1166937","0.0-13.0-1.0-1.0-0.0-1.38","null","<span style='color:GreenYellow; font-size: 70px;'>正确! </span>","null","","","","","","","","","","","","","","","","","","","","","","","feedback_test"
"","","","","","psychophysics","287","1168718","0.0-13.0-1.0-1.0-0.0-0.39","620","","j","","","","","","","","","","","","","key","j","16.650018867924548","768","428","j","true","img/C_ambi40.png","方形","word_first",""
"","","","","","html-keyboard-response","288","1169025","0.0-13.0-1.0-1.0-0.0-1.39","null","<span style='color:GreenYellow; font-size: 70px;'>正确! </span>","null","","","","","","","","","","","","","","","","","","","","","","","feedback_test"
"","","","","","psychophysics","289","1170798","0.0-13.0-1.0-1.0-0.0-0.40","619","","f","","","","","","","","","","","","","key","f","16.650438095238947","768","428","f","true","img/S_ambi40.png","方形","word_first",""
"","","","","","html-keyboard-response","290","1171113","0.0-13.0-1.0-1.0-0.0-1.40","null","<span style='color:GreenYellow; font-size: 70px;'>正确! </span>","null","","","","","","","","","","","","","","","","","","","","","","","feedback_test"
"","","","","","psychophysics","291","1173022","0.0-13.0-1.0-1.0-0.0-0.41","758","","j","","","","","","","","","","","","","key","j","16.6519912280706","768","428","j","true","img/T_ambi40.png","圆形","word_first",""
"","","","","","html-keyboard-response","292","1173326","0.0-13.0-1.0-1.0-0.0-1.41","null","<span style='color:GreenYellow; font-size: 70px;'>正确! </span>","null","","","","","","","","","","","","","","","","","","","","","","","feedback_test"
"","","","","","psychophysics","293","1175405","0.0-13.0-1.0-1.0-0.0-0.42","926","","f","","","","","","","","","","","","","key","f","16.65013599999994","768","428","f","true","img/T_ambi40.png","三角","word_first",""
"","","","","","html-keyboard-response","294","1175713","0.0-13.0-1.0-1.0-0.0-1.42","null","<span style='color:GreenYellow; font-size: 70px;'>正确! </span>","null","","","","","","","","","","","","","","","","","","","","","","","feedback_test"
"","","","","","psychophysics","295","1177502","0.0-13.0-1.0-1.0-0.0-0.43","634","","j","","","","","","","","","","","","","key","j","16.651849056605055","768","428","j","true","img/S_ambi40.png","圆形","word_first",""
"","","","","","html-keyboard-response","296","1177804","0.0-13.0-1.0-1.0-0.0-1.43","null","<span style='color:GreenYellow; font-size: 70px;'>正确! </span>","null","","","","","","","","","","","","","","","","","","","","","","","feedback_test"
"","","","","","psychophysics","297","1180230","0.0-13.0-1.0-1.0-0.0-0.44","1274","","f","","","","","","","","","","","","","key","f","16.650772413792858","768","428","f","true","img/T_ambi40.png","三角","word_first",""
"","","","","","html-keyboard-response","298","1180534","0.0-13.0-1.0-1.0-0.0-1.44","null","<span style='color:GreenYellow; font-size: 70px;'>正确! </span>","null","","","","","","","","","","","","","","","","","","","","","","","feedback_test"
"","","","","","psychophysics","299","1182495","0.0-13.0-1.0-1.0-0.0-0.45","806","","j","","","","","","","","","","","","","key","j","16.65171794871736","768","428","j","true","img/S_ambi40.png","三角","word_first",""
"","","","","","html-keyboard-response","300","1182797","0.0-13.0-1.0-1.0-0.0-1.45","null","<span style='color:GreenYellow; font-size: 70px;'>正确! </span>","null","","","","","","","","","","","","","","","","","","","","","","","feedback_test"
"","","","","","psychophysics","301","1184694","0.0-13.0-1.0-1.0-0.0-0.46","740","","f","","","","","","","","","","","","","key","f","16.651787610619486","768","428","f","true","img/C_ambi40.png","圆形","word_first",""
"","","","","","html-keyboard-response","302","1185003","0.0-13.0-1.0-1.0-0.0-1.46","null","<span style='color:GreenYellow; font-size: 70px;'>正确! </span>","null","","","","","","","","","","","","","","","","","","","","","","","feedback_test"
"","","","","","psychophysics","303","1186742","0.0-13.0-1.0-1.0-0.0-0.47","586","","f","","","","","","","","","","","","","key","f","16.65103846153719","768","428","f","true","img/C_ambi40.png","圆形","word_first",""
"","","","","","html-keyboard-response","304","1187044","0.0-13.0-1.0-1.0-0.0-1.47","null","<span style='color:GreenYellow; font-size: 70px;'>正确! </span>","null","","","","","","","","","","","","","","","","","","","","","","","feedback_test"
"","","","","","psychophysics","305","1188870","0.0-13.0-1.0-1.0-0.0-0.48","670","","j","","","","","","","","","","","","","key","j","16.650394495412144","768","428","j","true","img/T_ambi40.png","方形","word_first",""
"","","","","","html-keyboard-response","306","1189172","0.0-13.0-1.0-1.0-0.0-1.48","null","<span style='color:GreenYellow; font-size: 70px;'>正确! </span>","null","","","","","","","","","","","","","","","","","","","","","","","feedback_test"
"","","","","","psychophysics","307","1191318","0.0-13.0-1.0-1.0-0.0-0.49","992","","f","","","","","","","","","","","","","key","f","16.65105468749971","768","428","f","true","img/T_ambi40.png","三角","word_first",""
"","","","","","html-keyboard-response","308","1191620","0.0-13.0-1.0-1.0-0.0-1.49","null","<span style='color:GreenYellow; font-size: 70px;'>正确! </span>","null","","","","","","","","","","","","","","","","","","","","","","","feedback_test"
"","","","","","psychophysics","309","1193399","0.0-13.0-1.0-1.0-0.0-0.50","621","","j","","","","","","","","","","","","","key","j","16.650420560747403","768","428","j","true","img/S_ambi40.png","三角","word_first",""
"","","","","","html-keyboard-response","310","1193700","0.0-13.0-1.0-1.0-0.0-1.50","null","<span style='color:GreenYellow; font-size: 70px;'>正确! </span>","null","","","","","","","","","","","","","","","","","","","","","","","feedback_test"
"","","","","","psychophysics","311","1195806","0.0-13.0-1.0-1.0-0.0-0.51","952","","f","","","","","","","","","","","","","key","f","16.651412698412535","768","428","f","true","img/T_ambi40.png","三角","word_first",""
"","","","","","html-keyboard-response","312","1196117","0.0-13.0-1.0-1.0-0.0-1.51","null","<span style='color:GreenYellow; font-size: 70px;'>正确! </span>","null","","","","","","","","","","","","","","","","","","","","","","","feedback_test"
"","","","","","psychophysics","313","1198432","0.0-13.0-1.0-1.0-0.0-0.52","1158","","j","","","","","","","","","","","","","key","j","16.651717391303755","768","428","j","true","img/C_ambi40.png","三角","word_first",""
"","","","","","html-keyboard-response","314","1198742","0.0-13.0-1.0-1.0-0.0-1.52","null","<span style='color:GreenYellow; font-size: 70px;'>正确! </span>","null","","","","","","","","","","","","","","","","","","","","","","","feedback_test"
"","","","","","psychophysics","315","1200527","0.0-13.0-1.0-1.0-0.0-0.53","629","","f","","","","","","","","","","","","","key","f","16.650093457942273","768","428","f","true","img/S_ambi40.png","方形","word_first",""
"","","","","","html-keyboard-response","316","1200844","0.0-13.0-1.0-1.0-0.0-1.53","null","<span style='color:GreenYellow; font-size: 70px;'>正确! </span>","null","","","","","","","","","","","","","","","","","","","","","","","feedback_test"
"","","","","","psychophysics","317","1202662","0.0-13.0-1.0-1.0-0.0-0.54","662","","f","","","","","","","","","","","","","key","f","16.651083333333695","768","428","f","true","img/C_ambi40.png","圆形","word_first",""
"","","","","","html-keyboard-response","318","1202964","0.0-13.0-1.0-1.0-0.0-1.54","null","<span style='color:GreenYellow; font-size: 70px;'>正确! </span>","null","","","","","","","","","","","","","","","","","","","","","","","feedback_test"
"","","","","","psychophysics","319","1204934","0.0-13.0-1.0-1.0-0.0-0.55","816","","j","","","","","","","","","","","","","key","j","16.651358974359244","768","428","j","true","img/S_ambi40.png","圆形","word_first",""
"","","","","","html-keyboard-response","320","1205241","0.0-13.0-1.0-1.0-0.0-1.55","null","<span style='color:GreenYellow; font-size: 70px;'>正确! </span>","null","","","","","","","","","","","","","","","","","","","","","","","feedback_test"
"","","","","","psychophysics","321","1206910","0.0-13.0-1.0-1.0-0.0-0.56","517","","f","","","","","","","","","","","","","key","f","16.65154545454572","768","428","f","true","img/C_ambi40.png","圆形","word_first",""
"","","","","","html-keyboard-response","322","1207222","0.0-13.0-1.0-1.0-0.0-1.56","null","<span style='color:GreenYellow; font-size: 70px;'>正确! </span>","null","","","","","","","","","","","","","","","","","","","","","","","feedback_test"
"","","","","","psychophysics","323","1209070","0.0-13.0-1.0-1.0-0.0-0.57","693","","j","","","","","","","","","","","","","key","j","16.651118181817317","768","428","j","true","img/T_ambi40.png","圆形","word_first",""
"","","","","","html-keyboard-response","324","1209377","0.0-13.0-1.0-1.0-0.0-1.57","null","<span style='color:GreenYellow; font-size: 70px;'>正确! </span>","null","","","","","","","","","","","","","","","","","","","","","","","feedback_test"
"","","","","","psychophysics","325","1211390","0.0-13.0-1.0-1.0-0.0-0.58","861","","f","","","","","","","","","","","","","key","f","16.791294117645993","768","428","f","true","img/S_ambi40.png","方形","word_first",""
"","","","","","html-keyboard-response","326","1211705","0.0-13.0-1.0-1.0-0.0-1.58","null","<span style='color:GreenYellow; font-size: 70px;'>正确! </span>","null","","","","","","","","","","","","","","","","","","","","","","","feedback_test"
"","","","","","psychophysics","327","1213398","0.0-13.0-1.0-1.0-0.0-0.59","539","","f","","","","","","","","","","","","","key","f","16.651455445542453","768","428","j","false","img/C_ambi40.png","方形","word_first",""
"","","","","","html-keyboard-response","328","1213703","0.0-13.0-1.0-1.0-0.0-1.59","null","<span style='color:red; font-size: 70px;'>错误! </span>","null","","","","","","","","","","","","","","","","","","","","","","","feedback_test"
"","","","","","html-keyboard-response","329","1314567","0.0-13.0-1.0-1.0-1.0","100862","<style>.context{color:white; font-size: 35px; line-height:40px}</style>                            <div><p class='context'>您正确回答了97% 的试次。</p><p class='context'>您的平均反应时为695毫秒。</p><p class='context'>请按任意键进入休息</p></div>"," ","","","","","","","","","","","","","","","","","","","","","","",""
"","","","","","html-button-response","330","1379392","0.0-13.0-1.0-1.0-2.0","64822","
                    <p>您当前还剩余3组实验</p>
                    <p>现在是休息时间，当您结束休息后，您可以点击 结束休息 按钮 继续</p>
                    <p>建议休息时间还剩余<span id=""iii"">60</span>秒</p>","0","","","","","","","","","","","","","","","","","","","","","","",""
"","","","","","psychophysics","331","1381190","0.0-13.0-1.0-1.0-0.1-0.60","645","","j","","","","","","","","","","","","","key","j","16.650850467290294","768","428","j","true","img/S_ambi40.png","三角","word_first",""
"","","","","","html-keyboard-response","332","1381496","0.0-13.0-1.0-1.0-0.1-1.60","null","<span style='color:GreenYellow; font-size: 70px;'>正确! </span>","null","","","","","","","","","","","","","","","","","","","","","","","feedback_test"
"","","","","","psychophysics","333","1383286","0.0-13.0-1.0-1.0-0.1-0.61","636","","j","","","","","","","","","","","","","key","j","16.65166355140081","768","428","j","true","img/T_ambi40.png","方形","word_first",""
"","","","","","html-keyboard-response","334","1383588","0.0-13.0-1.0-1.0-0.1-1.61","null","<span style='color:GreenYellow; font-size: 70px;'>正确! </span>","null","","","","","","","","","","","","","","","","","","","","","","","feedback_test"
"","","","","","psychophysics","335","1385398","0.0-13.0-1.0-1.0-0.1-0.62","654","","f","","","","","","","","","","","","","key","f","16.65174074074107","768","428","f","true","img/C_ambi40.png","圆形","word_first",""
"","","","","","html-keyboard-response","336","1385713","0.0-13.0-1.0-1.0-0.1-1.62","null","<span style='color:GreenYellow; font-size: 70px;'>正确! </span>","null","","","","","","","","","","","","","","","","","","","","","","","feedback_test"
"","","","","","psychophysics","337","1387590","0.0-13.0-1.0-1.0-0.1-0.63","726","","f","","","","","","","","","","","","","key","f","16.538162162162465","768","428","f","true","img/T_ambi40.png","三角","word_first",""
"","","","","","html-keyboard-response","338","1387900","0.0-13.0-1.0-1.0-0.1-1.63","null","<span style='color:GreenYellow; font-size: 70px;'>正确! </span>","null","","","","","","","","","","","","","","","","","","","","","","","feedback_test"
"","","","","","psychophysics","339","1389750","0.0-13.0-1.0-1.0-0.1-0.64","693","","j","","","","","","","","","","","","","key","j","16.6512454545464","768","428","j","true","img/C_ambi40.png","方形","word_first",""
"","","","","","html-keyboard-response","340","1390058","0.0-13.0-1.0-1.0-0.1-1.64","null","<span style='color:GreenYellow; font-size: 70px;'>正确! </span>","null","","","","","","","","","","","","","","","","","","","","","","","feedback_test"
"","","","","","psychophysics","341","1391815","0.0-13.0-1.0-1.0-0.1-0.65","605","","j","","","","","","","","","","","","","key","j","16.80960952381027","768","428","j","true","img/S_ambi40.png","圆形","word_first",""
"","","","","","html-keyboard-response","342","1392122","0.0-13.0-1.0-1.0-0.1-1.65","null","<span style='color:GreenYellow; font-size: 70px;'>正确! </span>","null","","","","","","","","","","","","","","","","","","","","","","","feedback_test"
"","","","","","psychophysics","343","1393878","0.0-13.0-1.0-1.0-0.1-0.66","603","","f","","","","","","","","","","","","","key","f","16.652571428571605","768","428","f","true","img/T_ambi40.png","三角","word_first",""
"","","","","","html-keyboard-response","344","1394182","0.0-13.0-1.0-1.0-0.1-1.66","null","<span style='color:GreenYellow; font-size: 70px;'>正确! </span>","null","","","","","","","","","","","","","","","","","","","","","","","feedback_test"
"","","","","","psychophysics","345","1395854","0.0-13.0-1.0-1.0-0.1-0.67","519","","j","","","","","","","","","","","","","key","j","16.651484848484586","768","428","j","true","img/C_ambi40.png","三角","word_first",""
"","","","","","html-keyboard-response","346","1396163","0.0-13.0-1.0-1.0-0.1-1.67","null","<span style='color:GreenYellow; font-size: 70px;'>正确! </span>","null","","","","","","","","","","","","","","","","","","","","","","","feedback_test"
"","","","","","psychophysics","347","1397910","0.0-13.0-1.0-1.0-0.1-0.68","593","","f","","","","","","","","","","","","","key","f","16.651190476190475","768","428","f","true","img/C_ambi40.png","圆形","word_first",""
"","","","","","html-keyboard-response","348","1398212","0.0-13.0-1.0-1.0-0.1-1.68","null","<span style='color:GreenYellow; font-size: 70px;'>正确! </span>","null","","","","","","","","","","","","","","","","","","","","","","","feedback_test"
"","","","","","psychophysics","349","1399926","0.0-13.0-1.0-1.0-0.1-0.69","560","","f","","","","","","","","","","","","","key","f","16.651490196078907","768","428","f","true","img/S_ambi40.png","方形","word_first",""
"","","","","","html-keyboard-response","350","1400240","0.0-13.0-1.0-1.0-0.1-1.69","null","<span style='color:GreenYellow; font-size: 70px;'>正确! </span>","null","","","","","","","","","","","","","","","","","","","","","","","feedback_test"
"","","","","","psychophysics","351","1402055","0.0-13.0-1.0-1.0-0.1-0.70","658","","f","","","","","","","","","","","","","key","f","16.65061111111168","768","428","f","true","img/S_ambi40.png","方形","word_first",""
"","","","","","html-keyboard-response","352","1402364","0.0-13.0-1.0-1.0-0.1-1.70","null","<span style='color:GreenYellow; font-size: 70px;'>正确! </span>","null","","","","","","","","","","","","","","","","","","","","","","","feedback_test"
"","","","","","psychophysics","353","1404119","0.0-13.0-1.0-1.0-0.1-0.71","603","","j","","","","","","","","","","","","","key","j","16.651076190475198","768","428","j","true","img/T_ambi40.png","圆形","word_first",""
"","","","","","html-keyboard-response","354","1404423","0.0-13.0-1.0-1.0-0.1-1.71","null","<span style='color:GreenYellow; font-size: 70px;'>正确! </span>","null","","","","","","","","","","","","","","","","","","","","","","","feedback_test"
"","","","","","psychophysics","355","1406182","0.0-13.0-1.0-1.0-0.1-0.72","607","","f","","","","","","","","","","","","","key","f","16.652200000001383","768","428","f","true","img/T_ambi40.png","三角","word_first",""
"","","","","","html-keyboard-response","356","1406484","0.0-13.0-1.0-1.0-0.1-1.72","null","<span style='color:GreenYellow; font-size: 70px;'>正确! </span>","null","","","","","","","","","","","","","","","","","","","","","","","feedback_test"
"","","","","","psychophysics","357","1408350","0.0-13.0-1.0-1.0-0.1-0.73","710","","f","","","","","","","","","","","","","key","f","16.651531531532118","768","428","f","true","img/S_ambi40.png","方形","word_first",""
"","","","","","html-keyboard-response","358","1408656","0.0-13.0-1.0-1.0-0.1-1.73","null","<span style='color:GreenYellow; font-size: 70px;'>正确! </span>","null","","","","","","","","","","","","","","","","","","","","","","","feedback_test"
"","","","","","psychophysics","359","1410606","0.0-13.0-1.0-1.0-0.1-0.74","796","","j","","","","","","","","","","","","","key","j","16.65074358974249","768","428","j","true","img/C_ambi40.png","方形","word_first",""
"","","","","","html-keyboard-response","360","1410918","0.0-13.0-1.0-1.0-0.1-1.74","null","<span style='color:GreenYellow; font-size: 70px;'>正确! </span>","null","","","","","","","","","","","","","","","","","","","","","","","feedback_test"
"","","","","","psychophysics","361","1413048","0.0-13.0-1.0-1.0-0.1-0.75","974","","f","","","","","","","","","","","","","key","f","16.65124409448898","768","428","j","false","img/S_ambi40.png","圆形","word_first",""
"","","","","","html-keyboard-response","362","1413356","0.0-13.0-1.0-1.0-0.1-1.75","null","<span style='color:red; font-size: 70px;'>错误! </span>","null","","","","","","","","","","","","","","","","","","","","","","","feedback_test"
"","","","","","psychophysics","363","1415366","0.0-13.0-1.0-1.0-0.1-0.76","853","","j","","","","","","","","","","","","","key","j","16.6503500000011","768","428","j","true","img/T_ambi40.png","圆形","word_first",""
"","","","","","html-keyboard-response","364","1415681","0.0-13.0-1.0-1.0-0.1-1.76","null","<span style='color:GreenYellow; font-size: 70px;'>正确! </span>","null","","","","","","","","","","","","","","","","","","","","","","","feedback_test"
"","","","","","psychophysics","365","1417358","0.0-13.0-1.0-1.0-0.1-0.77","522","","j","","","","","","","","","","","","","key","j","16.6504455445551","768","428","j","true","img/S_ambi40.png","三角","word_first",""
"","","","","","html-keyboard-response","366","1417661","0.0-13.0-1.0-1.0-0.1-1.77","null","<span style='color:GreenYellow; font-size: 70px;'>正确! </span>","null","","","","","","","","","","","","","","","","","","","","","","","feedback_test"
"","","","","","psychophysics","367","1419376","0.0-13.0-1.0-1.0-0.1-0.78","561","","f","","","","","","","","","","","","","key","f","16.65070588235497","768","428","f","true","img/T_ambi40.png","三角","word_first",""
"","","","","","html-keyboard-response","368","1419687","0.0-13.0-1.0-1.0-0.1-1.78","null","<span style='color:GreenYellow; font-size: 70px;'>正确! </span>","null","","","","","","","","","","","","","","","","","","","","","","","feedback_test"
"","","","","","psychophysics","369","1421454","0.0-13.0-1.0-1.0-0.1-0.79","613","","f","","","","","","","","","","","","","key","f","16.651198113207563","768","428","f","true","img/S_ambi40.png","方形","word_first",""
"","","","","","html-keyboard-response","370","1421769","0.0-13.0-1.0-1.0-0.1-1.79","null","<span style='color:GreenYellow; font-size: 70px;'>正确! </span>","null","","","","","","","","","","","","","","","","","","","","","","","feedback_test"
"","","","","","psychophysics","371","1423534","0.0-13.0-1.0-1.0-0.1-0.80","609","","f","","","","","","","","","","","","","key","f","16.65135238095231","768","428","f","true","img/C_ambi40.png","圆形","word_first",""
"","","","","","html-keyboard-response","372","1423837","0.0-13.0-1.0-1.0-0.1-1.80","null","<span style='color:GreenYellow; font-size: 70px;'>正确! </span>","null","","","","","","","","","","","","","","","","","","","","","","","feedback_test"
"","","","","","psychophysics","373","1425589","0.0-13.0-1.0-1.0-0.1-0.81","594","","j","","","","","","","","","","","","","key","j","16.651884615385477","768","428","j","true","img/C_ambi40.png","三角","word_first",""
"","","","","","html-keyboard-response","374","1425902","0.0-13.0-1.0-1.0-0.1-1.81","null","<span style='color:GreenYellow; font-size: 70px;'>正确! </span>","null","","","","","","","","","","","","","","","","","","","","","","","feedback_test"
"","","","","","psychophysics","375","1427654","0.0-13.0-1.0-1.0-0.1-0.82","594","","j","","","","","","","","","","","","","key","j","16.652105769232058","768","428","j","true","img/T_ambi40.png","方形","word_first",""
"","","","","","html-keyboard-response","376","1427960","0.0-13.0-1.0-1.0-0.1-1.82","null","<span style='color:GreenYellow; font-size: 70px;'>正确! </span>","null","","","","","","","","","","","","","","","","","","","","","","","feedback_test"
"","","","","","psychophysics","377","1429582","0.0-13.0-1.0-1.0-0.1-0.83","467","","f","","","","","","","","","","","","","key","f","16.65147916666562","768","428","f","true","img/C_ambi40.png","圆形","word_first",""
"","","","","","html-keyboard-response","378","1429891","0.0-13.0-1.0-1.0-0.1-1.83","null","<span style='color:GreenYellow; font-size: 70px;'>正确! </span>","null","","","","","","","","","","","","","","","","","","","","","","","feedback_test"
"","","","","","psychophysics","379","1431661","0.0-13.0-1.0-1.0-0.1-0.84","614","","f","","","","","","","","","","","","","key","f","16.651514285714143","768","428","f","true","img/C_ambi40.png","圆形","word_first",""
"","","","","","html-keyboard-response","380","1431968","0.0-13.0-1.0-1.0-0.1-1.84","null","<span style='color:GreenYellow; font-size: 70px;'>正确! </span>","null","","","","","","","","","","","","","","","","","","","","","","","feedback_test"
"","","","","","psychophysics","381","1434174","0.0-13.0-1.0-1.0-0.1-0.85","1053","","f","","","","","","","","","","","","","key","f","16.65159090909098","768","428","j","false","img/C_ambi40.png","方形","word_first",""
"","","","","","html-keyboard-response","382","1434482","0.0-13.0-1.0-1.0-0.1-1.85","null","<span style='color:red; font-size: 70px;'>错误! </span>","null","","","","","","","","","","","","","","","","","","","","","","","feedback_test"
"","","","","","psychophysics","383","1436742","0.0-13.0-1.0-1.0-0.1-0.86","1107","","f","","","","","","","","","","","","","key","f","16.651955555555308","768","428","j","false","img/C_ambi40.png","三角","word_first",""
"","","","","","html-keyboard-response","384","1437043","0.0-13.0-1.0-1.0-0.1-1.86","null","<span style='color:red; font-size: 70px;'>错误! </span>","null","","","","","","","","","","","","","","","","","","","","","","","feedback_test"
"","","","","","psychophysics","385","1438734","0.0-13.0-1.0-1.0-0.1-0.87","535","","f","","","","","","","","","","","","","key","f","16.65087254902156","768","428","f","true","img/S_ambi40.png","方形","word_first",""
"","","","","","html-keyboard-response","386","1439042","0.0-13.0-1.0-1.0-0.1-1.87","null","<span style='color:GreenYellow; font-size: 70px;'>正确! </span>","null","","","","","","","","","","","","","","","","","","","","","","","feedback_test"
"","","","","","psychophysics","387","1441526","0.0-13.0-1.0-1.0-0.1-0.88","1330","","j","","","","","","","","","","","","","key","j","16.651865771810694","768","428","j","true","img/T_ambi40.png","方形","word_first",""
"","","","","","html-keyboard-response","388","1441833","0.0-13.0-1.0-1.0-0.1-1.88","null","<span style='color:GreenYellow; font-size: 70px;'>正确! </span>","null","","","","","","","","","","","","","","","","","","","","","","","feedback_test"
"","","","","","psychophysics","389","1443678","0.0-13.0-1.0-1.0-0.1-0.89","690","","j","","","","","","","","","","","","","key","j","16.6512454545464","768","428","j","true","img/S_ambi40.png","圆形","word_first",""
"","","","","","html-keyboard-response","390","1443985","0.0-13.0-1.0-1.0-0.1-1.89","null","<span style='color:GreenYellow; font-size: 70px;'>正确! </span>","null","","","","","","","","","","","","","","","","","","","","","","","feedback_test"
"","","","","","psychophysics","391","1445678","0.0-13.0-1.0-1.0-0.1-0.90","535","","j","","","","","","","","","","","","","key","j","16.652128712871196","768","428","f","false","img/T_ambi40.png","三角","word_first",""
"","","","","","html-keyboard-response","392","1445985","0.0-13.0-1.0-1.0-0.1-1.90","null","<span style='color:red; font-size: 70px;'>错误! </span>","null","","","","","","","","","","","","","","","","","","","","","","","feedback_test"
"","","","","","psychophysics","393","1447805","0.0-13.0-1.0-1.0-0.1-0.91","664","","f","","","","","","","","","","","","","key","f","16.651129629628958","768","428","f","true","img/T_ambi40.png","三角","word_first",""
"","","","","","html-keyboard-response","394","1448111","0.0-13.0-1.0-1.0-0.1-1.91","null","<span style='color:GreenYellow; font-size: 70px;'>正确! </span>","null","","","","","","","","","","","","","","","","","","","","","","","feedback_test"
"","","","","","psychophysics","395","1449775","0.0-13.0-1.0-1.0-0.1-0.92","508","","f","","","","","","","","","","","","","key","f","16.650676767678103","768","428","f","true","img/S_ambi40.png","方形","word_first",""
"","","","","","html-keyboard-response","396","1450082","0.0-13.0-1.0-1.0-0.1-1.92","null","<span style='color:GreenYellow; font-size: 70px;'>正确! </span>","null","","","","","","","","","","","","","","","","","","","","","","","feedback_test"
"","","","","","psychophysics","397","1451702","0.0-13.0-1.0-1.0-0.1-0.93","465","","j","","","","","","","","","","","","","key","j","16.651659793813337","768","428","j","true","img/S_ambi40.png","三角","word_first",""
"","","","","","html-keyboard-response","398","1452006","0.0-13.0-1.0-1.0-0.1-1.93","null","<span style='color:GreenYellow; font-size: 70px;'>正确! </span>","null","","","","","","","","","","","","","","","","","","","","","","","feedback_test"
"","","","","","psychophysics","399","1453671","0.0-13.0-1.0-1.0-0.1-0.94","507","","f","","","","","","","","","","","","","key","f","16.650363636365388","768","428","f","true","img/C_ambi40.png","圆形","word_first",""
"","","","","","html-keyboard-response","400","1453975","0.0-13.0-1.0-1.0-0.1-1.94","null","<span style='color:GreenYellow; font-size: 70px;'>正确! </span>","null","","","","","","","","","","","","","","","","","","","","","","","feedback_test"
"","","","","","psychophysics","401","1455613","0.0-13.0-1.0-1.0-0.1-0.95","480","","j","","","","","","","","","","","","","key","j","16.651214285715653","768","428","j","true","img/T_ambi40.png","圆形","word_first",""
"","","","","","html-keyboard-response","402","1455929","0.0-13.0-1.0-1.0-0.1-1.95","null","<span style='color:GreenYellow; font-size: 70px;'>正确! </span>","null","","","","","","","","","","","","","","","","","","","","","","","feedback_test"
"","","","","","psychophysics","403","1457566","0.0-13.0-1.0-1.0-0.1-0.96","485","","j","","","","","","","","","","","","","key","j","16.650454545454732","768","428","j","true","img/T_ambi40.png","圆形","word_first",""
"","","","","","html-keyboard-response","404","1457877","0.0-13.0-1.0-1.0-0.1-1.96","null","<span style='color:GreenYellow; font-size: 70px;'>正确! </span>","null","","","","","","","","","","","","","","","","","","","","","","","feedback_test"
"","","","","","psychophysics","405","1459535","0.0-13.0-1.0-1.0-0.1-0.97","506","","j","","","","","","","","","","","","","key","j","16.65136363636467","768","428","j","true","img/C_ambi40.png","方形","word_first",""
"","","","","","html-keyboard-response","406","1459846","0.0-13.0-1.0-1.0-0.1-1.97","null","<span style='color:GreenYellow; font-size: 70px;'>正确! </span>","null","","","","","","","","","","","","","","","","","","","","","","","feedback_test"
"","","","","","psychophysics","407","1461573","0.0-13.0-1.0-1.0-0.1-0.98","571","","j","","","","","","","","","","","","","key","j","16.65095145631021","768","428","j","true","img/S_ambi40.png","圆形","word_first",""
"","","","","","html-keyboard-response","408","1461878","0.0-13.0-1.0-1.0-0.1-1.98","null","<span style='color:GreenYellow; font-size: 70px;'>正确! </span>","null","","","","","","","","","","","","","","","","","","","","","","","feedback_test"
"","","","","","psychophysics","409","1463702","0.0-13.0-1.0-1.0-0.1-0.99","664","","f","","","","","","","","","","","","","key","f","16.650816513761587","768","428","f","true","img/S_ambi40.png","方形","word_first",""
"","","","","","html-keyboard-response","410","1464011","0.0-13.0-1.0-1.0-0.1-1.99","null","<span style='color:GreenYellow; font-size: 70px;'>正确! </span>","null","","","","","","","","","","","","","","","","","","","","","","","feedback_test"
"","","","","","psychophysics","411","1465981","0.0-13.0-1.0-1.0-0.1-0.100","813","","j","","","","","","","","","","","","","key","j","16.651290598291602","768","428","j","true","img/S_ambi40.png","三角","word_first",""
"","","","","","html-keyboard-response","412","1466289","0.0-13.0-1.0-1.0-0.1-1.100","null","<span style='color:GreenYellow; font-size: 70px;'>正确! </span>","null","","","","","","","","","","","","","","","","","","","","","","","feedback_test"
"","","","","","psychophysics","413","1468037","0.0-13.0-1.0-1.0-0.1-0.101","598","","f","","","","","","","","","","","","","key","f","16.651873786407027","768","428","f","true","img/S_ambi40.png","方形","word_first",""
"","","","","","html-keyboard-response","414","1468340","0.0-13.0-1.0-1.0-0.1-1.101","null","<span style='color:GreenYellow; font-size: 70px;'>正确! </span>","null","","","","","","","","","","","","","","","","","","","","","","","feedback_test"
"","","","","","psychophysics","415","1470015","0.0-13.0-1.0-1.0-0.1-0.102","520","","j","","","","","","","","","","","","","key","j","16.65209090909121","768","428","j","true","img/T_ambi40.png","方形","word_first",""
"","","","","","html-keyboard-response","416","1470325","0.0-13.0-1.0-1.0-0.1-1.102","null","<span style='color:GreenYellow; font-size: 70px;'>正确! </span>","null","","","","","","","","","","","","","","","","","","","","","","","feedback_test"
"","","","","","psychophysics","417","1472742","0.0-13.0-1.0-1.0-0.1-0.103","1265","","f","","","","","","","","","","","","","key","f","16.650715277777635","768","428","f","true","img/C_ambi40.png","圆形","word_first",""
"","","","","","html-keyboard-response","418","1473056","0.0-13.0-1.0-1.0-0.1-1.103","null","<span style='color:GreenYellow; font-size: 70px;'>正确! </span>","null","","","","","","","","","","","","","","","","","","","","","","","feedback_test"
"","","","","","psychophysics","419","1474654","0.0-13.0-1.0-1.0-0.1-0.104","439","","j","","","","","","","","","","","","","key","j","16.65089583333368","768","428","f","false","img/T_ambi40.png","三角","word_first",""
"","","","","","html-keyboard-response","420","1474956","0.0-13.0-1.0-1.0-0.1-1.104","null","<span style='color:red; font-size: 70px;'>错误! </span>","null","","","","","","","","","","","","","","","","","","","","","","","feedback_test"
"","","","","","psychophysics","421","1476654","0.0-13.0-1.0-1.0-0.1-0.105","542","","f","","","","","","","","","","","","","key","f","16.65105882352766","768","428","f","true","img/C_ambi40.png","圆形","word_first",""
"","","","","","html-keyboard-response","422","1476968","0.0-13.0-1.0-1.0-0.1-1.105","null","<span style='color:GreenYellow; font-size: 70px;'>正确! </span>","null","","","","","","","","","","","","","","","","","","","","","","","feedback_test"
"","","","","","psychophysics","423","1478638","0.0-13.0-1.0-1.0-0.1-0.106","513","","f","","","","","","","","","","","","","key","f","16.651171717171867","768","428","f","true","img/T_ambi40.png","三角","word_first",""
"","","","","","html-keyboard-response","424","1478952","0.0-13.0-1.0-1.0-0.1-1.106","null","<span style='color:GreenYellow; font-size: 70px;'>正确! </span>","null","","","","","","","","","","","","","","","","","","","","","","","feedback_test"
"","","","","","psychophysics","425","1480710","0.0-13.0-1.0-1.0-0.1-0.107","604","","j","","","","","","","","","","","","","key","j","16.651169811320525","768","428","j","true","img/C_ambi40.png","三角","word_first",""
"","","","","","html-keyboard-response","426","1481014","0.0-13.0-1.0-1.0-0.1-1.107","null","<span style='color:GreenYellow; font-size: 70px;'>正确! </span>","null","","","","","","","","","","","","","","","","","","","","","","","feedback_test"
"","","","","","psychophysics","427","1482837","0.0-13.0-1.0-1.0-0.1-0.108","664","","f","","","","","","","","","","","","","key","f","16.65157798165242","768","428","f","true","img/S_ambi40.png","方形","word_first",""
"","","","","","html-keyboard-response","428","1483144","0.0-13.0-1.0-1.0-0.1-1.108","null","<span style='color:GreenYellow; font-size: 70px;'>正确! </span>","null","","","","","","","","","","","","","","","","","","","","","","","feedback_test"
"","","","","","psychophysics","429","1484831","0.0-13.0-1.0-1.0-0.1-0.109","530","","f","","","","","","","","","","","","","key","f","16.651439999998548","768","428","f","true","img/T_ambi40.png","三角","word_first",""
"","","","","","html-keyboard-response","430","1485142","0.0-13.0-1.0-1.0-0.1-1.109","null","<span style='color:GreenYellow; font-size: 70px;'>正确! </span>","null","","","","","","","","","","","","","","","","","","","","","","","feedback_test"
"","","","","","psychophysics","431","1486749","0.0-13.0-1.0-1.0-0.1-0.110","450","","f","","","","","","","","","","","","","key","f","16.650770833332597","768","428","f","true","img/S_ambi40.png","方形","word_first",""
"","","","","","html-keyboard-response","432","1487063","0.0-13.0-1.0-1.0-0.1-1.110","null","<span style='color:GreenYellow; font-size: 70px;'>正确! </span>","null","","","","","","","","","","","","","","","","","","","","","","","feedback_test"
"","","","","","psychophysics","433","1488734","0.0-13.0-1.0-1.0-0.1-0.111","515","","j","","","","","","","","","","","","","key","j","16.650393939393602","768","428","j","true","img/C_ambi40.png","三角","word_first",""
