"success","timeout","failed_images","failed_audio","failed_video","trial_type","trial_index","time_elapsed","internal_node_id","rt","stimulus","response","value","item_width_mm","item_height_mm","item_width_px","px2mm","view_dist_mm","item_width_deg","px2deg","scale_factor","win_width_deg","win_height_deg","view_history","response_type","key_press","avg_frame_time","center_x","center_y","correct_response","correct","Image","word","condition","screen_id"
"true","false","[]","[]","[]","preload","0","871","0.0-0.0","","","","","","","","","","","","","","","","","","","","","","","","","",""
"","","","","","html-keyboard-response","1","18325","0.0-1.0","17453","
   <p>您好，欢迎参加本次实验。</p>
   <p>为充分保障您的权利，请确保您已经知晓并同意《参与实验同意书》以及《数据公开知情同意书》。</p>
   <p>如果您未见过上述内容，请咨询实验员。</p>
   <p>如果您选择继续实验，则表示您已经清楚两份知情同意书的内容并同意。</p>
   <p> <div style = ""color: green""><按任意键至下页></div> </p>
   "," ","","","","","","","","","","","","","","","","","","","","","","",""
"","","","","","html-keyboard-response","2","22688","0.0-2.0","4363","
   <p>本实验首先需要您填写一些基本个人信息。</p>
   <p> <div style = ""color: green""><按任意键至下页></div></p>
   "," ","","","","","","","","","","","","","","","","","","","","","","",""
"","","","","","call-function","3","22689","0.0-3.0-0.0","","","","","","","","","","","","","","","","","","","","","","","","","",""
"","","","","","survey-html-form","4","27689","0.0-3.0-1.0","4998","","{""Q0"":""1""}","","","","","","","","","","","","","","","","","","","","","","",""
"","","","","","html-button-response","5","29407","0.0-3.0-2.0","1717","<p style = 'color : white'>您的性别</p>","0","","","","","","","","","","","","","","","","","","","","","","",""
"","","","","","survey-html-form","6","40443","0.0-3.0-3.0","11035","","{""Q0"":""2000""}","","","","","","","","","","","","","","","","","","","","","","",""
"","","","","","survey-html-form","7","45630","0.0-3.0-4.0","5185","","{""Q0"":""5""}","","","","","","","","","","","","","","","","","","","","","","",""
"","","","","","virtual-chinrest","8","293709","0.0-4.0","248077","","","","85.6","53.98","561.9676518711211","6.572164064255484","434.97","11.239353037422424","50","0.6299294965134125","24.66","11.38","","","","","","","","","","","",""
"true","","","","","fullscreen","9","298818","0.0-5.0","","","","","","","","","","","","","","","","","","","","","","","","","",""
"","","","","","instructions","10","387145","0.0-6.0","88325","","","","","","","","","","","","","","[{""page_index"":0,""viewing_time"":5618},{""page_index"":1,""viewing_time"":47093},{""page_index"":2,""viewing_time"":17883},{""page_index"":3,""viewing_time"":17732}]","","","","","","","","","","",""
"","","","","","psychophysics","11","389809","0.0-7.0-0.0-0.0","null","","null","","","","","","","","","","","","","key","null","16.653170886075955","640","356","j","false","img/T_ambi40.png","三角","prac_image_first",""
"","","","","","html-keyboard-response","12","390119","0.0-7.0-0.0-1.0","null","<span class='add_' style='color:yellow; font-size: 70px;'> 太慢! </span>","null","","","","","","","","","","","","","","","","","","","","","","","feedback_test"
"","","","","","psychophysics","13","392020","0.0-7.0-0.0-0.1","746","","j","","","","","","","","","","","","","key","j","16.65373451327462","640","356","j","true","img/C_ambi40.png","圆形","prac_image_first",""
"","","","","","html-keyboard-response","14","392334","0.0-7.0-0.0-1.1","null","<span style='color:GreenYellow; font-size: 70px;'>正确! </span>","null","","","","","","","","","","","","","","","","","","","","","","","feedback_test"
"","","","","","psychophysics","15","394456","0.0-7.0-0.0-0.2","967","","f","","","","","","","","","","","","","key","f","16.653118110236193","640","356","f","true","img/C_ambi40.png","三角","prac_image_first",""
"","","","","","html-keyboard-response","16","394772","0.0-7.0-0.0-1.2","null","<span style='color:GreenYellow; font-size: 70px;'>正确! </span>","null","","","","","","","","","","","","","","","","","","","","","","","feedback_test"
"","","","","","psychophysics","17","396912","0.0-7.0-0.0-0.3","981","","f","","","","","","","","","","","","","key","f","16.652897637795316","640","356","f","true","img/T_ambi40.png","方形","prac_image_first",""
"","","","","","html-keyboard-response","18","397222","0.0-7.0-0.0-1.3","null","<span style='color:GreenYellow; font-size: 70px;'>正确! </span>","null","","","","","","","","","","","","","","","","","","","","","","","feedback_test"
"","","","","","psychophysics","19","399144","0.0-7.0-0.0-0.4","765","","f","","","","","","","","","","","","","key","f","16.6530701754387","640","356","f","true","img/C_ambi40.png","方形","prac_image_first",""
"","","","","","html-keyboard-response","20","399456","0.0-7.0-0.0-1.4","null","<span style='color:GreenYellow; font-size: 70px;'>正确! </span>","null","","","","","","","","","","","","","","","","","","","","","","","feedback_test"
"","","","","","psychophysics","21","401335","0.0-7.0-0.0-0.5","724","","j","","","","","","","","","","","","","key","j","16.653151785714208","640","356","j","true","img/S_ambi40.png","方形","prac_image_first",""
"","","","","","html-keyboard-response","22","401655","0.0-7.0-0.0-1.5","null","<span style='color:GreenYellow; font-size: 70px;'>正确! </span>","null","","","","","","","","","","","","","","","","","","","","","","","feedback_test"
"","","","","","psychophysics","23","403567","0.0-7.0-0.0-0.6","756","","f","","","","","","","","","","","","","key","f","16.65284210526315","640","356","f","true","img/S_ambi40.png","圆形","prac_image_first",""
"","","","","","html-keyboard-response","24","403880","0.0-7.0-0.0-1.6","null","<span style='color:GreenYellow; font-size: 70px;'>正确! </span>","null","","","","","","","","","","","","","","","","","","","","","","","feedback_test"
"","","","","","psychophysics","25","405730","0.0-7.0-0.0-0.7","698","","f","","","","","","","","","","","","","key","f","16.65302727272713","640","356","f","true","img/S_ambi40.png","三角","prac_image_first",""
"","","","","","html-keyboard-response","26","406046","0.0-7.0-0.0-1.7","null","<span style='color:GreenYellow; font-size: 70px;'>正确! </span>","null","","","","","","","","","","","","","","","","","","","","","","","feedback_test"
"","","","","","psychophysics","27","407828","0.0-7.0-0.0-0.8","632","","j","","","","","","","","","","","","","key","j","16.65274528301879","640","356","j","true","img/T_ambi40.png","三角","prac_image_first",""
"","","","","","html-keyboard-response","28","408136","0.0-7.0-0.0-1.8","null","<span style='color:GreenYellow; font-size: 70px;'>正确! </span>","null","","","","","","","","","","","","","","","","","","","","","","","feedback_test"
"","","","","","psychophysics","29","409940","0.0-7.0-0.0-0.9","649","","j","","","","","","","","","","","","","key","j","16.653925233645143","640","356","j","true","img/C_ambi40.png","圆形","prac_image_first",""
"","","","","","html-keyboard-response","30","410257","0.0-7.0-0.0-1.9","null","<span style='color:GreenYellow; font-size: 70px;'>正确! </span>","null","","","","","","","","","","","","","","","","","","","","","","","feedback_test"
"","","","","","psychophysics","31","412095","0.0-7.0-0.0-0.10","686","","j","","","","","","","","","","","","","key","j","16.531577981651736","640","356","j","true","img/S_ambi40.png","方形","prac_image_first",""
"","","","","","html-keyboard-response","32","412412","0.0-7.0-0.0-1.10","null","<span style='color:GreenYellow; font-size: 70px;'>正确! </span>","null","","","","","","","","","","","","","","","","","","","","","","","feedback_test"
"","","","","","psychophysics","33","414307","0.0-7.0-0.0-0.11","744","","f","","","","","","","","","","","","","key","f","16.65371681415925","640","356","f","true","img/T_ambi40.png","圆形","prac_image_first",""
"","","","","","html-keyboard-response","34","414622","0.0-7.0-0.0-1.11","null","<span style='color:GreenYellow; font-size: 70px;'>正确! </span>","null","","","","","","","","","","","","","","","","","","","","","","","feedback_test"
"","","","","","psychophysics","35","416406","0.0-7.0-0.0-0.12","618","","j","","","","","","","","","","","","","key","j","16.65370754716986","640","356","j","true","img/C_ambi40.png","圆形","prac_image_first",""
"","","","","","html-keyboard-response","36","416710","0.0-7.0-0.0-1.12","null","<span style='color:GreenYellow; font-size: 70px;'>正确! </span>","null","","","","","","","","","","","","","","","","","","","","","","","feedback_test"
"","","","","","psychophysics","37","418601","0.0-7.0-0.0-0.13","733","","f","","","","","","","","","","","","","key","f","16.653116071428354","640","356","f","true","img/C_ambi40.png","三角","prac_image_first",""
"","","","","","html-keyboard-response","38","418911","0.0-7.0-0.0-1.13","null","<span style='color:GreenYellow; font-size: 70px;'>正确! </span>","null","","","","","","","","","","","","","","","","","","","","","","","feedback_test"
"","","","","","psychophysics","39","420658","0.0-7.0-0.0-0.14","590","","j","","","","","","","","","","","","","key","j","16.653528846153886","640","356","j","true","img/T_ambi40.png","三角","prac_image_first",""
"","","","","","html-keyboard-response","40","420972","0.0-7.0-0.0-1.14","null","<span style='color:GreenYellow; font-size: 70px;'>正确! </span>","null","","","","","","","","","","","","","","","","","","","","","","","feedback_test"
"","","","","","psychophysics","41","422722","0.0-7.0-0.0-0.15","590","","j","","","","","","","","","","","","","key","j","16.652615384615693","640","356","j","true","img/C_ambi40.png","圆形","prac_image_first",""
"","","","","","html-keyboard-response","42","423028","0.0-7.0-0.0-1.15","null","<span style='color:GreenYellow; font-size: 70px;'>正确! </span>","null","","","","","","","","","","","","","","","","","","","","","","","feedback_test"
"","","","","","psychophysics","43","424861","0.0-7.0-0.0-0.16","681","","f","","","","","","","","","","","","","key","f","16.65351376146796","640","356","f","true","img/C_ambi40.png","方形","prac_image_first",""
"","","","","","html-keyboard-response","44","425177","0.0-7.0-0.0-1.16","null","<span style='color:GreenYellow; font-size: 70px;'>正确! </span>","null","","","","","","","","","","","","","","","","","","","","","","","feedback_test"
"","","","","","psychophysics","45","426953","0.0-7.0-0.0-0.17","607","","j","","","","","","","","","","","","","key","j","16.65258490566037","640","356","j","true","img/S_ambi40.png","方形","prac_image_first",""
"","","","","","html-keyboard-response","46","427272","0.0-7.0-0.0-1.17","null","<span style='color:GreenYellow; font-size: 70px;'>正确! </span>","null","","","","","","","","","","","","","","","","","","","","","","","feedback_test"
"","","","","","psychophysics","47","429142","0.0-7.0-0.0-0.18","714","","f","","","","","","","","","","","","","key","f","16.653621621621323","640","356","f","true","img/S_ambi40.png","圆形","prac_image_first",""
"","","","","","html-keyboard-response","48","429453","0.0-7.0-0.0-1.18","null","<span style='color:GreenYellow; font-size: 70px;'>正确! </span>","null","","","","","","","","","","","","","","","","","","","","","","","feedback_test"
"","","","","","psychophysics","49","431423","0.0-7.0-0.0-0.19","814","","f","","","","","","","","","","","","","key","f","16.654017094017252","640","356","f","true","img/T_ambi40.png","方形","prac_image_first",""
"","","","","","html-keyboard-response","50","431745","0.0-7.0-0.0-1.19","null","<span style='color:GreenYellow; font-size: 70px;'>正确! </span>","null","","","","","","","","","","","","","","","","","","","","","","","feedback_test"
"","","","","","psychophysics","51","433449","0.0-7.0-0.0-0.20","550","","j","","","","","","","","","","","","","key","j","16.652613861386037","640","356","j","true","img/S_ambi40.png","方形","prac_image_first",""
"","","","","","html-keyboard-response","52","433769","0.0-7.0-0.0-1.20","null","<span style='color:GreenYellow; font-size: 70px;'>正确! </span>","null","","","","","","","","","","","","","","","","","","","","","","","feedback_test"
"","","","","","psychophysics","53","435473","0.0-7.0-0.0-0.21","551","","j","","","","","","","","","","","","","key","j","16.65242156862708","640","356","j","true","img/T_ambi40.png","三角","prac_image_first",""
"","","","","","html-keyboard-response","54","435783","0.0-7.0-0.0-1.21","null","<span style='color:GreenYellow; font-size: 70px;'>正确! </span>","null","","","","","","","","","","","","","","","","","","","","","","","feedback_test"
"","","","","","psychophysics","55","437571","0.0-7.0-0.0-0.22","634","","f","","","","","","","","","","","","","key","f","16.653317757009606","640","356","f","true","img/T_ambi40.png","圆形","prac_image_first",""
"","","","","","html-keyboard-response","56","437883","0.0-7.0-0.0-1.22","null","<span style='color:GreenYellow; font-size: 70px;'>正确! </span>","null","","","","","","","","","","","","","","","","","","","","","","","feedback_test"
"","","","","","psychophysics","57","439764","0.0-7.0-0.0-0.23","729","","f","","","","","","","","","","","","","key","f","16.6536874999999","640","356","f","true","img/S_ambi40.png","三角","prac_image_first",""
"","","","","","html-keyboard-response","58","440072","0.0-7.0-0.0-1.23","null","<span style='color:GreenYellow; font-size: 70px;'>正确! </span>","null","","","","","","","","","","","","","","","","","","","","","","","feedback_test"
"","","","","","html-keyboard-response","59","455694","0.0-8.0","15620","<style>.context{color:white; font-size: 35px; line-height:40px}</style>                            <div><p class='context'>您正确回答了96% 的试次。</p><p class='context'>您的平均反应时为703毫秒。</p><p class='context'>恭喜您完成这一阶段的练习。按任意键进入<span style='color: yellow;'>先文字后图形条件</span>的练习。</p></div>","j","","","","","","","","","","","","","","","","","","","","","","",""
"","","","","","psychophysics","60","457517","0.0-9.0-0.0-0.0","665","","j","","","","","","","","","","","","","key","j","16.653203703703454","640","356","j","true","img/S_ambi40.png","方形","prac_word_first",""
"","","","","","html-keyboard-response","61","457822","0.0-9.0-0.0-1.0","null","<span style='color:GreenYellow; font-size: 70px;'>正确! </span>","null","","","","","","","","","","","","","","","","","","","","","","","feedback_test"
"","","","","","psychophysics","62","459736","0.0-9.0-0.0-0.1","756","","f","","","","","","","","","","","","","key","f","16.652684210526466","640","356","f","true","img/T_ambi40.png","方形","prac_word_first",""
"","","","","","html-keyboard-response","63","460044","0.0-9.0-0.0-1.1","null","<span style='color:GreenYellow; font-size: 70px;'>正确! </span>","null","","","","","","","","","","","","","","","","","","","","","","","feedback_test"
"","","","","","psychophysics","64","462075","0.0-9.0-0.0-0.2","876","","j","","","","","","","","","","","","","key","j","16.653776859504283","640","356","j","true","img/S_ambi40.png","方形","prac_word_first",""
"","","","","","html-keyboard-response","65","462393","0.0-9.0-0.0-1.2","null","<span style='color:GreenYellow; font-size: 70px;'>正确! </span>","null","","","","","","","","","","","","","","","","","","","","","","","feedback_test"
"","","","","","psychophysics","66","464124","0.0-9.0-0.0-0.3","577","","j","","","","","","","","","","","","","key","j","16.653388349514554","640","356","j","true","img/C_ambi40.png","圆形","prac_word_first",""
"","","","","","html-keyboard-response","67","464439","0.0-9.0-0.0-1.3","null","<span style='color:GreenYellow; font-size: 70px;'>正确! </span>","null","","","","","","","","","","","","","","","","","","","","","","","feedback_test"
"","","","","","psychophysics","68","466253","0.0-9.0-0.0-0.4","659","","f","","","","","","","","","","","","","key","f","16.65328703703697","640","356","f","true","img/C_ambi40.png","三角","prac_word_first",""
"","","","","","html-keyboard-response","69","466570","0.0-9.0-0.0-1.4","null","<span style='color:GreenYellow; font-size: 70px;'>正确! </span>","null","","","","","","","","","","","","","","","","","","","","","","","feedback_test"
"","","","","","psychophysics","70","468481","0.0-9.0-0.0-0.5","758","","f","","","","","","","","","","","","","key","f","16.653482456140633","640","356","f","true","img/S_ambi40.png","圆形","prac_word_first",""
"","","","","","html-keyboard-response","71","468789","0.0-9.0-0.0-1.5","null","<span style='color:GreenYellow; font-size: 70px;'>正确! </span>","null","","","","","","","","","","","","","","","","","","","","","","","feedback_test"
"","","","","","psychophysics","72","470531","0.0-9.0-0.0-0.6","588","","j","","","","","","","","","","","","","key","j","16.653413461538058","640","356","j","true","img/T_ambi40.png","三角","prac_word_first",""
"","","","","","html-keyboard-response","73","470836","0.0-9.0-0.0-1.6","null","<span style='color:GreenYellow; font-size: 70px;'>正确! </span>","null","","","","","","","","","","","","","","","","","","","","","","","feedback_test"
"","","","","","psychophysics","74","472598","0.0-9.0-0.0-0.7","608","","j","","","","","","","","","","","","","key","j","16.652761904762258","640","356","j","true","img/T_ambi40.png","三角","prac_word_first",""
"","","","","","html-keyboard-response","75","472916","0.0-9.0-0.0-1.7","null","<span style='color:GreenYellow; font-size: 70px;'>正确! </span>","null","","","","","","","","","","","","","","","","","","","","","","","feedback_test"
"","","","","","psychophysics","76","474655","0.0-9.0-0.0-0.8","582","","f","","","","","","","","","","","","","key","f","16.653407766990075","640","356","f","true","img/T_ambi40.png","圆形","prac_word_first",""
"","","","","","html-keyboard-response","77","474973","0.0-9.0-0.0-1.8","null","<span style='color:GreenYellow; font-size: 70px;'>正确! </span>","null","","","","","","","","","","","","","","","","","","","","","","","feedback_test"
"","","","","","psychophysics","78","476904","0.0-9.0-0.0-0.9","774","","f","","","","","","","","","","","","","key","f","16.65343478260886","640","356","f","true","img/S_ambi40.png","三角","prac_word_first",""
"","","","","","html-keyboard-response","79","477219","0.0-9.0-0.0-1.9","null","<span style='color:GreenYellow; font-size: 70px;'>正确! </span>","null","","","","","","","","","","","","","","","","","","","","","","","feedback_test"
"","","","","","psychophysics","80","479063","0.0-9.0-0.0-0.10","694","","j","","","","","","","","","","","","","key","j","16.526660550458875","640","356","j","true","img/C_ambi40.png","圆形","prac_word_first",""
"","","","","","html-keyboard-response","81","479382","0.0-9.0-0.0-1.10","null","<span style='color:GreenYellow; font-size: 70px;'>正确! </span>","null","","","","","","","","","","","","","","","","","","","","","","","feedback_test"
"","","","","","psychophysics","82","481206","0.0-9.0-0.0-0.11","672","","f","","","","","","","","","","","","","key","f","16.653128440366896","640","356","f","true","img/C_ambi40.png","方形","prac_word_first",""
"","","","","","html-keyboard-response","83","481523","0.0-9.0-0.0-1.11","null","<span style='color:GreenYellow; font-size: 70px;'>正确! </span>","null","","","","","","","","","","","","","","","","","","","","","","","feedback_test"
"","","","","","psychophysics","84","483329","0.0-9.0-0.0-0.12","647","","f","","","","","","","","","","","","","key","f","16.653355140186775","640","356","f","true","img/T_ambi40.png","方形","prac_word_first",""
"","","","","","html-keyboard-response","85","483649","0.0-9.0-0.0-1.12","null","<span style='color:GreenYellow; font-size: 70px;'>正确! </span>","null","","","","","","","","","","","","","","","","","","","","","","","feedback_test"
"","","","","","psychophysics","86","485542","0.0-9.0-0.0-0.13","739","","j","","","","","","","","","","","","","key","j","16.65341071428546","640","356","j","true","img/C_ambi40.png","圆形","prac_word_first",""
"","","","","","html-keyboard-response","87","485866","0.0-9.0-0.0-1.13","null","<span style='color:GreenYellow; font-size: 70px;'>正确! </span>","null","","","","","","","","","","","","","","","","","","","","","","","feedback_test"
"","","","","","psychophysics","88","487624","0.0-9.0-0.0-0.14","605","","j","","","","","","","","","","","","","key","j","16.651874999999844","640","356","j","true","img/S_ambi40.png","方形","prac_word_first",""
"","","","","","html-keyboard-response","89","487945","0.0-9.0-0.0-1.14","null","<span style='color:GreenYellow; font-size: 70px;'>正确! </span>","null","","","","","","","","","","","","","","","","","","","","","","","feedback_test"
"","","","","","psychophysics","90","489677","0.0-9.0-0.0-0.15","579","","j","","","","","","","","","","","","","key","j","16.65299029126187","640","356","j","true","img/T_ambi40.png","三角","prac_word_first",""
"","","","","","html-keyboard-response","91","489992","0.0-9.0-0.0-1.15","null","<span style='color:GreenYellow; font-size: 70px;'>正确! </span>","null","","","","","","","","","","","","","","","","","","","","","","","feedback_test"
"","","","","","psychophysics","92","491796","0.0-9.0-0.0-0.16","649","","f","","","","","","","","","","","","","key","f","16.65253271028034","640","356","f","true","img/S_ambi40.png","三角","prac_word_first",""
"","","","","","html-keyboard-response","93","492113","0.0-9.0-0.0-1.16","null","<span style='color:GreenYellow; font-size: 70px;'>正确! </span>","null","","","","","","","","","","","","","","","","","","","","","","","feedback_test"
"","","","","","psychophysics","94","493868","0.0-9.0-0.0-0.17","601","","j","","","","","","","","","","","","","key","j","16.65305769230774","640","356","j","true","img/T_ambi40.png","三角","prac_word_first",""
"","","","","","html-keyboard-response","95","494185","0.0-9.0-0.0-1.17","null","<span style='color:GreenYellow; font-size: 70px;'>正确! </span>","null","","","","","","","","","","","","","","","","","","","","","","","feedback_test"
"","","","","","psychophysics","96","496011","0.0-9.0-0.0-0.18","673","","j","","","","","","","","","","","","","key","j","16.653477064220112","640","356","j","true","img/C_ambi40.png","圆形","prac_word_first",""
"","","","","","html-keyboard-response","97","496321","0.0-9.0-0.0-1.18","null","<span style='color:GreenYellow; font-size: 70px;'>正确! </span>","null","","","","","","","","","","","","","","","","","","","","","","","feedback_test"
"","","","","","psychophysics","98","498582","0.0-9.0-0.0-0.19","1108","","j","","","","","","","","","","","","","key","j","16.65270149253731","640","356","f","false","img/S_ambi40.png","圆形","prac_word_first",""
"","","","","","html-keyboard-response","99","498894","0.0-9.0-0.0-1.19","null","<span style='color:red; font-size: 70px;'>错误! </span>","null","","","","","","","","","","","","","","","","","","","","","","","feedback_test"
"","","","","","psychophysics","100","500703","0.0-9.0-0.0-0.20","652","","f","","","","","","","","","","","","","key","f","16.654037037037025","640","356","f","true","img/T_ambi40.png","圆形","prac_word_first",""
"","","","","","html-keyboard-response","101","501011","0.0-9.0-0.0-1.20","null","<span style='color:GreenYellow; font-size: 70px;'>正确! </span>","null","","","","","","","","","","","","","","","","","","","","","","","feedback_test"
"","","","","","psychophysics","102","502876","0.0-9.0-0.0-0.21","713","","f","","","","","","","","","","","","","key","f","16.653405405405326","640","356","f","true","img/C_ambi40.png","三角","prac_word_first",""
"","","","","","html-keyboard-response","103","503193","0.0-9.0-0.0-1.21","null","<span style='color:GreenYellow; font-size: 70px;'>正确! </span>","null","","","","","","","","","","","","","","","","","","","","","","","feedback_test"
"","","","","","psychophysics","104","505152","0.0-9.0-0.0-0.22","805","","f","","","","","","","","","","","","","key","f","16.653803418803378","640","356","f","true","img/C_ambi40.png","方形","prac_word_first",""
"","","","","","html-keyboard-response","105","505459","0.0-9.0-0.0-1.22","null","<span style='color:GreenYellow; font-size: 70px;'>正确! </span>","null","","","","","","","","","","","","","","","","","","","","","","","feedback_test"
"","","","","","psychophysics","106","507263","0.0-9.0-0.0-0.23","652","","j","","","","","","","","","","","","","key","j","16.654203703704063","640","356","j","true","img/S_ambi40.png","方形","prac_word_first",""
"","","","","","html-keyboard-response","107","507583","0.0-9.0-0.0-1.23","null","<span style='color:GreenYellow; font-size: 70px;'>正确! </span>","null","","","","","","","","","","","","","","","","","","","","","","","feedback_test"
"","","","","","html-keyboard-response","108","515890","0.0-10.0","8304","<style>.context{color:white; font-size: 35px; line-height:40px}</style>                            <div><p class='context'>您正确回答了96% 的试次。</p><p class='context'>您的平均反应时为675毫秒。</p><p class='context'>恭喜您完成练习。按任意键进入<span style='color: yellow;'>图形和文字同时呈现条件</span>的练习。</p></div>","j","","","","","","","","","","","","","","","","","","","","","","",""
"","","","","","psychophysics","109","517729","0.0-11.0-0.0-0.0","825","","j","","","","","","","","","","","","","key","j","16.65309174311958","640","356","j","true","img/S_ambi40.png","方形","prac_simultaneous",""
"","","","","","html-keyboard-response","110","518041","0.0-11.0-0.0-1.0","null","<span style='color:GreenYellow; font-size: 70px;'>正确! </span>","null","","","","","","","","","","","","","","","","","","","","","","","feedback_test"
"","","","","","psychophysics","111","519791","0.0-11.0-0.0-0.1","748","","f","","","","","","","","","","","","","key","f","16.653807692307545","640","356","f","true","img/S_ambi40.png","三角","prac_simultaneous",""
"","","","","","html-keyboard-response","112","520108","0.0-11.0-0.0-1.1","null","<span style='color:GreenYellow; font-size: 70px;'>正确! </span>","null","","","","","","","","","","","","","","","","","","","","","","","feedback_test"
"","","","","","psychophysics","113","522293","0.0-11.0-0.0-0.2","1176","","f","","","","","","","","","","","","","key","f","16.652161538461222","640","356","f","true","img/T_ambi40.png","方形","prac_simultaneous",""
"","","","","","html-keyboard-response","114","522603","0.0-11.0-0.0-1.2","null","<span style='color:GreenYellow; font-size: 70px;'>正确! </span>","null","","","","","","","","","","","","","","","","","","","","","","","feedback_test"
"","","","","","psychophysics","115","524312","0.0-11.0-0.0-0.3","700","","j","","","","","","","","","","","","","key","j","16.653396039604125","640","356","j","true","img/T_ambi40.png","三角","prac_simultaneous",""
"","","","","","html-keyboard-response","116","524631","0.0-11.0-0.0-1.3","null","<span style='color:GreenYellow; font-size: 70px;'>正确! </span>","null","","","","","","","","","","","","","","","","","","","","","","","feedback_test"
"","","","","","psychophysics","117","526418","0.0-11.0-0.0-0.4","786","","f","","","","","","","","","","","","","key","f","16.65299999999994","640","356","f","true","img/C_ambi40.png","方形","prac_simultaneous",""
"","","","","","html-keyboard-response","118","526736","0.0-11.0-0.0-1.4","null","<span style='color:GreenYellow; font-size: 70px;'>正确! </span>","null","","","","","","","","","","","","","","","","","","","","","","","feedback_test"
"","","","","","psychophysics","119","528400","0.0-11.0-0.0-0.5","661","","j","","","","","","","","","","","","","key","j","16.652808080808345","640","356","j","true","img/T_ambi40.png","三角","prac_simultaneous",""
"","","","","","html-keyboard-response","120","528718","0.0-11.0-0.0-1.5","null","<span style='color:GreenYellow; font-size: 70px;'>正确! </span>","null","","","","","","","","","","","","","","","","","","","","","","","feedback_test"
"","","","","","psychophysics","121","530475","0.0-11.0-0.0-0.6","751","","j","","","","","","","","","","","","","key","j","16.653596153846593","640","356","j","true","img/S_ambi40.png","方形","prac_simultaneous",""
"","","","","","html-keyboard-response","122","530791","0.0-11.0-0.0-1.6","null","<span style='color:GreenYellow; font-size: 70px;'>正确! </span>","null","","","","","","","","","","","","","","","","","","","","","","","feedback_test"
"","","","","","psychophysics","123","532579","0.0-11.0-0.0-0.7","787","","f","","","","","","","","","","","","","key","f","16.65368224299082","640","356","f","true","img/S_ambi40.png","圆形","prac_simultaneous",""
"","","","","","html-keyboard-response","124","532892","0.0-11.0-0.0-1.7","null","<span style='color:GreenYellow; font-size: 70px;'>正确! </span>","null","","","","","","","","","","","","","","","","","","","","","","","feedback_test"
"","","","","","psychophysics","125","534614","0.0-11.0-0.0-0.8","714","","j","","","","","","","","","","","","","key","j","16.6535980392147","640","356","j","true","img/C_ambi40.png","圆形","prac_simultaneous",""
"","","","","","html-keyboard-response","126","534916","0.0-11.0-0.0-1.8","null","<span style='color:GreenYellow; font-size: 70px;'>正确! </span>","null","","","","","","","","","","","","","","","","","","","","","","","feedback_test"
"","","","","","psychophysics","127","536683","0.0-11.0-0.0-0.9","761","","j","","","","","","","","","","","","","key","j","16.653257142857736","640","356","j","true","img/C_ambi40.png","圆形","prac_simultaneous",""
"","","","","","html-keyboard-response","128","537003","0.0-11.0-0.0-1.9","null","<span style='color:GreenYellow; font-size: 70px;'>正确! </span>","null","","","","","","","","","","","","","","","","","","","","","","","feedback_test"
"","","","","","psychophysics","129","538701","0.0-11.0-0.0-0.10","697","","f","","","","","","","","","","","","","key","f","16.654000000000035","640","356","f","true","img/C_ambi40.png","三角","prac_simultaneous",""
"","","","","","html-keyboard-response","130","539017","0.0-11.0-0.0-1.10","null","<span style='color:GreenYellow; font-size: 70px;'>正确! </span>","null","","","","","","","","","","","","","","","","","","","","","","","feedback_test"
"","","","","","psychophysics","131","540903","0.0-11.0-0.0-0.11","884","","f","","","","","","","","","","","","","key","f","16.65349557522099","640","356","f","true","img/T_ambi40.png","圆形","prac_simultaneous",""
"","","","","","html-keyboard-response","132","541222","0.0-11.0-0.0-1.11","null","<span style='color:GreenYellow; font-size: 70px;'>正确! </span>","null","","","","","","","","","","","","","","","","","","","","","","","feedback_test"
"","","","","","psychophysics","133","542903","0.0-11.0-0.0-0.12","675","","j","","","","","","","","","","","","","key","j","16.653660000000382","640","356","j","true","img/S_ambi40.png","方形","prac_simultaneous",""
"","","","","","html-keyboard-response","134","543221","0.0-11.0-0.0-1.12","null","<span style='color:GreenYellow; font-size: 70px;'>正确! </span>","null","","","","","","","","","","","","","","","","","","","","","","","feedback_test"
"","","","","","psychophysics","135","545023","0.0-11.0-0.0-0.13","795","","f","","","","","","","","","","","","","key","f","16.653317757009606","640","356","f","true","img/C_ambi40.png","方形","prac_simultaneous",""
"","","","","","html-keyboard-response","136","545344","0.0-11.0-0.0-1.13","null","<span style='color:GreenYellow; font-size: 70px;'>正确! </span>","null","","","","","","","","","","","","","","","","","","","","","","","feedback_test"
"","","","","","psychophysics","137","546998","0.0-11.0-0.0-0.14","650","","j","","","","","","","","","","","","","key","j","16.653030303030537","640","356","j","true","img/C_ambi40.png","圆形","prac_simultaneous",""
"","","","","","html-keyboard-response","138","547308","0.0-11.0-0.0-1.14","null","<span style='color:GreenYellow; font-size: 70px;'>正确! </span>","null","","","","","","","","","","","","","","","","","","","","","","","feedback_test"
"","","","","","psychophysics","139","548997","0.0-11.0-0.0-0.15","685","","j","","","","","","","","","","","","","key","j","16.653336633663017","640","356","j","true","img/T_ambi40.png","三角","prac_simultaneous",""
"","","","","","html-keyboard-response","140","549307","0.0-11.0-0.0-1.15","null","<span style='color:GreenYellow; font-size: 70px;'>正确! </span>","null","","","","","","","","","","","","","","","","","","","","","","","feedback_test"
"","","","","","psychophysics","141","551070","0.0-11.0-0.0-0.16","759","","j","","","","","","","","","","","","","key","j","16.654238095238718","640","356","j","true","img/C_ambi40.png","圆形","prac_simultaneous",""
"","","","","","html-keyboard-response","142","551375","0.0-11.0-0.0-1.16","null","<span style='color:GreenYellow; font-size: 70px;'>正确! </span>","null","","","","","","","","","","","","","","","","","","","","","","","feedback_test"
"","","","","","psychophysics","143","553180","0.0-11.0-0.0-0.17","803","","f","","","","","","","","","","","","","key","f","16.523542056074497","640","356","f","true","img/C_ambi40.png","三角","prac_simultaneous",""
"","","","","","html-keyboard-response","144","553486","0.0-11.0-0.0-1.17","null","<span style='color:GreenYellow; font-size: 70px;'>正确! </span>","null","","","","","","","","","","","","","","","","","","","","","","","feedback_test"
"","","","","","psychophysics","145","555209","0.0-11.0-0.0-0.18","718","","j","","","","","","","","","","","","","key","j","16.654563106796523","640","356","j","true","img/T_ambi40.png","三角","prac_simultaneous",""
"","","","","","html-keyboard-response","146","555527","0.0-11.0-0.0-1.18","null","<span style='color:GreenYellow; font-size: 70px;'>正确! </span>","null","","","","","","","","","","","","","","","","","","","","","","","feedback_test"
"","","","","","psychophysics","147","557303","0.0-11.0-0.0-0.19","771","","j","","","","","","","","","","","","","key","j","16.652019047619596","640","356","f","false","img/S_ambi40.png","圆形","prac_simultaneous",""
"","","","","","html-keyboard-response","148","557619","0.0-11.0-0.0-1.19","null","<span style='color:red; font-size: 70px;'>错误! </span>","null","","","","","","","","","","","","","","","","","","","","","","","feedback_test"
"","","","","","psychophysics","149","559523","0.0-11.0-0.0-0.20","902","","f","","","","","","","","","","","","","key","f","16.65321052631592","640","356","f","true","img/T_ambi40.png","圆形","prac_simultaneous",""
"","","","","","html-keyboard-response","150","559828","0.0-11.0-0.0-1.20","null","<span style='color:GreenYellow; font-size: 70px;'>正确! </span>","null","","","","","","","","","","","","","","","","","","","","","","","feedback_test"
"","","","","","psychophysics","151","561689","0.0-11.0-0.0-0.21","853","","f","","","","","","","","","","","","","key","f","16.6535495495495","640","356","f","true","img/S_ambi40.png","三角","prac_simultaneous",""
"","","","","","html-keyboard-response","152","561996","0.0-11.0-0.0-1.21","null","<span style='color:GreenYellow; font-size: 70px;'>正确! </span>","null","","","","","","","","","","","","","","","","","","","","","","","feedback_test"
"","","","","","psychophysics","153","563819","0.0-11.0-0.0-0.22","819","","j","","","","","","","","","","","","","key","j","16.65662385321141","640","356","j","true","img/S_ambi40.png","方形","prac_simultaneous",""
"","","","","","html-keyboard-response","154","564137","0.0-11.0-0.0-1.22","null","<span style='color:GreenYellow; font-size: 70px;'>正确! </span>","null","","","","","","","","","","","","","","","","","","","","","","","feedback_test"
"","","","","","psychophysics","155","566058","0.0-11.0-0.0-0.23","918","","f","","","","","","","","","","","","","key","f","16.652885964912315","640","356","f","true","img/T_ambi40.png","方形","prac_simultaneous",""
"","","","","","html-keyboard-response","156","566378","0.0-11.0-0.0-1.23","null","<span style='color:GreenYellow; font-size: 70px;'>正确! </span>","null","","","","","","","","","","","","","","","","","","","","","","","feedback_test"
"","","","","","html-keyboard-response","157","583597","0.0-12.0","17218","<style>.context{color:white; font-size: 35px; line-height:40px}</style>                            <div><p class='context'>您正确回答了96% 的试次。</p><p class='context'>您的平均反应时为786毫秒。</p><p class='context'>恭喜您完成练习。按任意键进入正式实验。</p><p class='footer' style='font-size: 35px; line-height:40px;'>请在进入正式实验实验之前将您的<span style='color: lightgreen;'>食指</span>放在电脑键盘的相应键位上进行按键。</p>","j","","","","","","","","","","","","","","","","","","","","","","",""
"","","","","","html-keyboard-response","158","608189","0.0-13.0-0.0-0.0","24588","
    <p>请您将手指放在按键上，准备进入呈现顺序为<span style='color: yellow;'>先图形后文字条件</span>的正式匹配任务</p>
    <p> <div style = ""color: green""><按任意键进入下一阶段的匹配任务></div></p>
    ","j","","","","","","","","","","","","","","","","","","","","","","",""
"","","","","","psychophysics","159","610219","0.0-13.0-0.0-1.0-0.0-0.0","874","","f","","","","","","","","","","","","","key","f","16.65285123966938","640","356","f","true","img/C_ambi40.png","三角","image_first",""
"","","","","","html-keyboard-response","160","610538","0.0-13.0-0.0-1.0-0.0-1.0","null","<span style='color:GreenYellow; font-size: 70px;'>正确! </span>","null","","","","","","","","","","","","","","","","","","","","","","","feedback_test"
"","","","","","psychophysics","161","612361","0.0-13.0-0.0-1.0-0.0-0.1","670","","j","","","","","","","","","","","","","key","j","16.653678899081935","640","356","j","true","img/C_ambi40.png","圆形","image_first",""
"","","","","","html-keyboard-response","162","612675","0.0-13.0-0.0-1.0-0.0-1.1","null","<span style='color:GreenYellow; font-size: 70px;'>正确! </span>","null","","","","","","","","","","","","","","","","","","","","","","","feedback_test"
"","","","","","psychophysics","163","614421","0.0-13.0-0.0-1.0-0.0-0.2","594","","j","","","","","","","","","","","","","key","j","16.653310679612474","640","356","j","true","img/T_ambi40.png","三角","image_first",""
"","","","","","html-keyboard-response","164","614733","0.0-13.0-0.0-1.0-0.0-1.2","null","<span style='color:GreenYellow; font-size: 70px;'>正确! </span>","null","","","","","","","","","","","","","","","","","","","","","","","feedback_test"
"","","","","","psychophysics","165","616535","0.0-13.0-0.0-1.0-0.0-0.3","645","","f","","","","","","","","","","","","","key","f","16.653766355139997","640","356","f","true","img/S_ambi40.png","圆形","image_first",""
"","","","","","html-keyboard-response","166","616856","0.0-13.0-0.0-1.0-0.0-1.3","null","<span style='color:GreenYellow; font-size: 70px;'>正确! </span>","null","","","","","","","","","","","","","","","","","","","","","","","feedback_test"
"","","","","","psychophysics","167","618584","0.0-13.0-0.0-1.0-0.0-0.4","573","","j","","","","","","","","","","","","","key","j","16.65301960784321","640","356","j","true","img/S_ambi40.png","方形","image_first",""
"","","","","","html-keyboard-response","168","618898","0.0-13.0-0.0-1.0-0.0-1.4","null","<span style='color:GreenYellow; font-size: 70px;'>正确! </span>","null","","","","","","","","","","","","","","","","","","","","","","","feedback_test"
"","","","","","psychophysics","169","620600","0.0-13.0-0.0-1.0-0.0-0.5","548","","j","","","","","","","","","","","","","key","j","16.653831683168427","640","356","j","true","img/T_ambi40.png","三角","image_first",""
"","","","","","html-keyboard-response","170","620918","0.0-13.0-0.0-1.0-0.0-1.5","null","<span style='color:GreenYellow; font-size: 70px;'>正确! </span>","null","","","","","","","","","","","","","","","","","","","","","","","feedback_test"
"","","","","","psychophysics","171","622686","0.0-13.0-0.0-1.0-0.0-0.6","612","","f","","","","","","","","","","","","","key","f","16.655504761904567","640","356","f","true","img/C_ambi40.png","方形","image_first",""
"","","","","","html-keyboard-response","172","623001","0.0-13.0-0.0-1.0-0.0-1.6","null","<span style='color:GreenYellow; font-size: 70px;'>正确! </span>","null","","","","","","","","","","","","","","","","","","","","","","","feedback_test"
"","","","","","psychophysics","173","624730","0.0-13.0-0.0-1.0-0.0-0.7","574","","j","","","","","","","","","","","","","key","j","16.652617647058065","640","356","j","true","img/S_ambi40.png","方形","image_first",""
"","","","","","html-keyboard-response","174","625048","0.0-13.0-0.0-1.0-0.0-1.7","null","<span style='color:GreenYellow; font-size: 70px;'>正确! </span>","null","","","","","","","","","","","","","","","","","","","","","","","feedback_test"
"","","","","","psychophysics","175","626814","0.0-13.0-0.0-1.0-0.0-0.8","611","","f","","","","","","","","","","","","","key","f","16.652557692308058","640","356","f","true","img/T_ambi40.png","方形","image_first",""
"","","","","","html-keyboard-response","176","627138","0.0-13.0-0.0-1.0-0.0-1.8","null","<span style='color:GreenYellow; font-size: 70px;'>正确! </span>","null","","","","","","","","","","","","","","","","","","","","","","","feedback_test"
"","","","","","psychophysics","177","628970","0.0-13.0-0.0-1.0-0.0-0.9","678","","f","","","","","","","","","","","","","key","f","16.65259633027551","640","356","f","true","img/T_ambi40.png","圆形","image_first",""
"","","","","","html-keyboard-response","178","629276","0.0-13.0-0.0-1.0-0.0-1.9","null","<span style='color:GreenYellow; font-size: 70px;'>正确! </span>","null","","","","","","","","","","","","","","","","","","","","","","","feedback_test"
"","","","","","psychophysics","179","631005","0.0-13.0-0.0-1.0-0.0-0.10","578","","j","","","","","","","","","","","","","key","j","16.65590291262098","640","356","j","true","img/C_ambi40.png","圆形","image_first",""
"","","","","","html-keyboard-response","180","631315","0.0-13.0-0.0-1.0-0.0-1.10","null","<span style='color:GreenYellow; font-size: 70px;'>正确! </span>","null","","","","","","","","","","","","","","","","","","","","","","","feedback_test"
"","","","","","psychophysics","181","633048","0.0-13.0-0.0-1.0-0.0-0.11","573","","f","","","","","","","","","","","","","key","f","16.65377669902835","640","356","f","true","img/S_ambi40.png","三角","image_first",""
"","","","","","html-keyboard-response","182","633358","0.0-13.0-0.0-1.0-0.0-1.11","null","<span style='color:GreenYellow; font-size: 70px;'>正确! </span>","null","","","","","","","","","","","","","","","","","","","","","","","feedback_test"
"","","","","","psychophysics","183","635086","0.0-13.0-0.0-1.0-0.0-0.12","570","","j","","","","","","","","","","","","","key","j","16.653156862745984","640","356","j","true","img/T_ambi40.png","三角","image_first",""
"","","","","","html-keyboard-response","184","635401","0.0-13.0-0.0-1.0-0.0-1.12","null","<span style='color:GreenYellow; font-size: 70px;'>正确! </span>","null","","","","","","","","","","","","","","","","","","","","","","","feedback_test"
"","","","","","psychophysics","185","637113","0.0-13.0-0.0-1.0-0.0-0.13","557","","j","","","","","","","","","","","","","key","j","16.653245098039726","640","356","j","true","img/T_ambi40.png","三角","image_first",""
"","","","","","html-keyboard-response","186","637424","0.0-13.0-0.0-1.0-0.0-1.13","null","<span style='color:GreenYellow; font-size: 70px;'>正确! </span>","null","","","","","","","","","","","","","","","","","","","","","","","feedback_test"
"","","","","","psychophysics","187","639135","0.0-13.0-0.0-1.0-0.0-0.14","556","","f","","","","","","","","","","","","","key","f","16.651633663366937","640","356","f","true","img/S_ambi40.png","三角","image_first",""
"","","","","","html-keyboard-response","188","639446","0.0-13.0-0.0-1.0-0.0-1.14","null","<span style='color:GreenYellow; font-size: 70px;'>正确! </span>","null","","","","","","","","","","","","","","","","","","","","","","","feedback_test"
"","","","","","psychophysics","189","641160","0.0-13.0-0.0-1.0-0.0-0.15","558","","j","","","","","","","","","","","","","key","j","16.654686274510286","640","356","j","true","img/C_ambi40.png","圆形","image_first",""
"","","","","","html-keyboard-response","190","641470","0.0-13.0-0.0-1.0-0.0-1.15","null","<span style='color:GreenYellow; font-size: 70px;'>正确! </span>","null","","","","","","","","","","","","","","","","","","","","","","","feedback_test"
"","","","","","psychophysics","191","643303","0.0-13.0-0.0-1.0-0.0-0.16","676","","f","","","","","","","","","","","","","key","f","16.652458715596484","640","356","f","true","img/T_ambi40.png","方形","image_first",""
"","","","","","html-keyboard-response","192","643620","0.0-13.0-0.0-1.0-0.0-1.16","null","<span style='color:GreenYellow; font-size: 70px;'>正确! </span>","null","","","","","","","","","","","","","","","","","","","","","","","feedback_test"
"","","","","","psychophysics","193","645536","0.0-13.0-0.0-1.0-0.0-0.17","756","","f","","","","","","","","","","","","","key","f","16.65331578947371","640","356","f","true","img/S_ambi40.png","圆形","image_first",""
"","","","","","html-keyboard-response","194","645859","0.0-13.0-0.0-1.0-0.0-1.17","null","<span style='color:GreenYellow; font-size: 70px;'>正确! </span>","null","","","","","","","","","","","","","","","","","","","","","","","feedback_test"
"","","","","","psychophysics","195","647632","0.0-13.0-0.0-1.0-0.0-0.18","620","","f","","","","","","","","","","","","","key","f","16.653660377357944","640","356","f","true","img/T_ambi40.png","圆形","image_first",""
"","","","","","html-keyboard-response","196","647953","0.0-13.0-0.0-1.0-0.0-1.18","null","<span style='color:GreenYellow; font-size: 70px;'>正确! </span>","null","","","","","","","","","","","","","","","","","","","","","","","feedback_test"
"","","","","","psychophysics","197","649780","0.0-13.0-0.0-1.0-0.0-0.19","672","","f","","","","","","","","","","","","","key","f","16.652981651376574","640","356","f","true","img/C_ambi40.png","方形","image_first",""
"","","","","","html-keyboard-response","198","650088","0.0-13.0-0.0-1.0-0.0-1.19","null","<span style='color:GreenYellow; font-size: 70px;'>正确! </span>","null","","","","","","","","","","","","","","","","","","","","","","","feedback_test"
"","","","","","psychophysics","199","651884","0.0-13.0-0.0-1.0-0.0-0.20","640","","j","","","","","","","","","","","","","key","j","16.653495327102796","640","356","j","true","img/S_ambi40.png","方形","image_first",""
"","","","","","html-keyboard-response","200","652190","0.0-13.0-0.0-1.0-0.0-1.20","null","<span style='color:GreenYellow; font-size: 70px;'>正确! </span>","null","","","","","","","","","","","","","","","","","","","","","","","feedback_test"
"","","","","","psychophysics","201","653965","0.0-13.0-0.0-1.0-0.0-0.21","622","","f","","","","","","","","","","","","","key","f","16.65334905660382","640","356","f","true","img/C_ambi40.png","三角","image_first",""
"","","","","","html-keyboard-response","202","654283","0.0-13.0-0.0-1.0-0.0-1.21","null","<span style='color:GreenYellow; font-size: 70px;'>正确! </span>","null","","","","","","","","","","","","","","","","","","","","","","","feedback_test"
"","","","","","psychophysics","203","656176","0.0-13.0-0.0-1.0-0.0-0.22","740","","j","","","","","","","","","","","","","key","j","16.652353982301015","640","356","j","true","img/S_ambi40.png","方形","image_first",""
"","","","","","html-keyboard-response","204","656488","0.0-13.0-0.0-1.0-0.0-1.22","null","<span style='color:GreenYellow; font-size: 70px;'>正确! </span>","null","","","","","","","","","","","","","","","","","","","","","","","feedback_test"
"","","","","","psychophysics","205","658344","0.0-13.0-0.0-1.0-0.0-0.23","705","","j","","","","","","","","","","","","","key","j","16.531990909090645","640","356","j","true","img/C_ambi40.png","圆形","image_first",""
"","","","","","html-keyboard-response","206","658659","0.0-13.0-0.0-1.0-0.0-1.23","null","<span style='color:GreenYellow; font-size: 70px;'>正确! </span>","null","","","","","","","","","","","","","","","","","","","","","","","feedback_test"
"","","","","","psychophysics","207","660366","0.0-13.0-0.0-1.0-0.0-0.24","555","","j","","","","","","","","","","","","","key","j","16.65276237623766","640","356","j","true","img/T_ambi40.png","三角","image_first",""
"","","","","","html-keyboard-response","208","660669","0.0-13.0-0.0-1.0-0.0-1.24","null","<span style='color:GreenYellow; font-size: 70px;'>正确! </span>","null","","","","","","","","","","","","","","","","","","","","","","","feedback_test"
"","","","","","psychophysics","209","662444","0.0-13.0-0.0-1.0-0.0-0.25","609","","f","","","","","","","","","","","","","key","f","16.653009523809445","640","356","f","true","img/C_ambi40.png","方形","image_first",""
"","","","","","html-keyboard-response","210","662757","0.0-13.0-0.0-1.0-0.0-1.25","null","<span style='color:GreenYellow; font-size: 70px;'>正确! </span>","null","","","","","","","","","","","","","","","","","","","","","","","feedback_test"
"","","","","","psychophysics","211","664526","0.0-13.0-0.0-1.0-0.0-0.26","610","","f","","","","","","","","","","","","","key","f","16.652695238095752","640","356","f","true","img/S_ambi40.png","三角","image_first",""
"","","","","","html-keyboard-response","212","664835","0.0-13.0-0.0-1.0-0.0-1.26","null","<span style='color:GreenYellow; font-size: 70px;'>正确! </span>","null","","","","","","","","","","","","","","","","","","","","","","","feedback_test"
"","","","","","psychophysics","213","666492","0.0-13.0-0.0-1.0-0.0-0.27","505","","j","","","","","","","","","","","","","key","j","16.653510204081577","640","356","j","true","img/C_ambi40.png","圆形","image_first",""
"","","","","","html-keyboard-response","214","666810","0.0-13.0-0.0-1.0-0.0-1.27","null","<span style='color:GreenYellow; font-size: 70px;'>正确! </span>","null","","","","","","","","","","","","","","","","","","","","","","","feedback_test"
"","","","","","psychophysics","215","668792","0.0-13.0-0.0-1.0-0.0-0.28","829","","f","","","","","","","","","","","","","key","f","16.65313559322089","640","356","f","true","img/S_ambi40.png","圆形","image_first",""
"","","","","","html-keyboard-response","216","669112","0.0-13.0-0.0-1.0-0.0-1.28","null","<span style='color:GreenYellow; font-size: 70px;'>正确! </span>","null","","","","","","","","","","","","","","","","","","","","","","","feedback_test"
"","","","","","psychophysics","217","670882","0.0-13.0-0.0-1.0-0.0-0.29","614","","j","","","","","","","","","","","","","key","j","16.653704761904443","640","356","j","true","img/S_ambi40.png","方形","image_first",""
"","","","","","html-keyboard-response","218","671197","0.0-13.0-0.0-1.0-0.0-1.29","null","<span style='color:GreenYellow; font-size: 70px;'>正确! </span>","null","","","","","","","","","","","","","","","","","","","","","","","feedback_test"
"","","","","","psychophysics","219","672977","0.0-13.0-0.0-1.0-0.0-0.30","623","","f","","","","","","","","","","","","","key","f","16.65299999999994","640","356","f","true","img/C_ambi40.png","三角","image_first",""
"","","","","","html-keyboard-response","220","673286","0.0-13.0-0.0-1.0-0.0-1.30","null","<span style='color:GreenYellow; font-size: 70px;'>正确! </span>","null","","","","","","","","","","","","","","","","","","","","","","","feedback_test"
"","","","","","psychophysics","221","675021","0.0-13.0-0.0-1.0-0.0-0.31","580","","j","","","","","","","","","","","","","key","j","16.65330097087415","640","356","j","true","img/T_ambi40.png","三角","image_first",""
"","","","","","html-keyboard-response","222","675327","0.0-13.0-0.0-1.0-0.0-1.31","null","<span style='color:GreenYellow; font-size: 70px;'>正确! </span>","null","","","","","","","","","","","","","","","","","","","","","","","feedback_test"
"","","","","","psychophysics","223","677162","0.0-13.0-0.0-1.0-0.0-0.32","679","","j","","","","","","","","","","","","","key","j","16.652706422018518","640","356","j","true","img/S_ambi40.png","方形","image_first",""
"","","","","","html-keyboard-response","224","677473","0.0-13.0-0.0-1.0-0.0-1.32","null","<span style='color:GreenYellow; font-size: 70px;'>正确! </span>","null","","","","","","","","","","","","","","","","","","","","","","","feedback_test"
"","","","","","psychophysics","225","679255","0.0-13.0-0.0-1.0-0.0-0.33","627","","j","","","","","","","","","","","","","key","j","16.653330188678392","640","356","j","true","img/C_ambi40.png","圆形","image_first",""
"","","","","","html-keyboard-response","226","679572","0.0-13.0-0.0-1.0-0.0-1.33","null","<span style='color:GreenYellow; font-size: 70px;'>正确! </span>","null","","","","","","","","","","","","","","","","","","","","","","","feedback_test"
"","","","","","psychophysics","227","681351","0.0-13.0-0.0-1.0-0.0-0.34","627","","f","","","","","","","","","","","","","key","f","16.65280952380992","640","356","f","true","img/T_ambi40.png","方形","image_first",""
"","","","","","html-keyboard-response","228","681666","0.0-13.0-0.0-1.0-0.0-1.34","null","<span style='color:GreenYellow; font-size: 70px;'>正确! </span>","null","","","","","","","","","","","","","","","","","","","","","","","feedback_test"
"","","","","","psychophysics","229","683489","0.0-13.0-0.0-1.0-0.0-0.35","672","","f","","","","","","","","","","","","","key","f","16.653761467889993","640","356","f","true","img/T_ambi40.png","圆形","image_first",""
"","","","","","html-keyboard-response","230","683807","0.0-13.0-0.0-1.0-0.0-1.35","null","<span style='color:GreenYellow; font-size: 70px;'>正确! </span>","null","","","","","","","","","","","","","","","","","","","","","","","feedback_test"
"","","","","","psychophysics","231","685592","0.0-13.0-0.0-1.0-0.0-0.36","629","","j","","","","","","","","","","","","","key","j","16.652499999999254","640","356","j","true","img/T_ambi40.png","三角","image_first",""
"","","","","","html-keyboard-response","232","685907","0.0-13.0-0.0-1.0-0.0-1.36","null","<span style='color:GreenYellow; font-size: 70px;'>正确! </span>","null","","","","","","","","","","","","","","","","","","","","","","","feedback_test"
"","","","","","psychophysics","233","687721","0.0-13.0-0.0-1.0-0.0-0.37","662","","j","","","","","","","","","","","","","key","j","16.653907407408244","640","356","j","true","img/C_ambi40.png","圆形","image_first",""
"","","","","","html-keyboard-response","234","688028","0.0-13.0-0.0-1.0-0.0-1.37","null","<span style='color:GreenYellow; font-size: 70px;'>正确! </span>","null","","","","","","","","","","","","","","","","","","","","","","","feedback_test"
"","","","","","psychophysics","235","689786","0.0-13.0-0.0-1.0-0.0-0.38","607","","f","","","","","","","","","","","","","key","f","16.65357142857143","640","356","f","true","img/C_ambi40.png","方形","image_first",""
"","","","","","html-keyboard-response","236","690099","0.0-13.0-0.0-1.0-0.0-1.38","null","<span style='color:GreenYellow; font-size: 70px;'>正确! </span>","null","","","","","","","","","","","","","","","","","","","","","","","feedback_test"
"","","","","","psychophysics","237","691894","0.0-13.0-0.0-1.0-0.0-0.39","643","","f","","","","","","","","","","","","","key","f","16.652644859814025","640","356","f","true","img/T_ambi40.png","圆形","image_first",""
"","","","","","html-keyboard-response","238","692200","0.0-13.0-0.0-1.0-0.0-1.39","null","<span style='color:GreenYellow; font-size: 70px;'>正确! </span>","null","","","","","","","","","","","","","","","","","","","","","","","feedback_test"
"","","","","","psychophysics","239","693946","0.0-13.0-0.0-1.0-0.0-0.40","590","","j","","","","","","","","","","","","","key","j","16.65218269230816","640","356","j","true","img/S_ambi40.png","方形","image_first",""
"","","","","","html-keyboard-response","240","694258","0.0-13.0-0.0-1.0-0.0-1.40","null","<span style='color:GreenYellow; font-size: 70px;'>正确! </span>","null","","","","","","","","","","","","","","","","","","","","","","","feedback_test"
"","","","","","psychophysics","241","696017","0.0-13.0-0.0-1.0-0.0-0.41","608","","j","","","","","","","","","","","","","key","j","16.652788461538595","640","356","j","true","img/S_ambi40.png","方形","image_first",""
"","","","","","html-keyboard-response","242","696336","0.0-13.0-0.0-1.0-0.0-1.41","null","<span style='color:GreenYellow; font-size: 70px;'>正确! </span>","null","","","","","","","","","","","","","","","","","","","","","","","feedback_test"
"","","","","","psychophysics","243","698080","0.0-13.0-0.0-1.0-0.0-0.42","591","","f","","","","","","","","","","","","","key","f","16.653057692308302","640","356","f","true","img/C_ambi40.png","三角","image_first",""
"","","","","","html-keyboard-response","244","698389","0.0-13.0-0.0-1.0-0.0-1.42","null","<span style='color:GreenYellow; font-size: 70px;'>正确! </span>","null","","","","","","","","","","","","","","","","","","","","","","","feedback_test"
"","","","","","psychophysics","245","700243","0.0-13.0-0.0-1.0-0.0-0.43","695","","f","","","","","","","","","","","","","key","f","16.6532727272726","640","356","f","true","img/S_ambi40.png","三角","image_first",""
"","","","","","html-keyboard-response","246","700555","0.0-13.0-0.0-1.0-0.0-1.43","null","<span style='color:GreenYellow; font-size: 70px;'>正确! </span>","null","","","","","","","","","","","","","","","","","","","","","","","feedback_test"
"","","","","","psychophysics","247","702265","0.0-13.0-0.0-1.0-0.0-0.44","557","","j","","","","","","","","","","","","","key","j","16.6524851485144","640","356","j","true","img/T_ambi40.png","三角","image_first",""
"","","","","","html-keyboard-response","248","702584","0.0-13.0-0.0-1.0-0.0-1.44","null","<span style='color:GreenYellow; font-size: 70px;'>正确! </span>","null","","","","","","","","","","","","","","","","","","","","","","","feedback_test"
"","","","","","psychophysics","249","704345","0.0-13.0-0.0-1.0-0.0-0.45","597","","f","","","","","","","","","","","","","key","f","16.65263461538416","640","356","f","true","img/T_ambi40.png","方形","image_first",""
"","","","","","html-keyboard-response","250","704651","0.0-13.0-0.0-1.0-0.0-1.45","null","<span style='color:GreenYellow; font-size: 70px;'>正确! </span>","null","","","","","","","","","","","","","","","","","","","","","","","feedback_test"
"","","","","","psychophysics","251","706588","0.0-13.0-0.0-1.0-0.0-0.46","777","","f","","","","","","","","","","","","","key","f","16.653026086956505","640","356","f","true","img/S_ambi40.png","圆形","image_first",""
"","","","","","html-keyboard-response","252","706891","0.0-13.0-0.0-1.0-0.0-1.46","null","<span style='color:GreenYellow; font-size: 70px;'>正确! </span>","null","","","","","","","","","","","","","","","","","","","","","","","feedback_test"
"","","","","","psychophysics","253","708629","0.0-13.0-0.0-1.0-0.0-0.47","586","","j","","","","","","","","","","","","","key","j","16.653519230769373","640","356","j","true","img/C_ambi40.png","圆形","image_first",""
"","","","","","html-keyboard-response","254","708937","0.0-13.0-0.0-1.0-0.0-1.47","null","<span style='color:GreenYellow; font-size: 70px;'>正确! </span>","null","","","","","","","","","","","","","","","","","","","","","","","feedback_test"
"","","","","","psychophysics","255","710836","0.0-13.0-0.0-1.0-0.0-0.48","744","","j","","","","","","","","","","","","","key","j","16.65374336283205","640","356","j","true","img/S_ambi40.png","方形","image_first",""
"","","","","","html-keyboard-response","256","711143","0.0-13.0-0.0-1.0-0.0-1.48","null","<span style='color:GreenYellow; font-size: 70px;'>正确! </span>","null","","","","","","","","","","","","","","","","","","","","","","","feedback_test"
"","","","","","psychophysics","257","712877","0.0-13.0-0.0-1.0-0.0-0.49","579","","j","","","","","","","","","","","","","key","j","16.6528058252433","640","356","j","true","img/T_ambi40.png","三角","image_first",""
"","","","","","html-keyboard-response","258","713190","0.0-13.0-0.0-1.0-0.0-1.49","null","<span style='color:GreenYellow; font-size: 70px;'>正确! </span>","null","","","","","","","","","","","","","","","","","","","","","","","feedback_test"
"","","","","","psychophysics","259","714977","0.0-13.0-0.0-1.0-0.0-0.50","636","","f","","","","","","","","","","","","","key","f","16.53637735849084","640","356","f","true","img/T_ambi40.png","圆形","image_first",""
"","","","","","html-keyboard-response","260","715293","0.0-13.0-0.0-1.0-0.0-1.50","null","<span style='color:GreenYellow; font-size: 70px;'>正确! </span>","null","","","","","","","","","","","","","","","","","","","","","","","feedback_test"
"","","","","","psychophysics","261","717146","0.0-13.0-0.0-1.0-0.0-0.51","696","","f","","","","","","","","","","","","","key","f","16.653790909091054","640","356","f","true","img/C_ambi40.png","三角","image_first",""
"","","","","","html-keyboard-response","262","717451","0.0-13.0-0.0-1.0-0.0-1.51","null","<span style='color:GreenYellow; font-size: 70px;'>正确! </span>","null","","","","","","","","","","","","","","","","","","","","","","","feedback_test"
"","","","","","psychophysics","263","719214","0.0-13.0-0.0-1.0-0.0-0.52","612","","j","","","","","","","","","","","","","key","j","16.65314285714246","640","356","j","true","img/S_ambi40.png","方形","image_first",""
"","","","","","html-keyboard-response","264","719538","0.0-13.0-0.0-1.0-0.0-1.52","null","<span style='color:GreenYellow; font-size: 70px;'>正确! </span>","null","","","","","","","","","","","","","","","","","","","","","","","feedback_test"
"","","","","","psychophysics","265","721354","0.0-13.0-0.0-1.0-0.0-0.53","663","","f","","","","","","","","","","","","","key","f","16.65367592592547","640","356","f","true","img/T_ambi40.png","方形","image_first",""
"","","","","","html-keyboard-response","266","721663","0.0-13.0-0.0-1.0-0.0-1.53","null","<span style='color:GreenYellow; font-size: 70px;'>正确! </span>","null","","","","","","","","","","","","","","","","","","","","","","","feedback_test"
"","","","","","psychophysics","267","723355","0.0-13.0-0.0-1.0-0.0-0.54","538","","j","","","","","","","","","","","","","key","j","16.65236633663333","640","356","j","true","img/C_ambi40.png","圆形","image_first",""
"","","","","","html-keyboard-response","268","723665","0.0-13.0-0.0-1.0-0.0-1.54","null","<span style='color:GreenYellow; font-size: 70px;'>正确! </span>","null","","","","","","","","","","","","","","","","","","","","","","","feedback_test"
"","","","","","psychophysics","269","725419","0.0-13.0-0.0-1.0-0.0-0.55","603","","j","","","","","","","","","","","","","key","j","16.52492307692256","640","356","j","true","img/C_ambi40.png","圆形","image_first",""
"","","","","","html-keyboard-response","270","725731","0.0-13.0-0.0-1.0-0.0-1.55","null","<span style='color:GreenYellow; font-size: 70px;'>正确! </span>","null","","","","","","","","","","","","","","","","","","","","","","","feedback_test"
"","","","","","psychophysics","271","727507","0.0-13.0-0.0-1.0-0.0-0.56","616","","f","","","","","","","","","","","","","key","f","16.652980952380624","640","356","f","true","img/S_ambi40.png","三角","image_first",""
"","","","","","html-keyboard-response","272","727820","0.0-13.0-0.0-1.0-0.0-1.56","null","<span style='color:GreenYellow; font-size: 70px;'>正确! </span>","null","","","","","","","","","","","","","","","","","","","","","","","feedback_test"
"","","","","","psychophysics","273","729538","0.0-13.0-0.0-1.0-0.0-0.57","559","","j","","","","","","","","","","","","","key","j","16.65485294117688","640","356","j","true","img/T_ambi40.png","三角","image_first",""
"","","","","","html-keyboard-response","274","729848","0.0-13.0-0.0-1.0-0.0-1.57","null","<span style='color:GreenYellow; font-size: 70px;'>正确! </span>","null","","","","","","","","","","","","","","","","","","","","","","","feedback_test"
"","","","","","psychophysics","275","731618","0.0-13.0-0.0-1.0-0.0-0.58","616","","f","","","","","","","","","","","","","key","f","16.65241904761864","640","356","f","true","img/C_ambi40.png","方形","image_first",""
"","","","","","html-keyboard-response","276","731923","0.0-13.0-0.0-1.0-0.0-1.58","null","<span style='color:GreenYellow; font-size: 70px;'>正确! </span>","null","","","","","","","","","","","","","","","","","","","","","","","feedback_test"
"","","","","","psychophysics","277","733738","0.0-13.0-0.0-1.0-0.0-0.59","663","","f","","","","","","","","","","","","","key","f","16.65437037037056","640","356","f","true","img/S_ambi40.png","圆形","image_first",""
"","","","","","html-keyboard-response","278","734048","0.0-13.0-0.0-1.0-0.0-1.59","null","<span style='color:GreenYellow; font-size: 70px;'>正确! </span>","null","","","","","","","","","","","","","","","","","","","","","","","feedback_test"
"","","","","","html-keyboard-response","279","754448","0.0-13.0-0.0-1.0-1.0","20399","<style>.context{color:white; font-size: 35px; line-height:40px}</style>                            <div><p class='context'>您正确回答了100% 的试次。</p><p class='context'>您的平均反应时为630毫秒。</p><p class='context'>请按任意键进入休息</p></div>","j","","","","","","","","","","","","","","","","","","","","","","",""
"","","","","","html-button-response","280","803149","0.0-13.0-0.0-1.0-2.0","48697","
                    <p>您当前还剩余3组实验</p>
                    <p>现在是休息时间，当您结束休息后，您可以点击 结束休息 按钮 继续</p>
                    <p>建议休息时间还剩余<span id=""iii"">60</span>秒</p>","0","","","","","","","","","","","","","","","","","","","","","","",""
"","","","","","psychophysics","281","805441","0.0-13.0-0.0-1.0-0.1-0.60","1140","","f","","","","","","","","","","","","","key","f","16.65315328467209","640","356","j","false","img/T_ambi40.png","三角","image_first",""
"","","","","","html-keyboard-response","282","805752","0.0-13.0-0.0-1.0-0.1-1.60","null","<span style='color:red; font-size: 70px;'>错误! </span>","null","","","","","","","","","","","","","","","","","","","","","","","feedback_test"
"","","","","","psychophysics","283","807649","0.0-13.0-0.0-1.0-0.1-0.61","742","","f","","","","","","","","","","","","","key","f","16.65195575221215","640","356","f","true","img/S_ambi40.png","圆形","image_first",""
"","","","","","html-keyboard-response","284","807965","0.0-13.0-0.0-1.0-0.1-1.61","null","<span style='color:GreenYellow; font-size: 70px;'>正确! </span>","null","","","","","","","","","","","","","","","","","","","","","","","feedback_test"
"","","","","","psychophysics","285","809677","0.0-13.0-0.0-1.0-0.1-0.62","553","","j","","","","","","","","","","","","","key","j","16.65326732673249","640","356","j","true","img/C_ambi40.png","圆形","image_first",""
"","","","","","html-keyboard-response","286","809980","0.0-13.0-0.0-1.0-0.1-1.62","null","<span style='color:GreenYellow; font-size: 70px;'>正确! </span>","null","","","","","","","","","","","","","","","","","","","","","","","feedback_test"
"","","","","","psychophysics","287","811730","0.0-13.0-0.0-1.0-0.1-0.63","599","","j","","","","","","","","","","","","","key","j","16.653894230769275","640","356","j","true","img/T_ambi40.png","三角","image_first",""
"","","","","","html-keyboard-response","288","812039","0.0-13.0-0.0-1.0-0.1-1.63","null","<span style='color:GreenYellow; font-size: 70px;'>正确! </span>","null","","","","","","","","","","","","","","","","","","","","","","","feedback_test"
"","","","","","psychophysics","289","813781","0.0-13.0-0.0-1.0-0.1-0.64","588","","j","","","","","","","","","","","","","key","j","16.65329807692279","640","356","j","true","img/S_ambi40.png","方形","image_first",""
"","","","","","html-keyboard-response","290","814088","0.0-13.0-0.0-1.0-0.1-1.64","null","<span style='color:GreenYellow; font-size: 70px;'>正确! </span>","null","","","","","","","","","","","","","","","","","","","","","","","feedback_test"
"","","","","","psychophysics","291","815911","0.0-13.0-0.0-1.0-0.1-0.65","669","","j","","","","","","","","","","","","","key","j","16.653055045872268","640","356","j","true","img/S_ambi40.png","方形","image_first",""
"","","","","","html-keyboard-response","292","816231","0.0-13.0-0.0-1.0-0.1-1.65","null","<span style='color:GreenYellow; font-size: 70px;'>正确! </span>","null","","","","","","","","","","","","","","","","","","","","","","","feedback_test"
"","","","","","psychophysics","293","817996","0.0-13.0-0.0-1.0-0.1-0.66","609","","f","","","","","","","","","","","","","key","f","16.65293333333407","640","356","f","true","img/T_ambi40.png","方形","image_first",""
"","","","","","html-keyboard-response","294","818313","0.0-13.0-0.0-1.0-0.1-1.66","null","<span style='color:GreenYellow; font-size: 70px;'>正确! </span>","null","","","","","","","","","","","","","","","","","","","","","","","feedback_test"
"","","","","","psychophysics","295","820139","0.0-13.0-0.0-1.0-0.1-0.67","671","","f","","","","","","","","","","","","","key","f","16.65348623853194","640","356","f","true","img/S_ambi40.png","三角","image_first",""
"","","","","","html-keyboard-response","296","820449","0.0-13.0-0.0-1.0-0.1-1.67","null","<span style='color:GreenYellow; font-size: 70px;'>正确! </span>","null","","","","","","","","","","","","","","","","","","","","","","","feedback_test"
"","","","","","psychophysics","297","822201","0.0-13.0-0.0-1.0-0.1-0.68","598","","f","","","","","","","","","","","","","key","f","16.653644230769714","640","356","f","true","img/T_ambi40.png","圆形","image_first",""
"","","","","","html-keyboard-response","298","822519","0.0-13.0-0.0-1.0-0.1-1.68","null","<span style='color:GreenYellow; font-size: 70px;'>正确! </span>","null","","","","","","","","","","","","","","","","","","","","","","","feedback_test"
"","","","","","psychophysics","299","824299","0.0-13.0-0.0-1.0-0.1-0.69","615","","f","","","","","","","","","","","","","key","f","16.6549714285714","640","356","f","true","img/C_ambi40.png","方形","image_first",""
"","","","","","html-keyboard-response","300","824609","0.0-13.0-0.0-1.0-0.1-1.69","null","<span style='color:GreenYellow; font-size: 70px;'>正确! </span>","null","","","","","","","","","","","","","","","","","","","","","","","feedback_test"
"","","","","","psychophysics","301","826324","0.0-13.0-0.0-1.0-0.1-0.70","561","","j","","","","","","","","","","","","","key","j","16.65346078431307","640","356","j","true","img/C_ambi40.png","圆形","image_first",""
"","","","","","html-keyboard-response","302","826637","0.0-13.0-0.0-1.0-0.1-1.70","null","<span style='color:GreenYellow; font-size: 70px;'>正确! </span>","null","","","","","","","","","","","","","","","","","","","","","","","feedback_test"
"","","","","","psychophysics","303","828375","0.0-13.0-0.0-1.0-0.1-0.71","578","","f","","","","","","","","","","","","","key","f","16.650728155340033","640","356","f","true","img/C_ambi40.png","三角","image_first",""
"","","","","","html-keyboard-response","304","828684","0.0-13.0-0.0-1.0-0.1-1.71","null","<span style='color:GreenYellow; font-size: 70px;'>正确! </span>","null","","","","","","","","","","","","","","","","","","","","","","","feedback_test"
"","","","","","psychophysics","305","830467","0.0-13.0-0.0-1.0-0.1-0.72","630","","f","","","","","","","","","","","","","key","f","16.653056603774015","640","356","f","true","img/C_ambi40.png","方形","image_first",""
"","","","","","html-keyboard-response","306","830775","0.0-13.0-0.0-1.0-0.1-1.72","null","<span style='color:GreenYellow; font-size: 70px;'>正确! </span>","null","","","","","","","","","","","","","","","","","","","","","","","feedback_test"
"","","","","","psychophysics","307","832474","0.0-13.0-0.0-1.0-0.1-0.73","546","","j","","","","","","","","","","","","","key","j","16.653673267327388","640","356","j","true","img/T_ambi40.png","三角","image_first",""
"","","","","","html-keyboard-response","308","832791","0.0-13.0-0.0-1.0-0.1-1.73","null","<span style='color:GreenYellow; font-size: 70px;'>正确! </span>","null","","","","","","","","","","","","","","","","","","","","","","","feedback_test"
"","","","","","psychophysics","309","834657","0.0-13.0-0.0-1.0-0.1-0.74","714","","f","","","","","","","","","","","","","key","f","16.653378378378587","640","356","f","true","img/S_ambi40.png","圆形","image_first",""
"","","","","","html-keyboard-response","310","834964","0.0-13.0-0.0-1.0-0.1-1.74","null","<span style='color:GreenYellow; font-size: 70px;'>正确! </span>","null","","","","","","","","","","","","","","","","","","","","","","","feedback_test"
"","","","","","psychophysics","311","836864","0.0-13.0-0.0-1.0-0.1-0.75","740","","f","","","","","","","","","","","","","key","f","16.65292920353946","640","356","f","true","img/C_ambi40.png","三角","image_first",""
"","","","","","html-keyboard-response","312","837178","0.0-13.0-0.0-1.0-0.1-1.75","null","<span style='color:GreenYellow; font-size: 70px;'>正确! </span>","null","","","","","","","","","","","","","","","","","","","","","","","feedback_test"
"","","","","","psychophysics","313","838979","0.0-13.0-0.0-1.0-0.1-0.76","648","","f","","","","","","","","","","","","","key","f","16.65310280373816","640","356","f","true","img/T_ambi40.png","圆形","image_first",""
"","","","","","html-keyboard-response","314","839283","0.0-13.0-0.0-1.0-0.1-1.76","null","<span style='color:GreenYellow; font-size: 70px;'>正确! </span>","null","","","","","","","","","","","","","","","","","","","","","","","feedback_test"
"","","","","","psychophysics","315","841116","0.0-13.0-0.0-1.0-0.1-0.77","679","","j","","","","","","","","","","","","","key","j","16.65842201834899","640","356","j","true","img/S_ambi40.png","方形","image_first",""
"","","","","","html-keyboard-response","316","841421","0.0-13.0-0.0-1.0-0.1-1.77","null","<span style='color:GreenYellow; font-size: 70px;'>正确! </span>","null","","","","","","","","","","","","","","","","","","","","","","","feedback_test"
"","","","","","psychophysics","317","843172","0.0-13.0-0.0-1.0-0.1-0.78","592","","j","","","","","","","","","","","","","key","j","16.65293269230796","640","356","j","true","img/C_ambi40.png","圆形","image_first",""
"","","","","","html-keyboard-response","318","843487","0.0-13.0-0.0-1.0-0.1-1.78","null","<span style='color:GreenYellow; font-size: 70px;'>正确! </span>","null","","","","","","","","","","","","","","","","","","","","","","","feedback_test"
"","","","","","psychophysics","319","845234","0.0-13.0-0.0-1.0-0.1-0.79","591","","f","","","","","","","","","","","","","key","f","16.652855769230744","640","356","f","true","img/T_ambi40.png","方形","image_first",""
"","","","","","html-keyboard-response","320","845543","0.0-13.0-0.0-1.0-0.1-1.79","null","<span style='color:GreenYellow; font-size: 70px;'>正确! </span>","null","","","","","","","","","","","","","","","","","","","","","","","feedback_test"
"","","","","","psychophysics","321","847314","0.0-13.0-0.0-1.0-0.1-0.80","615","","f","","","","","","","","","","","","","key","f","16.65623809523836","640","356","f","true","img/S_ambi40.png","三角","image_first",""
"","","","","","html-keyboard-response","322","847633","0.0-13.0-0.0-1.0-0.1-1.80","null","<span style='color:GreenYellow; font-size: 70px;'>正确! </span>","null","","","","","","","","","","","","","","","","","","","","","","","feedback_test"
"","","","","","psychophysics","323","849364","0.0-13.0-0.0-1.0-0.1-0.81","576","","j","","","","","","","","","","","","","key","j","16.65573529411774","640","356","j","true","img/S_ambi40.png","方形","image_first",""
"","","","","","html-keyboard-response","324","849678","0.0-13.0-0.0-1.0-0.1-1.81","null","<span style='color:GreenYellow; font-size: 70px;'>正确! </span>","null","","","","","","","","","","","","","","","","","","","","","","","feedback_test"
"","","","","","psychophysics","325","851394","0.0-13.0-0.0-1.0-0.1-0.82","564","","j","","","","","","","","","","","","","key","j","16.653578431371773","640","356","j","true","img/T_ambi40.png","三角","image_first",""
"","","","","","html-keyboard-response","326","851708","0.0-13.0-0.0-1.0-0.1-1.82","null","<span style='color:GreenYellow; font-size: 70px;'>正确! </span>","null","","","","","","","","","","","","","","","","","","","","","","","feedback_test"
"","","","","","psychophysics","327","853398","0.0-13.0-0.0-1.0-0.1-0.83","538","","j","","","","","","","","","","","","","key","j","16.65435643564324","640","356","j","true","img/C_ambi40.png","圆形","image_first",""
"","","","","","html-keyboard-response","328","853715","0.0-13.0-0.0-1.0-0.1-1.83","null","<span style='color:GreenYellow; font-size: 70px;'>正确! </span>","null","","","","","","","","","","","","","","","","","","","","","","","feedback_test"
"","","","","","psychophysics","329","855361","0.0-13.0-0.0-1.0-0.1-0.84","493","","j","","","","","","","","","","","","","key","j","16.65314285714317","640","356","j","true","img/T_ambi40.png","三角","image_first",""
"","","","","","html-keyboard-response","330","855670","0.0-13.0-0.0-1.0-0.1-1.84","null","<span style='color:GreenYellow; font-size: 70px;'>正确! </span>","null","","","","","","","","","","","","","","","","","","","","","","","feedback_test"
"","","","","","psychophysics","331","857344","0.0-13.0-0.0-1.0-0.1-0.85","520","","j","","","","","","","","","","","","","key","j","16.65415000000037","640","356","j","true","img/C_ambi40.png","圆形","image_first",""
"","","","","","html-keyboard-response","332","857654","0.0-13.0-0.0-1.0-0.1-1.85","null","<span style='color:GreenYellow; font-size: 70px;'>正确! </span>","null","","","","","","","","","","","","","","","","","","","","","","","feedback_test"
"","","","","","psychophysics","333","859448","0.0-13.0-0.0-1.0-0.1-0.86","643","","f","","","","","","","","","","","","","key","f","16.65341121495253","640","356","f","true","img/T_ambi40.png","圆形","image_first",""
"","","","","","html-keyboard-response","334","859768","0.0-13.0-0.0-1.0-0.1-1.86","null","<span style='color:GreenYellow; font-size: 70px;'>正确! </span>","null","","","","","","","","","","","","","","","","","","","","","","","feedback_test"
"","","","","","psychophysics","335","861489","0.0-13.0-0.0-1.0-0.1-0.87","568","","j","","","","","","","","","","","","","key","j","16.65303883495067","640","356","j","true","img/T_ambi40.png","三角","image_first",""
"","","","","","html-keyboard-response","336","861797","0.0-13.0-0.0-1.0-0.1-1.87","null","<span style='color:GreenYellow; font-size: 70px;'>正确! </span>","null","","","","","","","","","","","","","","","","","","","","","","","feedback_test"
"","","","","","psychophysics","337","863689","0.0-13.0-0.0-1.0-0.1-0.88","736","","f","","","","","","","","","","","","","key","f","16.652840707964156","640","356","f","true","img/C_ambi40.png","方形","image_first",""
"","","","","","html-keyboard-response","338","863996","0.0-13.0-0.0-1.0-0.1-1.88","null","<span style='color:GreenYellow; font-size: 70px;'>正确! </span>","null","","","","","","","","","","","","","","","","","","","","","","","feedback_test"
"","","","","","psychophysics","339","865645","0.0-13.0-0.0-1.0-0.1-0.89","497","","j","","","","","","","","","","","","","key","j","16.653612244897996","640","356","j","true","img/S_ambi40.png","方形","image_first",""
"","","","","","html-keyboard-response","340","865954","0.0-13.0-0.0-1.0-0.1-1.89","null","<span style='color:GreenYellow; font-size: 70px;'>正确! </span>","null","","","","","","","","","","","","","","","","","","","","","","","feedback_test"
"","","","","","psychophysics","341","867723","0.0-13.0-0.0-1.0-0.1-0.90","615","","f","","","","","","","","","","","","","key","f","16.654152380952258","640","356","f","true","img/T_ambi40.png","方形","image_first",""
"","","","","","html-keyboard-response","342","868042","0.0-13.0-0.0-1.0-0.1-1.90","null","<span style='color:GreenYellow; font-size: 70px;'>正确! </span>","null","","","","","","","","","","","","","","","","","","","","","","","feedback_test"
"","","","","","psychophysics","343","869832","0.0-13.0-0.0-1.0-0.1-0.91","636","","f","","","","","","","","","","","","","key","f","16.653271028036514","640","356","f","true","img/S_ambi40.png","圆形","image_first",""
"","","","","","html-keyboard-response","344","870144","0.0-13.0-0.0-1.0-0.1-1.91","null","<span style='color:GreenYellow; font-size: 70px;'>正确! </span>","null","","","","","","","","","","","","","","","","","","","","","","","feedback_test"
"","","","","","psychophysics","345","871843","0.0-13.0-0.0-1.0-0.1-0.92","548","","j","","","","","","","","","","","","","key","j","16.653346534653586","640","356","j","true","img/C_ambi40.png","圆形","image_first",""
"","","","","","html-keyboard-response","346","872155","0.0-13.0-0.0-1.0-0.1-1.92","null","<span style='color:GreenYellow; font-size: 70px;'>正确! </span>","null","","","","","","","","","","","","","","","","","","","","","","","feedback_test"
"","","","","","psychophysics","347","873896","0.0-13.0-0.0-1.0-0.1-0.93","588","","j","","","","","","","","","","","","","key","j","16.654096153846833","640","356","j","true","img/S_ambi40.png","方形","image_first",""
"","","","","","html-keyboard-response","348","874216","0.0-13.0-0.0-1.0-0.1-1.93","null","<span style='color:GreenYellow; font-size: 70px;'>正确! </span>","null","","","","","","","","","","","","","","","","","","","","","","","feedback_test"
"","","","","","psychophysics","349","875940","0.0-13.0-0.0-1.0-0.1-0.94","567","","f","","","","","","","","","","","","","key","f","16.653235294117692","640","356","f","true","img/S_ambi40.png","三角","image_first",""
"","","","","","html-keyboard-response","350","876255","0.0-13.0-0.0-1.0-0.1-1.94","null","<span style='color:GreenYellow; font-size: 70px;'>正确! </span>","null","","","","","","","","","","","","","","","","","","","","","","","feedback_test"
"","","","","","psychophysics","351","878071","0.0-13.0-0.0-1.0-0.1-0.95","664","","f","","","","","","","","","","","","","key","f","16.65640740740734","640","356","f","true","img/C_ambi40.png","三角","image_first",""
"","","","","","html-keyboard-response","352","878388","0.0-13.0-0.0-1.0-0.1-1.95","null","<span style='color:GreenYellow; font-size: 70px;'>正确! </span>","null","","","","","","","","","","","","","","","","","","","","","","","feedback_test"
"","","","","","psychophysics","353","880127","0.0-13.0-0.0-1.0-0.1-0.96","588","","j","","","","","","","","","","","","","key","j","16.524407766989967","640","356","j","true","img/S_ambi40.png","方形","image_first",""
"","","","","","html-keyboard-response","354","880443","0.0-13.0-0.0-1.0-0.1-1.96","null","<span style='color:GreenYellow; font-size: 70px;'>正确! </span>","null","","","","","","","","","","","","","","","","","","","","","","","feedback_test"
"","","","","","psychophysics","355","882175","0.0-13.0-0.0-1.0-0.1-0.97","579","","j","","","","","","","","","","","","","key","j","16.652553398059275","640","356","j","true","img/T_ambi40.png","三角","image_first",""
"","","","","","html-keyboard-response","356","882499","0.0-13.0-0.0-1.0-0.1-1.97","null","<span style='color:GreenYellow; font-size: 70px;'>正确! </span>","null","","","","","","","","","","","","","","","","","","","","","","","feedback_test"
"","","","","","psychophysics","357","884278","0.0-13.0-0.0-1.0-0.1-0.98","626","","f","","","","","","","","","","","","","key","f","16.653179245282686","640","356","f","true","img/T_ambi40.png","方形","image_first",""
"","","","","","html-keyboard-response","358","884595","0.0-13.0-0.0-1.0-0.1-1.98","null","<span style='color:GreenYellow; font-size: 70px;'>正确! </span>","null","","","","","","","","","","","","","","","","","","","","","","","feedback_test"
"","","","","","psychophysics","359","886385","0.0-13.0-0.0-1.0-0.1-0.99","638","","f","","","","","","","","","","","","","key","f","16.652728971962112","640","356","f","true","img/C_ambi40.png","三角","image_first",""
"","","","","","html-keyboard-response","360","886705","0.0-13.0-0.0-1.0-0.1-1.99","null","<span style='color:GreenYellow; font-size: 70px;'>正确! </span>","null","","","","","","","","","","","","","","","","","","","","","","","feedback_test"
"","","","","","psychophysics","361","888607","0.0-13.0-0.0-1.0-0.1-0.100","748","","f","","","","","","","","","","","","","key","f","16.649203539822885","640","356","f","true","img/S_ambi40.png","圆形","image_first",""
"","","","","","html-keyboard-response","362","888921","0.0-13.0-0.0-1.0-0.1-1.100","null","<span style='color:GreenYellow; font-size: 70px;'>正确! </span>","null","","","","","","","","","","","","","","","","","","","","","","","feedback_test"
"","","","","","psychophysics","363","890631","0.0-13.0-0.0-1.0-0.1-0.101","555","","j","","","","","","","","","","","","","key","j","16.653539215685917","640","356","j","true","img/C_ambi40.png","圆形","image_first",""
"","","","","","html-keyboard-response","364","890947","0.0-13.0-0.0-1.0-0.1-1.101","null","<span style='color:GreenYellow; font-size: 70px;'>正确! </span>","null","","","","","","","","","","","","","","","","","","","","","","","feedback_test"
"","","","","","psychophysics","365","892649","0.0-13.0-0.0-1.0-0.1-0.102","550","","f","","","","","","","","","","","","","key","f","16.653673267326234","640","356","f","true","img/T_ambi40.png","圆形","image_first",""
"","","","","","html-keyboard-response","366","892961","0.0-13.0-0.0-1.0-0.1-1.102","null","<span style='color:GreenYellow; font-size: 70px;'>正确! </span>","null","","","","","","","","","","","","","","","","","","","","","","","feedback_test"
"","","","","","psychophysics","367","894798","0.0-13.0-0.0-1.0-0.1-0.103","682","","f","","","","","","","","","","","","","key","f","16.65290825687981","640","356","f","true","img/C_ambi40.png","方形","image_first",""
"","","","","","html-keyboard-response","368","895112","0.0-13.0-0.0-1.0-0.1-1.103","null","<span style='color:GreenYellow; font-size: 70px;'>正确! </span>","null","","","","","","","","","","","","","","","","","","","","","","","feedback_test"
"","","","","","psychophysics","369","896838","0.0-13.0-0.0-1.0-0.1-0.104","571","","j","","","","","","","","","","","","","key","j","16.65383333333325","640","356","j","true","img/S_ambi40.png","方形","image_first",""
"","","","","","html-keyboard-response","370","897151","0.0-13.0-0.0-1.0-0.1-1.104","null","<span style='color:GreenYellow; font-size: 70px;'>正确! </span>","null","","","","","","","","","","","","","","","","","","","","","","","feedback_test"
"","","","","","psychophysics","371","898890","0.0-13.0-0.0-1.0-0.1-0.105","584","","j","","","","","","","","","","","","","key","j","16.65371153846074","640","356","j","true","img/C_ambi40.png","圆形","image_first",""
"","","","","","html-keyboard-response","372","899197","0.0-13.0-0.0-1.0-0.1-1.105","null","<span style='color:GreenYellow; font-size: 70px;'>正确! </span>","null","","","","","","","","","","","","","","","","","","","","","","","feedback_test"
"","","","","","psychophysics","373","900883","0.0-13.0-0.0-1.0-0.1-0.106","528","","j","","","","","","","","","","","","","key","j","16.65371999999974","640","356","j","true","img/T_ambi40.png","三角","image_first",""
"","","","","","html-keyboard-response","374","901202","0.0-13.0-0.0-1.0-0.1-1.106","null","<span style='color:GreenYellow; font-size: 70px;'>正确! </span>","null","","","","","","","","","","","","","","","","","","","","","","","feedback_test"
"","","","","","psychophysics","375","902933","0.0-13.0-0.0-1.0-0.1-0.107","580","","f","","","","","","","","","","","","","key","f","16.52880392156943","640","356","f","true","img/S_ambi40.png","三角","image_first",""
"","","","","","html-keyboard-response","376","903238","0.0-13.0-0.0-1.0-0.1-1.107","null","<span style='color:GreenYellow; font-size: 70px;'>正确! </span>","null","","","","","","","","","","","","","","","","","","","","","","","feedback_test"
"","","","","","psychophysics","377","905029","0.0-13.0-0.0-1.0-0.1-0.108","634","","f","","","","","","","","","","","","","key","f","16.65322641509405","640","356","f","true","img/T_ambi40.png","圆形","image_first",""
"","","","","","html-keyboard-response","378","905341","0.0-13.0-0.0-1.0-0.1-1.108","null","<span style='color:GreenYellow; font-size: 70px;'>正确! </span>","null","","","","","","","","","","","","","","","","","","","","","","","feedback_test"
"","","","","","psychophysics","379","907027","0.0-13.0-0.0-1.0-0.1-0.109","528","","j","","","","","","","","","","","","","key","j","16.653610000000334","640","356","j","true","img/S_ambi40.png","方形","image_first",""
"","","","","","html-keyboard-response","380","907333","0.0-13.0-0.0-1.0-0.1-1.109","null","<span style='color:GreenYellow; font-size: 70px;'>正确! </span>","null","","","","","","","","","","","","","","","","","","","","","","","feedback_test"
"","","","","","psychophysics","381","909042","0.0-13.0-0.0-1.0-0.1-0.110","551","","j","","","","","","","","","","","","","key","j","16.653940594058927","640","356","j","true","img/T_ambi40.png","三角","image_first",""
"","","","","","html-keyboard-response","382","909348","0.0-13.0-0.0-1.0-0.1-1.110","null","<span style='color:GreenYellow; font-size: 70px;'>正确! </span>","null","","","","","","","","","","","","","","","","","","","","","","","feedback_test"
"","","","","","psychophysics","383","911040","0.0-13.0-0.0-1.0-0.1-0.111","533","","j","","","","","","","","","","","","","key","j","16.652569999999834","640","356","j","true","img/C_ambi40.png","圆形","image_first",""
"","","","","","html-keyboard-response","384","911358","0.0-13.0-0.0-1.0-0.1-1.111","null","<span style='color:GreenYellow; font-size: 70px;'>正确! </span>","null","","","","","","","","","","","","","","","","","","","","","","","feedback_test"
"","","","","","psychophysics","385","913056","0.0-13.0-0.0-1.0-0.1-0.112","545","","f","","","","","","","","","","","","","key","f","16.653831683168427","640","356","f","true","img/S_ambi40.png","三角","image_first",""
"","","","","","html-keyboard-response","386","913369","0.0-13.0-0.0-1.0-0.1-1.112","null","<span style='color:GreenYellow; font-size: 70px;'>正确! </span>","null","","","","","","","","","","","","","","","","","","","","","","","feedback_test"
"","","","","","psychophysics","387","915164","0.0-13.0-0.0-1.0-0.1-0.113","640","","f","","","","","","","","","","","","","key","f","16.653084112149575","640","356","f","true","img/C_ambi40.png","三角","image_first",""
"","","","","","html-keyboard-response","388","915473","0.0-13.0-0.0-1.0-0.1-1.113","null","<span style='color:GreenYellow; font-size: 70px;'>正确! </span>","null","","","","","","","","","","","","","","","","","","","","","","","feedback_test"
"","","","","","psychophysics","389","917171","0.0-13.0-0.0-1.0-0.1-0.114","546","","j","","","","","","","","","","","","","key","j","16.655108910890775","640","356","j","true","img/C_ambi40.png","圆形","image_first",""
"","","","","","html-keyboard-response","390","917476","0.0-13.0-0.0-1.0-0.1-1.114","null","<span style='color:GreenYellow; font-size: 70px;'>正确! </span>","null","","","","","","","","","","","","","","","","","","","","","","","feedback_test"
"","","","","","psychophysics","391","919188","0.0-13.0-0.0-1.0-0.1-0.115","552","","j","","","","","","","","","","","","","key","j","16.653019801980935","640","356","j","true","img/S_ambi40.png","方形","image_first",""
"","","","","","html-keyboard-response","392","919506","0.0-13.0-0.0-1.0-0.1-1.115","null","<span style='color:GreenYellow; font-size: 70px;'>正确! </span>","null","","","","","","","","","","","","","","","","","","","","","","","feedback_test"
"","","","","","psychophysics","393","921256","0.0-13.0-0.0-1.0-0.1-0.116","597","","f","","","","","","","","","","","","","key","f","16.65325961538474","640","356","f","true","img/S_ambi40.png","圆形","image_first",""
"","","","","","html-keyboard-response","394","921565","0.0-13.0-0.0-1.0-0.1-1.116","null","<span style='color:GreenYellow; font-size: 70px;'>正确! </span>","null","","","","","","","","","","","","","","","","","","","","","","","feedback_test"
"","","","","","psychophysics","395","923284","0.0-13.0-0.0-1.0-0.1-0.117","565","","j","","","","","","","","","","","","","key","j","16.65411764705855","640","356","j","true","img/T_ambi40.png","三角","image_first",""
"","","","","","html-keyboard-response","396","923590","0.0-13.0-0.0-1.0-0.1-1.117","null","<span style='color:GreenYellow; font-size: 70px;'>正确! </span>","null","","","","","","","","","","","","","","","","","","","","","","","feedback_test"
"","","","","","psychophysics","397","925347","0.0-13.0-0.0-1.0-0.1-0.118","600","","f","","","","","","","","","","","","","key","f","16.655807692307953","640","356","f","true","img/T_ambi40.png","方形","image_first",""
"","","","","","html-keyboard-response","398","925658","0.0-13.0-0.0-1.0-0.1-1.118","null","<span style='color:GreenYellow; font-size: 70px;'>正确! </span>","null","","","","","","","","","","","","","","","","","","","","","","","feedback_test"
"","","","","","psychophysics","399","927431","0.0-13.0-0.0-1.0-0.1-0.119","619","","f","","","","","","","","","","","","","key","f","16.65277142857113","640","356","f","true","img/C_ambi40.png","方形","image_first",""
"","","","","","html-keyboard-response","400","927752","0.0-13.0-0.0-1.0-0.1-1.119","null","<span style='color:GreenYellow; font-size: 70px;'>正确! </span>","null","","","","","","","","","","","","","","","","","","","","","","","feedback_test"
"","","","","","html-keyboard-response","401","935587","0.0-13.0-0.0-1.0-1.1","7833","<style>.context{color:white; font-size: 35px; line-height:40px}</style>                            <div><p class='context'>您正确回答了98% 的试次。</p><p class='context'>您的平均反应时为601毫秒。</p><p class='context'>请按任意键进入休息</p></div>","j","","","","","","","","","","","","","","","","","","","","","","",""
"","","","","","html-button-response","402","989616","0.0-13.0-0.0-1.0-2.1","54026","
                    <p>您当前还剩余2组实验</p>
                    <p>现在是休息时间，当您结束休息后，您可以点击 结束休息 按钮 继续</p>
                    <p>建议休息时间还剩余<span id=""iii"">60</span>秒</p>","0","","","","","","","","","","","","","","","","","","","","","","",""
"","","","","","psychophysics","403","991370","0.0-13.0-0.0-1.0-0.2-0.120","599","","j","","","","","","","","","","","","","key","j","16.653230769230642","640","356","j","true","img/S_ambi40.png","方形","image_first",""
"","","","","","html-keyboard-response","404","991687","0.0-13.0-0.0-1.0-0.2-1.120","null","<span style='color:GreenYellow; font-size: 70px;'>正确! </span>","null","","","","","","","","","","","","","","","","","","","","","","","feedback_test"
"","","","","","psychophysics","405","993482","0.0-13.0-0.0-1.0-0.2-0.121","638","","f","","","","","","","","","","","","","key","f","16.653485981309046","640","356","f","true","img/C_ambi40.png","方形","image_first",""
"","","","","","html-keyboard-response","406","993790","0.0-13.0-0.0-1.0-0.2-1.121","null","<span style='color:GreenYellow; font-size: 70px;'>正确! </span>","null","","","","","","","","","","","","","","","","","","","","","","","feedback_test"
"","","","","","psychophysics","407","995505","0.0-13.0-0.0-1.0-0.2-0.122","562","","j","","","","","","","","","","","","","key","j","16.652872549019545","640","356","j","true","img/T_ambi40.png","三角","image_first",""
"","","","","","html-keyboard-response","408","995822","0.0-13.0-0.0-1.0-0.2-1.122","null","<span style='color:GreenYellow; font-size: 70px;'>正确! </span>","null","","","","","","","","","","","","","","","","","","","","","","","feedback_test"
"","","","","","psychophysics","409","997571","0.0-13.0-0.0-1.0-0.2-0.123","596","","j","","","","","","","","","","","","","key","j","16.653451923077228","640","356","j","true","img/C_ambi40.png","圆形","image_first",""
"","","","","","html-keyboard-response","410","997888","0.0-13.0-0.0-1.0-0.2-1.123","null","<span style='color:GreenYellow; font-size: 70px;'>正确! </span>","null","","","","","","","","","","","","","","","","","","","","","","","feedback_test"
"","","","","","psychophysics","411","999610","0.0-13.0-0.0-1.0-0.2-0.124","570","","f","","","","","","","","","","","","","key","f","16.65315533980605","640","356","f","true","img/C_ambi40.png","三角","image_first",""
"","","","","","html-keyboard-response","412","999916","0.0-13.0-0.0-1.0-0.2-1.124","null","<span style='color:GreenYellow; font-size: 70px;'>正确! </span>","null","","","","","","","","","","","","","","","","","","","","","","","feedback_test"
"","","","","","psychophysics","413","1001695","0.0-13.0-0.0-1.0-0.2-0.125","624","","f","","","","","","","","","","","","","key","f","16.653273584905413","640","356","f","true","img/T_ambi40.png","方形","image_first",""
"","","","","","html-keyboard-response","414","1002017","0.0-13.0-0.0-1.0-0.2-1.125","null","<span style='color:GreenYellow; font-size: 70px;'>正确! </span>","null","","","","","","","","","","","","","","","","","","","","","","","feedback_test"
"","","","","","psychophysics","415","1003728","0.0-13.0-0.0-1.0-0.2-0.126","558","","j","","","","","","","","","","","","","key","j","16.6541960784314","640","356","j","true","img/S_ambi40.png","方形","image_first",""
"","","","","","html-keyboard-response","416","1004036","0.0-13.0-0.0-1.0-0.2-1.126","null","<span style='color:GreenYellow; font-size: 70px;'>正确! </span>","null","","","","","","","","","","","","","","","","","","","","","","","feedback_test"
"","","","","","psychophysics","417","1005756","0.0-13.0-0.0-1.0-0.2-0.127","568","","f","","","","","","","","","","","","","key","f","16.652931372549467","640","356","f","true","img/S_ambi40.png","三角","image_first",""
"","","","","","html-keyboard-response","418","1006067","0.0-13.0-0.0-1.0-0.2-1.127","null","<span style='color:GreenYellow; font-size: 70px;'>正确! </span>","null","","","","","","","","","","","","","","","","","","","","","","","feedback_test"
"","","","","","psychophysics","419","1007844","0.0-13.0-0.0-1.0-0.2-0.128","626","","f","","","","","","","","","","","","","key","f","16.65264761904809","640","356","f","true","img/T_ambi40.png","圆形","image_first",""
"","","","","","html-keyboard-response","420","1008155","0.0-13.0-0.0-1.0-0.2-1.128","null","<span style='color:GreenYellow; font-size: 70px;'>正确! </span>","null","","","","","","","","","","","","","","","","","","","","","","","feedback_test"
"","","","","","psychophysics","421","1009850","0.0-13.0-0.0-1.0-0.2-0.129","542","","j","","","","","","","","","","","","","key","j","16.652891089108145","640","356","j","true","img/C_ambi40.png","圆形","image_first",""
"","","","","","html-keyboard-response","422","1010164","0.0-13.0-0.0-1.0-0.2-1.129","null","<span style='color:GreenYellow; font-size: 70px;'>正确! </span>","null","","","","","","","","","","","","","","","","","","","","","","","feedback_test"
"","","","","","psychophysics","423","1011992","0.0-13.0-0.0-1.0-0.2-0.130","668","","f","","","","","","","","","","","","","key","f","16.652999999999775","640","356","f","true","img/S_ambi40.png","圆形","image_first",""
"","","","","","html-keyboard-response","424","1012301","0.0-13.0-0.0-1.0-0.2-1.130","null","<span style='color:GreenYellow; font-size: 70px;'>正确! </span>","null","","","","","","","","","","","","","","","","","","","","","","","feedback_test"
"","","","","","psychophysics","425","1013977","0.0-13.0-0.0-1.0-0.2-0.131","516","","j","","","","","","","","","","","","","key","j","16.652727272728402","640","356","j","true","img/T_ambi40.png","三角","image_first",""
"","","","","","html-keyboard-response","426","1014284","0.0-13.0-0.0-1.0-0.2-1.131","null","<span style='color:GreenYellow; font-size: 70px;'>正确! </span>","null","","","","","","","","","","","","","","","","","","","","","","","feedback_test"
"","","","","","psychophysics","427","1015994","0.0-13.0-0.0-1.0-0.2-0.132","558","","f","","","","","","","","","","","","","key","f","16.65341176470632","640","356","f","true","img/C_ambi40.png","方形","image_first",""
"","","","","","html-keyboard-response","428","1016309","0.0-13.0-0.0-1.0-0.2-1.132","null","<span style='color:GreenYellow; font-size: 70px;'>正确! </span>","null","","","","","","","","","","","","","","","","","","","","","","","feedback_test"
"","","","","","psychophysics","429","1018090","0.0-13.0-0.0-1.0-0.2-0.133","622","","f","","","","","","","","","","","","","key","f","16.652428571428615","640","356","f","true","img/T_ambi40.png","圆形","image_first",""
"","","","","","html-keyboard-response","430","1018400","0.0-13.0-0.0-1.0-0.2-1.133","null","<span style='color:GreenYellow; font-size: 70px;'>正确! </span>","null","","","","","","","","","","","","","","","","","","","","","","","feedback_test"
"","","","","","psychophysics","431","1020187","0.0-13.0-0.0-1.0-0.2-0.134","631","","f","","","","","","","","","","","","","key","f","16.653566037736315","640","356","f","true","img/S_ambi40.png","圆形","image_first",""
