"success","timeout","failed_images","failed_audio","failed_video","trial_type","trial_index","time_elapsed","internal_node_id","rt","stimulus","response","value","item_width_mm","item_height_mm","item_width_px","px2mm","view_dist_mm","item_width_deg","px2deg","scale_factor","win_width_deg","win_height_deg","view_history","response_type","key_press","avg_frame_time","center_x","center_y","correct_response","correct","Image","word","condition","screen_id"
"true","false","[]","[]","[]","preload","0","7504","0.0-0.0","","","","","","","","","","","","","","","","","","","","","","","","","",""
"","","","","","html-keyboard-response","1","12818","0.0-1.0","5313","
   <p>您好，欢迎参加本次实验。</p>
   <p>为充分保障您的权利，请确保您已经知晓并同意《参与实验同意书》以及《数据公开知情同意书》。</p>
   <p>如果您未见过上述内容，请咨询实验员。</p>
   <p>如果您选择继续实验，则表示您已经清楚两份知情同意书的内容并同意。</p>
   <p> <div style = ""color: green""><按任意键至下页></div> </p>
   "," ","","","","","","","","","","","","","","","","","","","","","","",""
"","","","","","html-keyboard-response","2","14659","0.0-2.0","1841","
   <p>本实验首先需要您填写一些基本个人信息。</p>
   <p> <div style = ""color: green""><按任意键至下页></div></p>
   "," ","","","","","","","","","","","","","","","","","","","","","","",""
"","","","","","call-function","3","14659","0.0-3.0-0.0","","","","","","","","","","","","","","","","","","","","","","","","","",""
"","","","","","survey-html-form","4","24394","0.0-3.0-1.0","9728","","{""Q0"":""36""}","","","","","","","","","","","","","","","","","","","","","","",""
"","","","","","html-button-response","5","26537","0.0-3.0-2.0","2141","<p style = 'color : white'>您的性别</p>","0","","","","","","","","","","","","","","","","","","","","","","",""
"","","","","","survey-html-form","6","33135","0.0-3.0-3.0","6597","","{""Q0"":""2000""}","","","","","","","","","","","","","","","","","","","","","","",""
"","","","","","survey-html-form","7","38997","0.0-3.0-4.0","5861","","{""Q0"":""5""}","","","","","","","","","","","","","","","","","","","","","","",""
"","","","","","virtual-chinrest","8","151140","0.0-4.0","112133","","","","85.6","53.98","433.23139831885135","5.065648381384486","564.96","8.664627966377028","50","0.886362349289795","30.72","14.92","","","","","","","","","","","",""
"true","","","","","fullscreen","9","154524","0.0-5.0","","","","","","","","","","","","","","","","","","","","","","","","","",""
"","","","","","instructions","10","210744","0.0-6.0","56222","","","","","","","","","","","","","","[{""page_index"":0,""viewing_time"":3101},{""page_index"":1,""viewing_time"":44090},{""page_index"":2,""viewing_time"":5794},{""page_index"":3,""viewing_time"":3236}]","","","","","","","","","","",""
"","","","","","psychophysics","11","214077","0.0-7.0-0.0-0.0","null","","null","","","","","","","","","","","","","key","null","16.66768686868682","768","428","f","false","img/S_ambi40.png","方形","prac_image_first",""
"","","","","","html-keyboard-response","12","215077","0.0-7.0-0.0-1.0","null","<span class='add_' style='color:yellow; font-size: 70px;'> 太慢! </span>","null","","","","","","","","","","","","","","","","","","","","","","","feedback_test"
"","","","","","psychophysics","13","218067","0.0-7.0-0.0-0.1","null","","null","","","","","","","","","","","","","key","null","16.666955056179738","768","428","f","false","img/T_ambi40.png","三角","prac_image_first",""
"","","","","","html-keyboard-response","14","219077","0.0-7.0-0.0-1.1","null","<span class='add_' style='color:yellow; font-size: 70px;'> 太慢! </span>","null","","","","","","","","","","","","","","","","","","","","","","","feedback_test"
"","","","","","psychophysics","15","222067","0.0-7.0-0.0-0.2","null","","null","","","","","","","","","","","","","key","null","16.66743820224721","768","428","j","false","img/T_ambi40.png","圆形","prac_image_first",""
"","","","","","html-keyboard-response","16","223077","0.0-7.0-0.0-1.2","null","<span class='add_' style='color:yellow; font-size: 70px;'> 太慢! </span>","null","","","","","","","","","","","","","","","","","","","","","","","feedback_test"
"","","","","","psychophysics","17","226068","0.0-7.0-0.0-0.3","null","","null","","","","","","","","","","","","","key","null","16.66759776536313","768","428","j","false","img/C_ambi40.png","方形","prac_image_first",""
"","","","","","html-keyboard-response","18","227077","0.0-7.0-0.0-1.3","null","<span class='add_' style='color:yellow; font-size: 70px;'> 太慢! </span>","null","","","","","","","","","","","","","","","","","","","","","","","feedback_test"
"","","","","","psychophysics","19","229734","0.0-7.0-0.0-0.4","null","","null","","","","","","","","","","","","","key","null","16.668487341772053","768","428","f","false","img/C_ambi40.png","圆形","prac_image_first",""
"","","","","","html-keyboard-response","20","230047","0.0-7.0-0.0-1.4","null","<span class='add_' style='color:yellow; font-size: 70px;'> 太慢! </span>","null","","","","","","","","","","","","","","","","","","","","","","","feedback_test"
"","","","","","psychophysics","21","231929","0.0-7.0-0.0-0.5","726","","f","","","","","","","","","","","","","key","f","16.667044642857167","768","428","j","false","img/S_ambi40.png","圆形","prac_image_first",""
"","","","","","html-keyboard-response","22","232233","0.0-7.0-0.0-1.5","null","<span style='color:red; font-size: 70px;'>错误! </span>","null","","","","","","","","","","","","","","","","","","","","","","","feedback_test"
"","","","","","psychophysics","23","234252","0.0-7.0-0.0-0.6","862","","f","","","","","","","","","","","","","key","f","16.66790000000013","768","428","f","true","img/T_ambi40.png","三角","prac_image_first",""
"","","","","","html-keyboard-response","24","234562","0.0-7.0-0.0-1.6","null","<span style='color:GreenYellow; font-size: 70px;'>正确! </span>","null","","","","","","","","","","","","","","","","","","","","","","","feedback_test"
"","","","","","psychophysics","25","236385","0.0-7.0-0.0-0.7","666","","f","","","","","","","","","","","","","key","f","16.66729629629629","768","428","f","true","img/S_ambi40.png","方形","prac_image_first",""
"","","","","","html-keyboard-response","26","236687","0.0-7.0-0.0-1.7","null","<span style='color:GreenYellow; font-size: 70px;'>正确! </span>","null","","","","","","","","","","","","","","","","","","","","","","","feedback_test"
"","","","","","psychophysics","27","238680","0.0-7.0-0.0-0.8","836","","j","","","","","","","","","","","","","key","j","16.668512605041894","768","428","j","true","img/C_ambi40.png","三角","prac_image_first",""
"","","","","","html-keyboard-response","28","238985","0.0-7.0-0.0-1.8","null","<span style='color:GreenYellow; font-size: 70px;'>正确! </span>","null","","","","","","","","","","","","","","","","","","","","","","","feedback_test"
"","","","","","psychophysics","29","241642","0.0-7.0-0.0-0.9","null","","null","","","","","","","","","","","","","key","null","16.667829113924004","768","428","f","false","img/C_ambi40.png","圆形","prac_image_first",""
"","","","","","html-keyboard-response","30","241955","0.0-7.0-0.0-1.9","null","<span class='add_' style='color:yellow; font-size: 70px;'> 太慢! </span>","null","","","","","","","","","","","","","","","","","","","","","","","feedback_test"
"","","","","","psychophysics","31","243974","0.0-7.0-0.0-0.10","863","","j","","","","","","","","","","","","","key","j","16.666925000000145","768","428","j","true","img/S_ambi40.png","三角","prac_image_first",""
"","","","","","html-keyboard-response","32","244283","0.0-7.0-0.0-1.10","null","<span style='color:GreenYellow; font-size: 70px;'>正确! </span>","null","","","","","","","","","","","","","","","","","","","","","","","feedback_test"
"","","","","","psychophysics","33","246192","0.0-7.0-0.0-0.11","753","","f","","","","","","","","","","","","","key","f","16.668115044247813","768","428","j","false","img/T_ambi40.png","方形","prac_image_first",""
"","","","","","html-keyboard-response","34","246501","0.0-7.0-0.0-1.11","null","<span style='color:red; font-size: 70px;'>错误! </span>","null","","","","","","","","","","","","","","","","","","","","","","","feedback_test"
"","","","","","psychophysics","35","248187","0.0-7.0-0.0-0.12","529","","f","","","","","","","","","","","","","key","f","16.664799999999815","768","428","f","true","img/C_ambi40.png","圆形","prac_image_first",""
"","","","","","html-keyboard-response","36","248503","0.0-7.0-0.0-1.12","null","<span style='color:GreenYellow; font-size: 70px;'>正确! </span>","null","","","","","","","","","","","","","","","","","","","","","","","feedback_test"
"","","","","","psychophysics","37","250334","0.0-7.0-0.0-0.13","676","","j","","","","","","","","","","","","","key","j","16.667614678898985","768","428","f","false","img/S_ambi40.png","方形","prac_image_first",""
"","","","","","html-keyboard-response","38","250643","0.0-7.0-0.0-1.13","null","<span style='color:red; font-size: 70px;'>错误! </span>","null","","","","","","","","","","","","","","","","","","","","","","","feedback_test"
"","","","","","psychophysics","39","252391","0.0-7.0-0.0-0.14","322","","j","","","","","","","","","","","","","key","j","16.667451923077003","768","428","j","true","img/T_ambi40.png","圆形","prac_image_first",""
"","","","","","html-keyboard-response","40","252694","0.0-7.0-0.0-1.14","null","<span style='color:GreenYellow; font-size: 70px;'>正确! </span>","null","","","","","","","","","","","","","","","","","","","","","","","feedback_test"
"","","","","","psychophysics","41","254567","0.0-7.0-0.0-0.15","717","","f","","","","","","","","","","","","","key","f","16.668828828828744","768","428","j","false","img/T_ambi40.png","方形","prac_image_first",""
"","","","","","html-keyboard-response","42","254882","0.0-7.0-0.0-1.15","null","<span style='color:red; font-size: 70px;'>错误! </span>","null","","","","","","","","","","","","","","","","","","","","","","","feedback_test"
"","","","","","psychophysics","43","256942","0.0-7.0-0.0-0.16","904","","j","","","","","","","","","","","","","key","j","16.66846341463407","768","428","j","true","img/S_ambi40.png","圆形","prac_image_first",""
"","","","","","html-keyboard-response","44","257257","0.0-7.0-0.0-1.16","null","<span style='color:GreenYellow; font-size: 70px;'>正确! </span>","null","","","","","","","","","","","","","","","","","","","","","","","feedback_test"
"","","","","","psychophysics","45","259484","0.0-7.0-0.0-0.17","519","","f","","","","","","","","","","","","","key","f","16.668225563909637","768","428","f","true","img/C_ambi40.png","圆形","prac_image_first",""
"","","","","","html-keyboard-response","46","259788","0.0-7.0-0.0-1.17","null","<span style='color:GreenYellow; font-size: 70px;'>正确! </span>","null","","","","","","","","","","","","","","","","","","","","","","","feedback_test"
"","","","","","psychophysics","47","261831","0.0-7.0-0.0-0.18","886","","f","","","","","","","","","","","","","key","f","16.666155737704983","768","428","f","true","img/S_ambi40.png","方形","prac_image_first",""
"","","","","","html-keyboard-response","48","262132","0.0-7.0-0.0-1.18","null","<span style='color:GreenYellow; font-size: 70px;'>正确! </span>","null","","","","","","","","","","","","","","","","","","","","","","","feedback_test"
"","","","","","psychophysics","49","263919","0.0-7.0-0.0-0.19","630","","j","","","","","","","","","","","","","key","j","16.669141509434","768","428","j","true","img/C_ambi40.png","三角","prac_image_first",""
"","","","","","html-keyboard-response","50","264227","0.0-7.0-0.0-1.19","null","<span style='color:GreenYellow; font-size: 70px;'>正确! </span>","null","","","","","","","","","","","","","","","","","","","","","","","feedback_test"
"","","","","","psychophysics","51","266068","0.0-7.0-0.0-0.20","685","","j","","","","","","","","","","","","","key","j","16.66497247706439","768","428","j","true","img/S_ambi40.png","三角","prac_image_first",""
"","","","","","html-keyboard-response","52","266399","0.0-7.0-0.0-1.20","null","<span style='color:GreenYellow; font-size: 70px;'>正确! </span>","null","","","","","","","","","","","","","","","","","","","","","","","feedback_test"
"","","","","","psychophysics","53","268247","0.0-7.0-0.0-0.21","691","","j","","","","","","","","","","","","","key","j","16.668600000000282","768","428","j","true","img/C_ambi40.png","方形","prac_image_first",""
"","","","","","html-keyboard-response","54","268556","0.0-7.0-0.0-1.21","null","<span style='color:GreenYellow; font-size: 70px;'>正确! </span>","null","","","","","","","","","","","","","","","","","","","","","","","feedback_test"
"","","","","","psychophysics","55","270503","0.0-7.0-0.0-0.22","431","","f","","","","","","","","","","","","","key","f","16.66583620689625","768","428","f","true","img/T_ambi40.png","三角","prac_image_first",""
"","","","","","html-keyboard-response","56","270805","0.0-7.0-0.0-1.22","null","<span style='color:GreenYellow; font-size: 70px;'>正确! </span>","null","","","","","","","","","","","","","","","","","","","","","","","feedback_test"
"","","","","","psychophysics","57","272584","0.0-7.0-0.0-0.23","621","","f","","","","","","","","","","","","","key","f","16.662704761905065","768","428","f","true","img/T_ambi40.png","三角","prac_image_first",""
"","","","","","html-keyboard-response","58","272900","0.0-7.0-0.0-1.23","null","<span style='color:GreenYellow; font-size: 70px;'>正确! </span>","null","","","","","","","","","","","","","","","","","","","","","","","feedback_test"
"","","","","","html-keyboard-response","59","278398","0.0-7.0-1.0-0.0","5496","<style>.context{color:white; font-size: 35px; line-height:40px}</style>                            <div><p class='context'>您正确回答了58% 的试次。</p><p class='context'>您的平均反应时为675毫秒。</p>"," ","","","","","","","","","","","","","","","","","","","","","","",""
"","","","","","instructions","60","289480","0.0-7.0-1.0-1.0","11079","","","","","","","","","","","","","","[{""page_index"":0,""viewing_time"":4646},{""page_index"":1,""viewing_time"":2305},{""page_index"":2,""viewing_time"":4128}]","","","","","","","","","","",""
"","","","","","psychophysics","61","291375","0.0-7.1-0.1-0.24","300","","j","","","","","","","","","","","","","key","j","16.539392857142957","768","428","j","true","img/S_ambi40.png","圆形","prac_image_first",""
"","","","","","html-keyboard-response","62","291684","0.0-7.1-0.1-1.24","null","<span style='color:GreenYellow; font-size: 70px;'>正确! </span>","null","","","","","","","","","","","","","","","","","","","","","","","feedback_test"
"","","","","","psychophysics","63","293521","0.0-7.1-0.1-0.25","680","","j","","","","","","","","","","","","","key","j","16.6690366972476","768","428","j","true","img/S_ambi40.png","三角","prac_image_first",""
"","","","","","html-keyboard-response","64","293840","0.0-7.1-0.1-1.25","null","<span style='color:GreenYellow; font-size: 70px;'>正确! </span>","null","","","","","","","","","","","","","","","","","","","","","","","feedback_test"
"","","","","","psychophysics","65","295767","0.0-7.1-0.1-0.26","769","","f","","","","","","","","","","","","","key","f","16.664860869565494","768","428","f","true","img/S_ambi40.png","方形","prac_image_first",""
"","","","","","html-keyboard-response","66","296076","0.0-7.1-0.1-1.26","null","<span style='color:GreenYellow; font-size: 70px;'>正确! </span>","null","","","","","","","","","","","","","","","","","","","","","","","feedback_test"
"","","","","","psychophysics","67","298364","0.0-7.1-0.1-0.27","595","","f","","","","","","","","","","","","","key","f","16.667551470588318","768","428","f","true","img/T_ambi40.png","三角","prac_image_first",""
"","","","","","html-keyboard-response","68","298670","0.0-7.1-0.1-1.27","null","<span style='color:GreenYellow; font-size: 70px;'>正确! </span>","null","","","","","","","","","","","","","","","","","","","","","","","feedback_test"
"","","","","","psychophysics","69","300479","0.0-7.1-0.1-0.28","652","","f","","","","","","","","","","","","","key","f","16.66622222222213","768","428","f","true","img/T_ambi40.png","三角","prac_image_first",""
"","","","","","html-keyboard-response","70","300780","0.0-7.1-0.1-1.28","null","<span style='color:GreenYellow; font-size: 70px;'>正确! </span>","null","","","","","","","","","","","","","","","","","","","","","","","feedback_test"
"","","","","","psychophysics","71","302645","0.0-7.1-0.1-0.29","709","","j","","","","","","","","","","","","","key","j","16.66316216216194","768","428","j","true","img/C_ambi40.png","方形","prac_image_first",""
"","","","","","html-keyboard-response","72","302952","0.0-7.1-0.1-1.29","null","<span style='color:GreenYellow; font-size: 70px;'>正确! </span>","null","","","","","","","","","","","","","","","","","","","","","","","feedback_test"
"","","","","","psychophysics","73","304795","0.0-7.1-0.1-0.30","687","","j","","","","","","","","","","","","","key","j","16.668036363636862","768","428","j","true","img/T_ambi40.png","圆形","prac_image_first",""
"","","","","","html-keyboard-response","74","305109","0.0-7.1-0.1-1.30","null","<span style='color:GreenYellow; font-size: 70px;'>正确! </span>","null","","","","","","","","","","","","","","","","","","","","","","","feedback_test"
"","","","","","psychophysics","75","306904","0.0-7.1-0.1-0.31","640","","f","","","","","","","","","","","","","key","f","16.6678130841122","768","428","f","true","img/S_ambi40.png","方形","prac_image_first",""
"","","","","","html-keyboard-response","76","307218","0.0-7.1-0.1-1.31","null","<span style='color:GreenYellow; font-size: 70px;'>正确! </span>","null","","","","","","","","","","","","","","","","","","","","","","","feedback_test"
"","","","","","psychophysics","77","309369","0.0-7.1-0.1-0.32","451","","f","","","","","","","","","","","","","key","f","16.666132812499654","768","428","f","true","img/C_ambi40.png","圆形","prac_image_first",""
"","","","","","html-keyboard-response","78","309672","0.0-7.1-0.1-1.32","null","<span style='color:GreenYellow; font-size: 70px;'>正确! </span>","null","","","","","","","","","","","","","","","","","","","","","","","feedback_test"
"","","","","","psychophysics","79","311389","0.0-7.1-0.1-0.33","560","","j","","","","","","","","","","","","","key","j","16.667637254901837","768","428","j","true","img/C_ambi40.png","三角","prac_image_first",""
"","","","","","html-keyboard-response","80","311704","0.0-7.1-0.1-1.33","null","<span style='color:GreenYellow; font-size: 70px;'>正确! </span>","null","","","","","","","","","","","","","","","","","","","","","","","feedback_test"
"","","","","","psychophysics","81","313531","0.0-7.1-0.1-0.34","670","","j","","","","","","","","","","","","","key","j","16.67216513761471","768","428","j","true","img/T_ambi40.png","方形","prac_image_first",""
"","","","","","html-keyboard-response","82","313845","0.0-7.1-0.1-1.34","null","<span style='color:GreenYellow; font-size: 70px;'>正确! </span>","null","","","","","","","","","","","","","","","","","","","","","","","feedback_test"
"","","","","","psychophysics","83","315498","0.0-7.1-0.1-0.35","429","","f","","","","","","","","","","","","","key","f","16.66913265306075","768","428","f","true","img/C_ambi40.png","圆形","prac_image_first",""
"","","","","","html-keyboard-response","84","315815","0.0-7.1-0.1-1.35","null","<span style='color:GreenYellow; font-size: 70px;'>正确! </span>","null","","","","","","","","","","","","","","","","","","","","","","","feedback_test"
"","","","","","psychophysics","85","317508","0.0-7.1-0.1-0.36","536","","f","","","","","","","","","","","","","key","f","16.667950495049393","768","428","f","true","img/C_ambi40.png","圆形","prac_image_first",""
"","","","","","html-keyboard-response","86","317831","0.0-7.1-0.1-1.36","null","<span style='color:GreenYellow; font-size: 70px;'>正确! </span>","null","","","","","","","","","","","","","","","","","","","","","","","feedback_test"
"","","","","","psychophysics","87","319499","0.0-7.1-0.1-0.37","512","","f","","","","","","","","","","","","","key","f","16.670161616161813","768","428","f","true","img/T_ambi40.png","三角","prac_image_first",""
"","","","","","html-keyboard-response","88","319801","0.0-7.1-0.1-1.37","null","<span style='color:GreenYellow; font-size: 70px;'>正确! </span>","null","","","","","","","","","","","","","","","","","","","","","","","feedback_test"
"","","","","","psychophysics","89","321437","0.0-7.1-0.1-0.38","363","","f","","","","","","","","","","","","","key","f","16.669020618556893","768","428","f","true","img/C_ambi40.png","圆形","prac_image_first",""
"","","","","","html-keyboard-response","90","321753","0.0-7.1-0.1-1.38","null","<span style='color:GreenYellow; font-size: 70px;'>正确! </span>","null","","","","","","","","","","","","","","","","","","","","","","","feedback_test"
"","","","","","psychophysics","91","323602","0.0-7.1-0.1-0.39","692","","j","","","","","","","","","","","","","key","j","16.66683636363596","768","428","j","true","img/T_ambi40.png","方形","prac_image_first",""
"","","","","","html-keyboard-response","92","323925","0.0-7.1-0.1-1.39","null","<span style='color:GreenYellow; font-size: 70px;'>正确! </span>","null","","","","","","","","","","","","","","","","","","","","","","","feedback_test"
"","","","","","psychophysics","93","325677","0.0-7.1-0.1-0.40","596","","f","","","","","","","","","","","","","key","f","16.66600961538475","768","428","j","false","img/S_ambi40.png","三角","prac_image_first",""
"","","","","","html-keyboard-response","94","325989","0.0-7.1-0.1-1.40","null","<span style='color:red; font-size: 70px;'>错误! </span>","null","","","","","","","","","","","","","","","","","","","","","","","feedback_test"
"","","","","","psychophysics","95","328451","0.0-7.1-0.1-0.41","690","","j","","","","","","","","","","","","","key","j","16.66557823129269","768","428","j","true","img/C_ambi40.png","方形","prac_image_first",""
"","","","","","html-keyboard-response","96","328754","0.0-7.1-0.1-1.41","null","<span style='color:GreenYellow; font-size: 70px;'>正确! </span>","null","","","","","","","","","","","","","","","","","","","","","","","feedback_test"
"","","","","","psychophysics","97","330753","0.0-7.1-0.1-0.42","842","","j","","","","","","","","","","","","","key","j","16.668310924370072","768","428","j","true","img/S_ambi40.png","圆形","prac_image_first",""
"","","","","","html-keyboard-response","98","331083","0.0-7.1-0.1-1.42","null","<span style='color:GreenYellow; font-size: 70px;'>正确! </span>","null","","","","","","","","","","","","","","","","","","","","","","","feedback_test"
"","","","","","psychophysics","99","332848","0.0-7.1-0.1-0.43","609","","f","","","","","","","","","","","","","key","f","16.667895238095383","768","428","f","true","img/T_ambi40.png","三角","prac_image_first",""
"","","","","","html-keyboard-response","100","333177","0.0-7.1-0.1-1.43","null","<span style='color:GreenYellow; font-size: 70px;'>正确! </span>","null","","","","","","","","","","","","","","","","","","","","","","","feedback_test"
"","","","","","psychophysics","101","335252","0.0-7.1-0.1-0.44","920","","j","","","","","","","","","","","","","key","j","16.66705645161311","768","428","j","true","img/T_ambi40.png","圆形","prac_image_first",""
"","","","","","html-keyboard-response","102","335568","0.0-7.1-0.1-1.44","null","<span style='color:GreenYellow; font-size: 70px;'>正确! </span>","null","","","","","","","","","","","","","","","","","","","","","","","feedback_test"
"","","","","","psychophysics","103","337411","0.0-7.1-0.1-0.45","687","","f","","","","","","","","","","","","","key","f","16.66797272727285","768","428","f","true","img/S_ambi40.png","方形","prac_image_first",""
"","","","","","html-keyboard-response","104","337724","0.0-7.1-0.1-1.45","null","<span style='color:GreenYellow; font-size: 70px;'>正确! </span>","null","","","","","","","","","","","","","","","","","","","","","","","feedback_test"
"","","","","","psychophysics","105","339566","0.0-7.1-0.1-0.46","499","","j","","","","","","","","","","","","","key","j","16.6682909090908","768","428","j","true","img/C_ambi40.png","三角","prac_image_first",""
"","","","","","html-keyboard-response","106","339881","0.0-7.1-0.1-1.46","null","<span style='color:GreenYellow; font-size: 70px;'>正确! </span>","null","","","","","","","","","","","","","","","","","","","","","","","feedback_test"
"","","","","","psychophysics","107","341941","0.0-7.1-0.1-0.47","904","","f","","","","","","","","","","","","","key","f","16.66783739837422","768","428","f","true","img/S_ambi40.png","方形","prac_image_first",""
"","","","","","html-keyboard-response","108","342257","0.0-7.1-0.1-1.47","null","<span style='color:GreenYellow; font-size: 70px;'>正确! </span>","null","","","","","","","","","","","","","","","","","","","","","","","feedback_test"
"","","","","","html-keyboard-response","109","348371","0.0-8.0","6112","<style>.context{color:white; font-size: 35px; line-height:40px}</style>                            <div><p class='context'>您正确回答了96% 的试次。</p><p class='context'>您的平均反应时为626毫秒。</p><p class='context'>恭喜您完成这一阶段的练习。按任意键进入<span style='color: yellow;'>先文字后图形条件</span>的练习。</p></div>"," ","","","","","","","","","","","","","","","","","","","","","","",""
"","","","","","psychophysics","110","351027","0.0-9.0-0.0-0.0","null","","null","","","","","","","","","","","","","key","null","16.665721518987393","768","428","f","false","img/S_ambi40.png","方形","prac_word_first",""
"","","","","","html-keyboard-response","111","351336","0.0-9.0-0.0-1.0","null","<span class='add_' style='color:yellow; font-size: 70px;'> 太慢! </span>","null","","","","","","","","","","","","","","","","","","","","","","","feedback_test"
"","","","","","psychophysics","112","354070","0.0-9.0-0.0-0.1","null","","null","","","","","","","","","","","","","key","null","16.664950920245325","768","428","j","false","img/S_ambi40.png","圆形","prac_word_first",""
"","","","","","html-keyboard-response","113","355085","0.0-9.0-0.0-1.1","null","<span class='add_' style='color:yellow; font-size: 70px;'> 太慢! </span>","null","","","","","","","","","","","","","","","","","","","","","","","feedback_test"
"","","","","","psychophysics","114","357252","0.0-9.0-0.0-0.2","379","","j","","","","","","","","","","","","","key","j","16.66883720930209","768","428","j","true","img/T_ambi40.png","圆形","prac_word_first",""
"","","","","","html-keyboard-response","115","357554","0.0-9.0-0.0-1.2","null","<span style='color:GreenYellow; font-size: 70px;'>正确! </span>","null","","","","","","","","","","","","","","","","","","","","","","","feedback_test"
"","","","","","psychophysics","116","359227","0.0-9.0-0.0-0.3","518","","f","","","","","","","","","","","","","key","f","16.666110000000334","768","428","j","false","img/C_ambi40.png","方形","prac_word_first",""
"","","","","","html-keyboard-response","117","359555","0.0-9.0-0.0-1.3","null","<span style='color:red; font-size: 70px;'>错误! </span>","null","","","","","","","","","","","","","","","","","","","","","","","feedback_test"
"","","","","","psychophysics","118","361583","0.0-9.0-0.0-0.4","872","","f","","","","","","","","","","","","","key","f","16.66751239669446","768","428","f","true","img/S_ambi40.png","方形","prac_word_first",""
"","","","","","html-keyboard-response","119","362071","0.0-9.0-0.0-1.4","null","<span style='color:GreenYellow; font-size: 70px;'>正确! </span>","null","","","","","","","","","","","","","","","","","","","","","","","feedback_test"
"","","","","","psychophysics","120","364229","0.0-9.0-0.0-0.5","359","","f","","","","","","","","","","","","","key","f","16.666519379845184","768","428","f","true","img/T_ambi40.png","三角","prac_word_first",""
"","","","","","html-keyboard-response","121","364555","0.0-9.0-0.0-1.5","null","<span style='color:GreenYellow; font-size: 70px;'>正确! </span>","null","","","","","","","","","","","","","","","","","","","","","","","feedback_test"
"","","","","","psychophysics","122","366178","0.0-9.0-0.0-0.6","467","","f","","","","","","","","","","","","","key","f","16.668114583332983","768","428","f","true","img/C_ambi40.png","圆形","prac_word_first",""
"","","","","","html-keyboard-response","123","366493","0.0-9.0-0.0-1.6","null","<span style='color:GreenYellow; font-size: 70px;'>正确! </span>","null","","","","","","","","","","","","","","","","","","","","","","","feedback_test"
"","","","","","psychophysics","124","368227","0.0-9.0-0.0-0.7","578","","f","","","","","","","","","","","","","key","f","16.66541747572816","768","428","f","true","img/T_ambi40.png","三角","prac_word_first",""
"","","","","","html-keyboard-response","125","368541","0.0-9.0-0.0-1.7","null","<span style='color:GreenYellow; font-size: 70px;'>正确! </span>","null","","","","","","","","","","","","","","","","","","","","","","","feedback_test"
"","","","","","psychophysics","126","370611","0.0-9.0-0.0-0.8","558","","f","","","","","","","","","","","","","key","f","16.66601626016247","768","428","j","false","img/S_ambi40.png","三角","prac_word_first",""
"","","","","","html-keyboard-response","127","370915","0.0-9.0-0.0-1.8","null","<span style='color:red; font-size: 70px;'>错误! </span>","null","","","","","","","","","","","","","","","","","","","","","","","feedback_test"
"","","","","","psychophysics","128","372876","0.0-9.0-0.0-0.9","804","","j","","","","","","","","","","","","","key","j","16.710189655172268","768","428","j","true","img/T_ambi40.png","方形","prac_word_first",""
"","","","","","html-keyboard-response","129","373199","0.0-9.0-0.0-1.9","null","<span style='color:GreenYellow; font-size: 70px;'>正确! </span>","null","","","","","","","","","","","","","","","","","","","","","","","feedback_test"
"","","","","","psychophysics","130","374844","0.0-9.0-0.0-0.10","489","","f","","","","","","","","","","","","","key","f","16.66720408163264","768","428","f","true","img/C_ambi40.png","圆形","prac_word_first",""
"","","","","","html-keyboard-response","131","376075","0.0-9.0-0.0-1.10","null","<span style='color:GreenYellow; font-size: 70px;'>正确! </span>","null","","","","","","","","","","","","","","","","","","","","","","","feedback_test"
"","","","","","psychophysics","132","378404","0.0-9.0-0.0-0.11","403","","j","","","","","","","","","","","","","key","j","16.667489208633217","768","428","j","true","img/C_ambi40.png","三角","prac_word_first",""
"","","","","","html-keyboard-response","133","378716","0.0-9.0-0.0-1.11","null","<span style='color:GreenYellow; font-size: 70px;'>正确! </span>","null","","","","","","","","","","","","","","","","","","","","","","","feedback_test"
"","","","","","psychophysics","134","380579","0.0-9.0-0.0-0.12","707","","f","","","","","","","","","","","","","key","f","16.666369369369406","768","428","f","true","img/S_ambi40.png","方形","prac_word_first",""
"","","","","","html-keyboard-response","135","380887","0.0-9.0-0.0-1.12","null","<span style='color:GreenYellow; font-size: 70px;'>正确! </span>","null","","","","","","","","","","","","","","","","","","","","","","","feedback_test"
"","","","","","psychophysics","136","382547","0.0-9.0-0.0-0.13","507","","f","","","","","","","","","","","","","key","f","16.5348979591841","768","428","f","true","img/C_ambi40.png","圆形","prac_word_first",""
"","","","","","html-keyboard-response","137","382857","0.0-9.0-0.0-1.13","null","<span style='color:GreenYellow; font-size: 70px;'>正确! </span>","null","","","","","","","","","","","","","","","","","","","","","","","feedback_test"
"","","","","","psychophysics","138","384637","0.0-9.0-0.0-0.14","561","","j","","","","","","","","","","","","","key","j","16.665490566037885","768","428","j","true","img/T_ambi40.png","方形","prac_word_first",""
"","","","","","html-keyboard-response","139","384951","0.0-9.0-0.0-1.14","null","<span style='color:GreenYellow; font-size: 70px;'>正确! </span>","null","","","","","","","","","","","","","","","","","","","","","","","feedback_test"
"","","","","","psychophysics","140","386640","0.0-9.0-0.0-0.15","532","","f","","","","","","","","","","","","","key","f","16.667039999999687","768","428","f","true","img/C_ambi40.png","圆形","prac_word_first",""
"","","","","","html-keyboard-response","141","386967","0.0-9.0-0.0-1.15","null","<span style='color:GreenYellow; font-size: 70px;'>正确! </span>","null","","","","","","","","","","","","","","","","","","","","","","","feedback_test"
"","","","","","psychophysics","142","388693","0.0-9.0-0.0-0.16","570","","f","","","","","","","","","","","","","key","f","16.66818446601974","768","428","f","true","img/T_ambi40.png","三角","prac_word_first",""
"","","","","","html-keyboard-response","143","388999","0.0-9.0-0.0-1.16","null","<span style='color:GreenYellow; font-size: 70px;'>正确! </span>","null","","","","","","","","","","","","","","","","","","","","","","","feedback_test"
"","","","","","psychophysics","144","391235","0.0-9.0-0.0-0.17","451","","j","","","","","","","","","","","","","key","j","16.666759398496268","768","428","j","true","img/S_ambi40.png","三角","prac_word_first",""
"","","","","","html-keyboard-response","145","391546","0.0-9.0-0.0-1.17","null","<span style='color:GreenYellow; font-size: 70px;'>正确! </span>","null","","","","","","","","","","","","","","","","","","","","","","","feedback_test"
"","","","","","psychophysics","146","393652","0.0-9.0-0.0-0.18","950","","j","","","","","","","","","","","","","key","j","16.667128000000027","768","428","j","true","img/C_ambi40.png","方形","prac_word_first",""
"","","","","","html-keyboard-response","147","393968","0.0-9.0-0.0-1.18","null","<span style='color:GreenYellow; font-size: 70px;'>正确! </span>","null","","","","","","","","","","","","","","","","","","","","","","","feedback_test"
"","","","","","psychophysics","148","395845","0.0-9.0-0.0-0.19","725","","j","","","","","","","","","","","","","key","j","16.53969369369385","768","428","j","true","img/C_ambi40.png","三角","prac_word_first",""
"","","","","","html-keyboard-response","149","396157","0.0-9.0-0.0-1.19","null","<span style='color:GreenYellow; font-size: 70px;'>正确! </span>","null","","","","","","","","","","","","","","","","","","","","","","","feedback_test"
"","","","","","psychophysics","150","398051","0.0-9.0-0.0-0.20","738","","j","","","","","","","","","","","","","key","j","16.66569026548671","768","428","j","true","img/T_ambi40.png","圆形","prac_word_first",""
"","","","","","html-keyboard-response","151","398360","0.0-9.0-0.0-1.20","null","<span style='color:GreenYellow; font-size: 70px;'>正确! </span>","null","","","","","","","","","","","","","","","","","","","","","","","feedback_test"
"","","","","","psychophysics","152","400080","0.0-9.0-0.0-0.21","564","","f","","","","","","","","","","","","","key","f","16.668147058823653","768","428","f","true","img/T_ambi40.png","三角","prac_word_first",""
"","","","","","html-keyboard-response","153","400391","0.0-9.0-0.0-1.21","null","<span style='color:GreenYellow; font-size: 70px;'>正确! </span>","null","","","","","","","","","","","","","","","","","","","","","","","feedback_test"
"","","","","","psychophysics","154","402230","0.0-9.0-0.0-0.22","151","","j","","","","","","","","","","","","","key","j","16.668788990826098","768","428","j","true","img/S_ambi40.png","圆形","prac_word_first",""
"","","","","","html-keyboard-response","155","402533","0.0-9.0-0.0-1.22","null","<span style='color:yellow; font-size: 70px;'>过快! </span>","null","","","","","","","","","","","","","","","","","","","","","","","feedback_test"
"","","","","","psychophysics","156","404427","0.0-9.0-0.0-0.23","739","","j","","","","","","","","","","","","","key","j","16.66758407079625","768","428","f","false","img/S_ambi40.png","方形","prac_word_first",""
"","","","","","html-keyboard-response","157","404736","0.0-9.0-0.0-1.23","null","<span style='color:red; font-size: 70px;'>错误! </span>","null","","","","","","","","","","","","","","","","","","","","","","","feedback_test"
"","","","","","html-keyboard-response","158","411674","0.0-10.0","6936","<style>.context{color:white; font-size: 35px; line-height:40px}</style>                            <div><p class='context'>您正确回答了79% 的试次。</p><p class='context'>您的平均反应时为569毫秒。</p><p class='context'>恭喜您完成练习。按任意键进入<span style='color: yellow;'>图形和文字同时呈现条件</span>的练习。</p></div>"," ","","","","","","","","","","","","","","","","","","","","","","",""
"","","","","","psychophysics","159","414182","0.0-11.0-0.0-0.0","null","","null","","","","","","","","","","","","","key","null","16.66455704698006","768","428","j","false","img/T_ambi40.png","方形","prac_simultaneous",""
"","","","","","html-keyboard-response","160","414505","0.0-11.0-0.0-1.0","null","<span class='add_' style='color:yellow; font-size: 70px;'> 太慢! </span>","null","","","","","","","","","","","","","","","","","","","","","","","feedback_test"
"","","","","","psychophysics","161","416204","0.0-11.0-0.0-0.1","691","","f","","","","","","","","","","","","","key","f","16.66495049504925","768","428","f","true","img/C_ambi40.png","圆形","prac_simultaneous",""
"","","","","","html-keyboard-response","162","416505","0.0-11.0-0.0-1.1","null","<span style='color:GreenYellow; font-size: 70px;'>正确! </span>","null","","","","","","","","","","","","","","","","","","","","","","","feedback_test"
"","","","","","psychophysics","163","418107","0.0-11.0-0.0-0.2","27","","f","","","","","","","","","","","","","key","f","16.668378947368872","768","428","f","true","img/T_ambi40.png","三角","prac_simultaneous",""
"","","","","","html-keyboard-response","164","418412","0.0-11.0-0.0-1.2","null","<span style='color:yellow; font-size: 70px;'>过快! </span>","null","","","","","","","","","","","","","","","","","","","","","","","feedback_test"
"","","","","","psychophysics","165","420033","0.0-11.0-0.0-0.3","614","","j","","","","","","","","","","","","","key","j","16.669645833332954","768","428","f","false","img/S_ambi40.png","方形","prac_simultaneous",""
"","","","","","html-keyboard-response","166","420349","0.0-11.0-0.0-1.3","null","<span style='color:red; font-size: 70px;'>错误! </span>","null","","","","","","","","","","","","","","","","","","","","","","","feedback_test"
"","","","","","psychophysics","167","422052","0.0-11.0-0.0-0.4","692","","j","","","","","","","","","","","","","key","j","16.6659405940595","768","428","j","true","img/T_ambi40.png","圆形","prac_simultaneous",""
"","","","","","html-keyboard-response","168","422381","0.0-11.0-0.0-1.4","null","<span style='color:GreenYellow; font-size: 70px;'>正确! </span>","null","","","","","","","","","","","","","","","","","","","","","","","feedback_test"
"","","","","","psychophysics","169","424579","0.0-11.0-0.0-0.5","509","","j","","","","","","","","","","","","","key","j","16.66699236641213","768","428","j","true","img/C_ambi40.png","三角","prac_simultaneous",""
"","","","","","html-keyboard-response","170","424897","0.0-11.0-0.0-1.5","null","<span style='color:GreenYellow; font-size: 70px;'>正确! </span>","null","","","","","","","","","","","","","","","","","","","","","","","feedback_test"
"","","","","","psychophysics","171","426577","0.0-11.0-0.0-0.6","673","","f","","","","","","","","","","","","","key","f","16.6663400000002","768","428","f","true","img/T_ambi40.png","三角","prac_simultaneous",""
"","","","","","html-keyboard-response","172","426882","0.0-11.0-0.0-1.6","null","<span style='color:GreenYellow; font-size: 70px;'>正确! </span>","null","","","","","","","","","","","","","","","","","","","","","","","feedback_test"
"","","","","","psychophysics","173","428595","0.0-11.0-0.0-0.7","706","","j","","","","","","","","","","","","","key","j","16.668813725490025","768","428","j","true","img/C_ambi40.png","方形","prac_simultaneous",""
"","","","","","html-keyboard-response","174","428898","0.0-11.0-0.0-1.7","null","<span style='color:GreenYellow; font-size: 70px;'>正确! </span>","null","","","","","","","","","","","","","","","","","","","","","","","feedback_test"
"","","","","","psychophysics","175","430547","0.0-11.0-0.0-0.8","478","","f","","","","","","","","","","","","","key","f","16.669040816326444","768","428","f","true","img/C_ambi40.png","圆形","prac_simultaneous",""
"","","","","","html-keyboard-response","176","430851","0.0-11.0-0.0-1.8","null","<span style='color:GreenYellow; font-size: 70px;'>正确! </span>","null","","","","","","","","","","","","","","","","","","","","","","","feedback_test"
"","","","","","psychophysics","177","432636","0.0-11.0-0.0-0.9","785","","j","","","","","","","","","","","","","key","j","16.66890654205584","768","428","j","true","img/S_ambi40.png","三角","prac_simultaneous",""
"","","","","","html-keyboard-response","178","432938","0.0-11.0-0.0-1.9","null","<span style='color:GreenYellow; font-size: 70px;'>正确! </span>","null","","","","","","","","","","","","","","","","","","","","","","","feedback_test"
"","","","","","psychophysics","179","434558","0.0-11.0-0.0-0.10","613","","f","","","","","","","","","","","","","key","f","16.667958333333445","768","428","f","true","img/S_ambi40.png","方形","prac_simultaneous",""
"","","","","","html-keyboard-response","180","434860","0.0-11.0-0.0-1.10","null","<span style='color:GreenYellow; font-size: 70px;'>正确! </span>","null","","","","","","","","","","","","","","","","","","","","","","","feedback_test"
"","","","","","psychophysics","181","436627","0.0-11.0-0.0-0.11","563","","j","","","","","","","","","","","","","key","j","16.666047619047596","768","428","j","true","img/S_ambi40.png","圆形","prac_simultaneous",""
"","","","","","html-keyboard-response","182","436954","0.0-11.0-0.0-1.11","null","<span style='color:GreenYellow; font-size: 70px;'>正确! </span>","null","","","","","","","","","","","","","","","","","","","","","","","feedback_test"
"","","","","","psychophysics","183","438702","0.0-11.0-0.0-0.12","738","","f","","","","","","","","","","","","","key","f","16.66810576923084","768","428","f","true","img/S_ambi40.png","方形","prac_simultaneous",""
"","","","","","html-keyboard-response","184","439018","0.0-11.0-0.0-1.12","null","<span style='color:GreenYellow; font-size: 70px;'>正确! </span>","null","","","","","","","","","","","","","","","","","","","","","","","feedback_test"
"","","","","","psychophysics","185","440569","0.0-11.0-0.0-0.13","543","","f","","","","","","","","","","","","","key","f","16.66918478260872","768","428","f","true","img/C_ambi40.png","圆形","prac_simultaneous",""
"","","","","","html-keyboard-response","186","440892","0.0-11.0-0.0-1.13","null","<span style='color:GreenYellow; font-size: 70px;'>正确! </span>","null","","","","","","","","","","","","","","","","","","","","","","","feedback_test"
"","","","","","psychophysics","187","442515","0.0-11.0-0.0-0.14","450","","f","","","","","","","","","","","","","key","f","16.66782291666641","768","428","f","true","img/T_ambi40.png","三角","prac_simultaneous",""
"","","","","","html-keyboard-response","188","442846","0.0-11.0-0.0-1.14","null","<span style='color:GreenYellow; font-size: 70px;'>正确! </span>","null","","","","","","","","","","","","","","","","","","","","","","","feedback_test"
"","","","","","psychophysics","189","444505","0.0-11.0-0.0-0.15","650","","j","","","","","","","","","","","","","key","j","16.66413131313142","768","428","j","true","img/T_ambi40.png","圆形","prac_simultaneous",""
"","","","","","html-keyboard-response","190","444815","0.0-11.0-0.0-1.15","null","<span style='color:GreenYellow; font-size: 70px;'>正确! </span>","null","","","","","","","","","","","","","","","","","","","","","","","feedback_test"
"","","","","","psychophysics","191","446396","0.0-11.0-0.0-0.16","574","","f","","","","","","","","","","","","","key","f","16.665265957446536","768","428","f","true","img/C_ambi40.png","圆形","prac_simultaneous",""
"","","","","","html-keyboard-response","192","446706","0.0-11.0-0.0-1.16","null","<span style='color:GreenYellow; font-size: 70px;'>正确! </span>","null","","","","","","","","","","","","","","","","","","","","","","","feedback_test"
"","","","","","psychophysics","193","448401","0.0-11.0-0.0-0.17","338","","j","","","","","","","","","","","","","key","j","16.668811881188002","768","428","j","true","img/C_ambi40.png","三角","prac_simultaneous",""
"","","","","","html-keyboard-response","194","448706","0.0-11.0-0.0-1.17","null","<span style='color:GreenYellow; font-size: 70px;'>正确! </span>","null","","","","","","","","","","","","","","","","","","","","","","","feedback_test"
"","","","","","psychophysics","195","450211","0.0-11.0-0.0-0.18","498","","f","","","","","","","","","","","","","key","f","16.668483146067363","768","428","j","false","img/T_ambi40.png","方形","prac_simultaneous",""
"","","","","","html-keyboard-response","196","450519","0.0-11.0-0.0-1.18","null","<span style='color:red; font-size: 70px;'>错误! </span>","null","","","","","","","","","","","","","","","","","","","","","","","feedback_test"
"","","","","","psychophysics","197","453030","0.0-11.0-0.0-0.19","null","","null","","","","","","","","","","","","","key","null","16.667214765100532","768","428","f","false","img/T_ambi40.png","三角","prac_simultaneous",""
"","","","","","html-keyboard-response","198","453332","0.0-11.0-0.0-1.19","null","<span class='add_' style='color:yellow; font-size: 70px;'> 太慢! </span>","null","","","","","","","","","","","","","","","","","","","","","","","feedback_test"
"","","","","","psychophysics","199","455398","0.0-11.0-0.0-0.20","331","","f","","","","","","","","","","","","","key","f","16.667886178861977","768","428","f","true","img/S_ambi40.png","方形","prac_simultaneous",""
"","","","","","html-keyboard-response","200","455709","0.0-11.0-0.0-1.20","null","<span style='color:GreenYellow; font-size: 70px;'>正确! </span>","null","","","","","","","","","","","","","","","","","","","","","","","feedback_test"
"","","","","","psychophysics","201","457543","0.0-11.0-0.0-0.21","828","","j","","","","","","","","","","","","","key","j","16.669275229357808","768","428","j","true","img/C_ambi40.png","方形","prac_simultaneous",""
"","","","","","html-keyboard-response","202","457848","0.0-11.0-0.0-1.21","null","<span style='color:GreenYellow; font-size: 70px;'>正确! </span>","null","","","","","","","","","","","","","","","","","","","","","","","feedback_test"
"","","","","","psychophysics","203","459450","0.0-11.0-0.0-0.22","594","","f","","","","","","","","","","","","","key","f","16.668305263157908","768","428","j","false","img/S_ambi40.png","三角","prac_simultaneous",""
"","","","","","html-keyboard-response","204","459756","0.0-11.0-0.0-1.22","null","<span style='color:red; font-size: 70px;'>错误! </span>","null","","","","","","","","","","","","","","","","","","","","","","","feedback_test"
"","","","","","psychophysics","205","463063","0.0-11.0-0.0-0.23","null","","null","","","","","","","","","","","","","key","null","16.666237373737562","768","428","j","false","img/S_ambi40.png","圆形","prac_simultaneous",""
"","","","","","html-keyboard-response","206","464068","0.0-11.0-0.0-1.23","null","<span class='add_' style='color:yellow; font-size: 70px;'> 太慢! </span>","null","","","","","","","","","","","","","","","","","","","","","","","feedback_test"
"","","","","","html-keyboard-response","207","472776","0.0-12.0","8706","<style>.context{color:white; font-size: 35px; line-height:40px}</style>                            <div><p class='context'>您正确回答了75% 的试次。</p><p class='context'>您的平均反应时为566毫秒。</p><p class='context'>恭喜您完成练习。按任意键进入正式实验。</p><p class='footer' style='font-size: 35px; line-height:40px;'>请在进入正式实验实验之前将您的<span style='color: lightgreen;'>食指</span>放在电脑键盘的相应键位上进行按键。</p>"," ","","","","","","","","","","","","","","","","","","","","","","",""
"","","","","","html-keyboard-response","208","491198","0.0-13.0-2.0-0.0","18419","
    <p>请您将手指放在按键上，准备进入呈现顺序为<span style='color: yellow;'>图形和文字同时呈现条件</span>的正式匹配任务</p>
    <p> <div style = ""color: green""><按任意键进入下一阶段的匹配任务></div></p>
    "," ","","","","","","","","","","","","","","","","","","","","","","",""
"","","","","","psychophysics","209","493565","0.0-13.0-2.0-1.0-0.0-0.0","1356","","j","","","","","","","","","","","","","key","j","16.667000000000144","768","428","j","true","img/T_ambi40.png","方形","simultaneous",""
"","","","","","html-keyboard-response","210","493881","0.0-13.0-2.0-1.0-0.0-1.0","null","<span style='color:GreenYellow; font-size: 70px;'>正确! </span>","null","","","","","","","","","","","","","","","","","","","","","","","feedback_test"
"","","","","","psychophysics","211","495899","0.0-13.0-2.0-1.0-0.0-0.1","1002","","j","","","","","","","","","","","","","key","j","16.666283333333073","768","428","j","true","img/T_ambi40.png","圆形","simultaneous",""
"","","","","","html-keyboard-response","212","496211","0.0-13.0-2.0-1.0-0.0-1.1","null","<span style='color:GreenYellow; font-size: 70px;'>正确! </span>","null","","","","","","","","","","","","","","","","","","","","","","","feedback_test"
"","","","","","psychophysics","213","498134","0.0-13.0-2.0-1.0-0.0-0.2","374","","f","","","","","","","","","","","","","key","f","16.668807017543912","768","428","f","true","img/C_ambi40.png","圆形","simultaneous",""
"","","","","","html-keyboard-response","214","498461","0.0-13.0-2.0-1.0-0.0-1.2","null","<span style='color:GreenYellow; font-size: 70px;'>正确! </span>","null","","","","","","","","","","","","","","","","","","","","","","","feedback_test"
"","","","","","psychophysics","215","500258","0.0-13.0-2.0-1.0-0.0-0.3","789","","f","","","","","","","","","","","","","key","f","16.669271028037596","768","428","f","true","img/T_ambi40.png","三角","simultaneous",""
"","","","","","html-keyboard-response","216","500570","0.0-13.0-2.0-1.0-0.0-1.3","null","<span style='color:GreenYellow; font-size: 70px;'>正确! </span>","null","","","","","","","","","","","","","","","","","","","","","","","feedback_test"
"","","","","","psychophysics","217","502278","0.0-13.0-2.0-1.0-0.0-0.4","704","","j","","","","","","","","","","","","","key","j","16.720584158415647","768","428","j","true","img/C_ambi40.png","三角","simultaneous",""
"","","","","","html-keyboard-response","218","502587","0.0-13.0-2.0-1.0-0.0-1.4","null","<span style='color:GreenYellow; font-size: 70px;'>正确! </span>","null","","","","","","","","","","","","","","","","","","","","","","","feedback_test"
"","","","","","psychophysics","219","504407","0.0-13.0-2.0-1.0-0.0-0.5","330","","f","","","","","","","","","","","","","key","f","16.66724999999968","768","428","j","false","img/C_ambi40.png","方形","simultaneous",""
"","","","","","html-keyboard-response","220","504712","0.0-13.0-2.0-1.0-0.0-1.5","null","<span style='color:red; font-size: 70px;'>错误! </span>","null","","","","","","","","","","","","","","","","","","","","","","","feedback_test"
"","","","","","psychophysics","221","506380","0.0-13.0-2.0-1.0-0.0-0.6","661","","f","","","","","","","","","","","","","key","f","16.668969696969725","768","428","f","true","img/S_ambi40.png","方形","simultaneous",""
"","","","","","html-keyboard-response","222","506697","0.0-13.0-2.0-1.0-0.0-1.6","null","<span style='color:GreenYellow; font-size: 70px;'>正确! </span>","null","","","","","","","","","","","","","","","","","","","","","","","feedback_test"
"","","","","","psychophysics","223","508285","0.0-13.0-2.0-1.0-0.0-0.7","581","","f","","","","","","","","","","","","","key","f","16.668372340425428","768","428","f","true","img/C_ambi40.png","圆形","simultaneous",""
"","","","","","html-keyboard-response","224","508589","0.0-13.0-2.0-1.0-0.0-1.7","null","<span style='color:GreenYellow; font-size: 70px;'>正确! </span>","null","","","","","","","","","","","","","","","","","","","","","","","feedback_test"
"","","","","","psychophysics","225","510449","0.0-13.0-2.0-1.0-0.0-0.8","377","","j","","","","","","","","","","","","","key","j","16.66718918918936","768","428","j","true","img/S_ambi40.png","圆形","simultaneous",""
"","","","","","html-keyboard-response","226","510761","0.0-13.0-2.0-1.0-0.0-1.8","null","<span style='color:GreenYellow; font-size: 70px;'>正确! </span>","null","","","","","","","","","","","","","","","","","","","","","","","feedback_test"
"","","","","","psychophysics","227","512620","0.0-13.0-2.0-1.0-0.0-0.9","852","","j","","","","","","","","","","","","","key","j","16.663621621621722","768","428","j","true","img/S_ambi40.png","三角","simultaneous",""
"","","","","","html-keyboard-response","228","512933","0.0-13.0-2.0-1.0-0.0-1.9","null","<span style='color:GreenYellow; font-size: 70px;'>正确! </span>","null","","","","","","","","","","","","","","","","","","","","","","","feedback_test"
"","","","","","psychophysics","229","515137","0.0-13.0-2.0-1.0-0.0-0.10","1197","","f","","","","","","","","","","","","","key","f","16.665175572519352","768","428","f","true","img/T_ambi40.png","三角","simultaneous",""
"","","","","","html-keyboard-response","230","515449","0.0-13.0-2.0-1.0-0.0-1.10","null","<span style='color:GreenYellow; font-size: 70px;'>正确! </span>","null","","","","","","","","","","","","","","","","","","","","","","","feedback_test"
"","","","","","psychophysics","231","517290","0.0-13.0-2.0-1.0-0.0-0.11","218","","f","","","","","","","","","","","","","key","f","16.66571818181811","768","428","f","true","img/S_ambi40.png","方形","simultaneous",""
"","","","","","html-keyboard-response","232","517621","0.0-13.0-2.0-1.0-0.0-1.11","null","<span style='color:GreenYellow; font-size: 70px;'>正确! </span>","null","","","","","","","","","","","","","","","","","","","","","","","feedback_test"
"","","","","","psychophysics","233","519359","0.0-13.0-2.0-1.0-0.0-0.12","731","","f","","","","","","","","","","","","","key","f","16.665456310679765","768","428","f","true","img/T_ambi40.png","三角","simultaneous",""
"","","","","","html-keyboard-response","234","519668","0.0-13.0-2.0-1.0-0.0-1.12","null","<span style='color:GreenYellow; font-size: 70px;'>正确! </span>","null","","","","","","","","","","","","","","","","","","","","","","","feedback_test"
"","","","","","psychophysics","235","521291","0.0-13.0-2.0-1.0-0.0-0.13","615","","f","","","","","","","","","","","","","key","f","16.669947916666086","768","428","f","true","img/C_ambi40.png","圆形","simultaneous",""
"","","","","","html-keyboard-response","236","521606","0.0-13.0-2.0-1.0-0.0-1.13","null","<span style='color:GreenYellow; font-size: 70px;'>正确! </span>","null","","","","","","","","","","","","","","","","","","","","","","","feedback_test"
"","","","","","psychophysics","237","523331","0.0-13.0-2.0-1.0-0.0-0.14","257","","j","","","","","","","","","","","","","key","j","16.6635145631074","768","428","j","true","img/S_ambi40.png","三角","simultaneous",""
"","","","","","html-keyboard-response","238","523637","0.0-13.0-2.0-1.0-0.0-1.14","null","<span style='color:GreenYellow; font-size: 70px;'>正确! </span>","null","","","","","","","","","","","","","","","","","","","","","","","feedback_test"
"","","","","","psychophysics","239","525354","0.0-13.0-2.0-1.0-0.0-0.15","707","","j","","","","","","","","","","","","","key","j","16.6680882352943","768","428","j","true","img/T_ambi40.png","方形","simultaneous",""
"","","","","","html-keyboard-response","240","525668","0.0-13.0-2.0-1.0-0.0-1.15","null","<span style='color:GreenYellow; font-size: 70px;'>正确! </span>","null","","","","","","","","","","","","","","","","","","","","","","","feedback_test"
"","","","","","psychophysics","241","527379","0.0-13.0-2.0-1.0-0.0-0.16","702","","j","","","","","","","","","","","","","key","j","16.6668039215683","768","428","j","true","img/C_ambi40.png","三角","simultaneous",""
"","","","","","html-keyboard-response","242","527685","0.0-13.0-2.0-1.0-0.0-1.16","null","<span style='color:GreenYellow; font-size: 70px;'>正确! </span>","null","","","","","","","","","","","","","","","","","","","","","","","feedback_test"
"","","","","","psychophysics","243","529318","0.0-13.0-2.0-1.0-0.0-0.17","242","","f","","","","","","","","","","","","","key","f","16.66957731958786","768","428","f","true","img/C_ambi40.png","圆形","simultaneous",""
"","","","","","html-keyboard-response","244","529623","0.0-13.0-2.0-1.0-0.0-1.17","null","<span style='color:GreenYellow; font-size: 70px;'>正确! </span>","null","","","","","","","","","","","","","","","","","","","","","","","feedback_test"
"","","","","","psychophysics","245","531253","0.0-13.0-2.0-1.0-0.0-0.18","623","","j","","","","","","","","","","","","","key","j","16.665422680412092","768","428","j","true","img/S_ambi40.png","圆形","simultaneous",""
"","","","","","html-keyboard-response","246","531560","0.0-13.0-2.0-1.0-0.0-1.18","null","<span style='color:GreenYellow; font-size: 70px;'>正确! </span>","null","","","","","","","","","","","","","","","","","","","","","","","feedback_test"
"","","","","","psychophysics","247","533315","0.0-13.0-2.0-1.0-0.0-0.19","748","","j","","","","","","","","","","","","","key","j","16.66564423076992","768","428","j","true","img/C_ambi40.png","方形","simultaneous",""
"","","","","","html-keyboard-response","248","533623","0.0-13.0-2.0-1.0-0.0-1.19","null","<span style='color:GreenYellow; font-size: 70px;'>正确! </span>","null","","","","","","","","","","","","","","","","","","","","","","","feedback_test"
"","","","","","psychophysics","249","535271","0.0-13.0-2.0-1.0-0.0-0.20","194","","j","","","","","","","","","","","","","key","j","16.66516326530718","768","428","f","false","img/S_ambi40.png","方形","simultaneous",""
"","","","","","html-keyboard-response","250","535577","0.0-13.0-2.0-1.0-0.0-1.20","null","<span style='color:yellow; font-size: 70px;'>过快! </span>","null","","","","","","","","","","","","","","","","","","","","","","","feedback_test"
"","","","","","psychophysics","251","537481","0.0-13.0-2.0-1.0-0.0-0.21","897","","j","","","","","","","","","","","","","key","j","16.668610619468637","768","428","j","true","img/T_ambi40.png","圆形","simultaneous",""
"","","","","","html-keyboard-response","252","537796","0.0-13.0-2.0-1.0-0.0-1.21","null","<span style='color:GreenYellow; font-size: 70px;'>正确! </span>","null","","","","","","","","","","","","","","","","","","","","","","","feedback_test"
"","","","","","psychophysics","253","539530","0.0-13.0-2.0-1.0-0.0-0.22","725","","f","","","","","","","","","","","","","key","f","16.66732038835005","768","428","f","true","img/T_ambi40.png","三角","simultaneous",""
"","","","","","html-keyboard-response","254","539842","0.0-13.0-2.0-1.0-0.0-1.22","null","<span style='color:GreenYellow; font-size: 70px;'>正确! </span>","null","","","","","","","","","","","","","","","","","","","","","","","feedback_test"
"","","","","","psychophysics","255","541746","0.0-13.0-2.0-1.0-0.0-0.23","669","","f","","","","","","","","","","","","","key","f","16.66869026548703","768","428","f","true","img/S_ambi40.png","方形","simultaneous",""
"","","","","","html-keyboard-response","256","542062","0.0-13.0-2.0-1.0-0.0-1.23","null","<span style='color:GreenYellow; font-size: 70px;'>正确! </span>","null","","","","","","","","","","","","","","","","","","","","","","","feedback_test"
"","","","","","psychophysics","257","543801","0.0-13.0-2.0-1.0-0.0-0.24","731","","f","","","","","","","","","","","","","key","f","16.668116504854286","768","428","f","true","img/T_ambi40.png","三角","simultaneous",""
"","","","","","html-keyboard-response","258","544108","0.0-13.0-2.0-1.0-0.0-1.24","null","<span style='color:GreenYellow; font-size: 70px;'>正确! </span>","null","","","","","","","","","","","","","","","","","","","","","","","feedback_test"
"","","","","","psychophysics","259","545892","0.0-13.0-2.0-1.0-0.0-0.25","777","","j","","","","","","","","","","","","","key","j","16.667801886792557","768","428","j","true","img/S_ambi40.png","圆形","simultaneous",""
"","","","","","html-keyboard-response","260","546218","0.0-13.0-2.0-1.0-0.0-1.25","null","<span style='color:GreenYellow; font-size: 70px;'>正确! </span>","null","","","","","","","","","","","","","","","","","","","","","","","feedback_test"
"","","","","","psychophysics","261","548238","0.0-13.0-2.0-1.0-0.0-0.26","453","","j","","","","","","","","","","","","","key","j","16.66837499999965","768","428","j","true","img/T_ambi40.png","方形","simultaneous",""
"","","","","","html-keyboard-response","262","548562","0.0-13.0-2.0-1.0-0.0-1.26","null","<span style='color:GreenYellow; font-size: 70px;'>正确! </span>","null","","","","","","","","","","","","","","","","","","","","","","","feedback_test"
"","","","","","psychophysics","263","550747","0.0-13.0-2.0-1.0-0.0-0.27","1177","","f","","","","","","","","","","","","","key","f","16.66666923076935","768","428","f","true","img/S_ambi40.png","方形","simultaneous",""
"","","","","","html-keyboard-response","264","551078","0.0-13.0-2.0-1.0-0.0-1.27","null","<span style='color:GreenYellow; font-size: 70px;'>正确! </span>","null","","","","","","","","","","","","","","","","","","","","","","","feedback_test"
"","","","","","psychophysics","265","552792","0.0-13.0-2.0-1.0-0.0-0.28","717","","f","","","","","","","","","","","","","key","f","16.666417475728753","768","428","f","true","img/S_ambi40.png","方形","simultaneous",""
"","","","","","html-keyboard-response","266","553099","0.0-13.0-2.0-1.0-0.0-1.28","null","<span style='color:GreenYellow; font-size: 70px;'>正确! </span>","null","","","","","","","","","","","","","","","","","","","","","","","feedback_test"
"","","","","","psychophysics","267","554747","0.0-13.0-2.0-1.0-0.0-0.29","641","","j","","","","","","","","","","","","","key","j","16.666357142856697","768","428","j","true","img/T_ambi40.png","圆形","simultaneous",""
"","","","","","html-keyboard-response","268","555053","0.0-13.0-2.0-1.0-0.0-1.29","null","<span style='color:GreenYellow; font-size: 70px;'>正确! </span>","null","","","","","","","","","","","","","","","","","","","","","","","feedback_test"
"","","","","","psychophysics","269","556814","0.0-13.0-2.0-1.0-0.0-0.30","754","","j","","","","","","","","","","","","","key","j","16.668466666665683","768","428","j","true","img/S_ambi40.png","三角","simultaneous",""
"","","","","","html-keyboard-response","270","557115","0.0-13.0-2.0-1.0-0.0-1.30","null","<span style='color:GreenYellow; font-size: 70px;'>正确! </span>","null","","","","","","","","","","","","","","","","","","","","","","","feedback_test"
"","","","","","psychophysics","271","559420","0.0-13.0-2.0-1.0-0.0-0.31","451","","j","","","","","","","","","","","","","key","j","16.666306569342957","768","428","j","true","img/C_ambi40.png","方形","simultaneous",""
"","","","","","html-keyboard-response","272","559725","0.0-13.0-2.0-1.0-0.0-1.31","null","<span style='color:GreenYellow; font-size: 70px;'>正确! </span>","null","","","","","","","","","","","","","","","","","","","","","","","feedback_test"
"","","","","","psychophysics","273","561340","0.0-13.0-2.0-1.0-0.0-0.32","607","","f","","","","","","","","","","","","","key","f","16.665187500000076","768","428","f","true","img/T_ambi40.png","三角","simultaneous",""
"","","","","","html-keyboard-response","274","561647","0.0-13.0-2.0-1.0-0.0-1.32","null","<span style='color:GreenYellow; font-size: 70px;'>正确! </span>","null","","","","","","","","","","","","","","","","","","","","","","","feedback_test"
"","","","","","psychophysics","275","563483","0.0-13.0-2.0-1.0-0.0-0.33","829","","j","","","","","","","","","","","","","key","j","16.668577981651374","768","428","j","true","img/C_ambi40.png","三角","simultaneous",""
"","","","","","html-keyboard-response","276","563788","0.0-13.0-2.0-1.0-0.0-1.33","null","<span style='color:GreenYellow; font-size: 70px;'>正确! </span>","null","","","","","","","","","","","","","","","","","","","","","","","feedback_test"
"","","","","","psychophysics","277","565436","0.0-13.0-2.0-1.0-0.0-0.34","376","","f","","","","","","","","","","","","","key","f","16.721876288659764","768","428","f","true","img/C_ambi40.png","圆形","simultaneous",""
"","","","","","html-keyboard-response","278","565741","0.0-13.0-2.0-1.0-0.0-1.34","null","<span style='color:GreenYellow; font-size: 70px;'>正确! </span>","null","","","","","","","","","","","","","","","","","","","","","","","feedback_test"
"","","","","","psychophysics","279","567747","0.0-13.0-2.0-1.0-0.0-0.35","998","","f","","","","","","","","","","","","","key","f","16.66583193277357","768","428","f","true","img/C_ambi40.png","圆形","simultaneous",""
"","","","","","html-keyboard-response","280","568055","0.0-13.0-2.0-1.0-0.0-1.35","null","<span style='color:GreenYellow; font-size: 70px;'>正确! </span>","null","","","","","","","","","","","","","","","","","","","","","","","feedback_test"
"","","","","","psychophysics","281","569708","0.0-13.0-2.0-1.0-0.0-0.36","645","","j","","","","","","","","","","","","","key","j","16.669061224489493","768","428","j","true","img/S_ambi40.png","圆形","simultaneous",""
"","","","","","html-keyboard-response","282","570023","0.0-13.0-2.0-1.0-0.0-1.36","null","<span style='color:GreenYellow; font-size: 70px;'>正确! </span>","null","","","","","","","","","","","","","","","","","","","","","","","feedback_test"
"","","","","","psychophysics","283","571700","0.0-13.0-2.0-1.0-0.0-0.37","631","","f","","","","","","","","","","","","","key","f","16.665626262626233","768","428","f","true","img/C_ambi40.png","圆形","simultaneous",""
"","","","","","html-keyboard-response","284","572007","0.0-13.0-2.0-1.0-0.0-1.37","null","<span style='color:GreenYellow; font-size: 70px;'>正确! </span>","null","","","","","","","","","","","","","","","","","","","","","","","feedback_test"
"","","","","","psychophysics","285","573626","0.0-13.0-2.0-1.0-0.0-0.38","611","","j","","","","","","","","","","","","","key","j","16.669406250000367","768","428","f","false","img/S_ambi40.png","方形","simultaneous",""
"","","","","","html-keyboard-response","286","573931","0.0-13.0-2.0-1.0-0.0-1.38","null","<span style='color:red; font-size: 70px;'>错误! </span>","null","","","","","","","","","","","","","","","","","","","","","","","feedback_test"
"","","","","","psychophysics","287","575591","0.0-13.0-2.0-1.0-0.0-0.39","652","","j","","","","","","","","","","","","","key","j","16.66837373737368","768","428","j","true","img/S_ambi40.png","三角","simultaneous",""
"","","","","","html-keyboard-response","288","575899","0.0-13.0-2.0-1.0-0.0-1.39","null","<span style='color:GreenYellow; font-size: 70px;'>正确! </span>","null","","","","","","","","","","","","","","","","","","","","","","","feedback_test"
"","","","","","psychophysics","289","577443","0.0-13.0-2.0-1.0-0.0-0.40","372","","f","","","","","","","","","","","","","key","f","16.668576086957373","768","428","f","true","img/C_ambi40.png","圆形","simultaneous",""
"","","","","","html-keyboard-response","290","577759","0.0-13.0-2.0-1.0-0.0-1.40","null","<span style='color:GreenYellow; font-size: 70px;'>正确! </span>","null","","","","","","","","","","","","","","","","","","","","","","","feedback_test"
"","","","","","psychophysics","291","579619","0.0-13.0-2.0-1.0-0.0-0.41","852","","j","","","","","","","","","","","","","key","j","16.666576576576492","768","428","j","true","img/C_ambi40.png","方形","simultaneous",""
"","","","","","html-keyboard-response","292","579931","0.0-13.0-2.0-1.0-0.0-1.41","null","<span style='color:GreenYellow; font-size: 70px;'>正确! </span>","null","","","","","","","","","","","","","","","","","","","","","","","feedback_test"
"","","","","","psychophysics","293","581723","0.0-13.0-2.0-1.0-0.0-0.42","784","","j","","","","","","","","","","","","","key","j","16.664186915887573","768","428","j","true","img/C_ambi40.png","三角","simultaneous",""
"","","","","","html-keyboard-response","294","582025","0.0-13.0-2.0-1.0-0.0-1.42","null","<span style='color:GreenYellow; font-size: 70px;'>正确! </span>","null","","","","","","","","","","","","","","","","","","","","","","","feedback_test"
"","","","","","psychophysics","295","583705","0.0-13.0-2.0-1.0-0.0-0.43","639","","j","","","","","","","","","","","","","key","j","16.667589999999617","768","428","f","false","img/S_ambi40.png","方形","simultaneous",""
"","","","","","html-keyboard-response","296","584025","0.0-13.0-2.0-1.0-0.0-1.43","null","<span style='color:red; font-size: 70px;'>错误! </span>","null","","","","","","","","","","","","","","","","","","","","","","","feedback_test"
"","","","","","psychophysics","297","585745","0.0-13.0-2.0-1.0-0.0-0.44","711","","f","","","","","","","","","","","","","key","f","16.666784313725373","768","428","f","true","img/T_ambi40.png","三角","simultaneous",""
"","","","","","html-keyboard-response","298","586057","0.0-13.0-2.0-1.0-0.0-1.44","null","<span style='color:GreenYellow; font-size: 70px;'>正确! </span>","null","","","","","","","","","","","","","","","","","","","","","","","feedback_test"
"","","","","","psychophysics","299","587550","0.0-13.0-2.0-1.0-0.0-0.45","485","","f","","","","","","","","","","","","","key","f","16.67007865168526","768","428","f","true","img/T_ambi40.png","三角","simultaneous",""
"","","","","","html-keyboard-response","300","587855","0.0-13.0-2.0-1.0-0.0-1.45","null","<span style='color:GreenYellow; font-size: 70px;'>正确! </span>","null","","","","","","","","","","","","","","","","","","","","","","","feedback_test"
"","","","","","psychophysics","301","589574","0.0-13.0-2.0-1.0-0.0-0.46","512","","j","","","","","","","","","","","","","key","j","16.668656862744896","768","428","j","true","img/T_ambi40.png","圆形","simultaneous",""
"","","","","","html-keyboard-response","302","589901","0.0-13.0-2.0-1.0-0.0-1.46","null","<span style='color:GreenYellow; font-size: 70px;'>正确! </span>","null","","","","","","","","","","","","","","","","","","","","","","","feedback_test"
"","","","","","psychophysics","303","591860","0.0-13.0-2.0-1.0-0.0-0.47","952","","j","","","","","","","","","","","","","key","j","16.66514529914468","768","428","j","true","img/T_ambi40.png","方形","simultaneous",""
"","","","","","html-keyboard-response","304","592183","0.0-13.0-2.0-1.0-0.0-1.47","null","<span style='color:GreenYellow; font-size: 70px;'>正确! </span>","null","","","","","","","","","","","","","","","","","","","","","","","feedback_test"
"","","","","","psychophysics","305","594052","0.0-13.0-2.0-1.0-0.0-0.48","861","","f","","","","","","","","","","","","","key","f","16.66850450450475","768","428","j","false","img/T_ambi40.png","圆形","simultaneous",""
"","","","","","html-keyboard-response","306","594355","0.0-13.0-2.0-1.0-0.0-1.48","null","<span style='color:red; font-size: 70px;'>错误! </span>","null","","","","","","","","","","","","","","","","","","","","","","","feedback_test"
"","","","","","psychophysics","307","595971","0.0-13.0-2.0-1.0-0.0-0.49","609","","f","","","","","","","","","","","","","key","f","16.666104166666628","768","428","f","true","img/T_ambi40.png","三角","simultaneous",""
"","","","","","html-keyboard-response","308","596277","0.0-13.0-2.0-1.0-0.0-1.49","null","<span style='color:GreenYellow; font-size: 70px;'>正确! </span>","null","","","","","","","","","","","","","","","","","","","","","","","feedback_test"
"","","","","","psychophysics","309","598036","0.0-13.0-2.0-1.0-0.0-0.50","751","","f","","","","","","","","","","","","","key","f","16.666209523808877","768","428","f","true","img/S_ambi40.png","方形","simultaneous",""
"","","","","","html-keyboard-response","310","598341","0.0-13.0-2.0-1.0-0.0-1.50","null","<span style='color:GreenYellow; font-size: 70px;'>正确! </span>","null","","","","","","","","","","","","","","","","","","","","","","","feedback_test"
"","","","","","psychophysics","311","600245","0.0-13.0-2.0-1.0-0.0-0.51","896","","f","","","","","","","","","","","","","key","f","16.668893805310436","768","428","f","true","img/C_ambi40.png","圆形","simultaneous",""
"","","","","","html-keyboard-response","312","600559","0.0-13.0-2.0-1.0-0.0-1.51","null","<span style='color:GreenYellow; font-size: 70px;'>正确! </span>","null","","","","","","","","","","","","","","","","","","","","","","","feedback_test"
"","","","","","psychophysics","313","602143","0.0-13.0-2.0-1.0-0.0-0.52","577","","f","","","","","","","","","","","","","key","f","16.668563829786937","768","428","j","false","img/C_ambi40.png","方形","simultaneous",""
"","","","","","html-keyboard-response","314","602451","0.0-13.0-2.0-1.0-0.0-1.52","null","<span style='color:red; font-size: 70px;'>错误! </span>","null","","","","","","","","","","","","","","","","","","","","","","","feedback_test"
"","","","","","psychophysics","315","604599","0.0-13.0-2.0-1.0-0.0-0.53","1139","","j","","","","","","","","","","","","","key","j","16.667804687499483","768","428","j","true","img/S_ambi40.png","圆形","simultaneous",""
"","","","","","html-keyboard-response","316","604905","0.0-13.0-2.0-1.0-0.0-1.53","null","<span style='color:GreenYellow; font-size: 70px;'>正确! </span>","null","","","","","","","","","","","","","","","","","","","","","","","feedback_test"
"","","","","","psychophysics","317","606784","0.0-13.0-2.0-1.0-0.0-0.54","724","","f","","","","","","","","","","","","","key","f","16.667589285714453","768","428","f","true","img/S_ambi40.png","方形","simultaneous",""
"","","","","","html-keyboard-response","318","607092","0.0-13.0-2.0-1.0-0.0-1.54","null","<span style='color:GreenYellow; font-size: 70px;'>正确! </span>","null","","","","","","","","","","","","","","","","","","","","","","","feedback_test"
"","","","","","psychophysics","319","608714","0.0-13.0-2.0-1.0-0.0-0.55","614","","f","","","","","","","","","","","","","key","f","16.666781250000593","768","428","f","true","img/T_ambi40.png","三角","simultaneous",""
"","","","","","html-keyboard-response","320","609045","0.0-13.0-2.0-1.0-0.0-1.55","null","<span style='color:GreenYellow; font-size: 70px;'>正确! </span>","null","","","","","","","","","","","","","","","","","","","","","","","feedback_test"
"","","","","","psychophysics","321","611388","0.0-13.0-2.0-1.0-0.0-0.56","1335","","f","","","","","","","","","","","","","key","f","16.66755714285703","768","428","f","true","img/C_ambi40.png","圆形","simultaneous",""
"","","","","","html-keyboard-response","322","611716","0.0-13.0-2.0-1.0-0.0-1.56","null","<span style='color:GreenYellow; font-size: 70px;'>正确! </span>","null","","","","","","","","","","","","","","","","","","","","","","","feedback_test"
"","","","","","psychophysics","323","613486","0.0-13.0-2.0-1.0-0.0-0.57","427","","j","","","","","","","","","","","","","key","j","16.668980952381112","768","428","j","true","img/C_ambi40.png","三角","simultaneous",""
"","","","","","html-keyboard-response","324","613794","0.0-13.0-2.0-1.0-0.0-1.57","null","<span style='color:GreenYellow; font-size: 70px;'>正确! </span>","null","","","","","","","","","","","","","","","","","","","","","","","feedback_test"
"","","","","","psychophysics","325","616136","0.0-13.0-2.0-1.0-0.0-0.58","1336","","f","","","","","","","","","","","","","key","f","16.668528571428034","768","428","j","false","img/T_ambi40.png","方形","simultaneous",""
"","","","","","html-keyboard-response","326","616437","0.0-13.0-2.0-1.0-0.0-1.58","null","<span style='color:red; font-size: 70px;'>错误! </span>","null","","","","","","","","","","","","","","","","","","","","","","","feedback_test"
"","","","","","psychophysics","327","618700","0.0-13.0-2.0-1.0-0.0-0.59","1255","","j","","","","","","","","","","","","","key","j","16.668274074074535","768","428","j","true","img/S_ambi40.png","三角","simultaneous",""
"","","","","","html-keyboard-response","328","619015","0.0-13.0-2.0-1.0-0.0-1.59","null","<span style='color:GreenYellow; font-size: 70px;'>正确! </span>","null","","","","","","","","","","","","","","","","","","","","","","","feedback_test"
"","","","","","html-keyboard-response","329","624853","0.0-13.0-2.0-1.0-1.0","5836","<style>.context{color:white; font-size: 35px; line-height:40px}</style>                            <div><p class='context'>您正确回答了88% 的试次。</p><p class='context'>您的平均反应时为715毫秒。</p><p class='context'>请按任意键进入休息</p></div>"," ","","","","","","","","","","","","","","","","","","","","","","",""
"","","","","","html-button-response","330","692206","0.0-13.0-2.0-1.0-2.0","67338","
                    <p>您当前还剩余3组实验</p>
                    <p>现在是休息时间，当您结束休息后，您可以点击 结束休息 按钮 继续</p>
                    <p>建议休息时间还剩余<span id=""iii"">60</span>秒</p>","0","","","","","","","","","","","","","","","","","","","","","","",""
"","","","","","psychophysics","331","694204","0.0-13.0-2.0-1.0-0.1-0.60","989","","j","","","","","","","","","","","","","key","j","16.59985593220286","768","428","j","true","img/T_ambi40.png","圆形","simultaneous",""
"","","","","","html-keyboard-response","332","694528","0.0-13.0-2.0-1.0-0.1-1.60","null","<span style='color:GreenYellow; font-size: 70px;'>正确! </span>","null","","","","","","","","","","","","","","","","","","","","","","","feedback_test"
"","","","","","psychophysics","333","696272","0.0-13.0-2.0-1.0-0.1-0.61","197","","j","","","","","","","","","","","","","key","j","16.664884615385045","768","428","j","true","img/S_ambi40.png","三角","simultaneous",""
"","","","","","html-keyboard-response","334","696574","0.0-13.0-2.0-1.0-0.1-1.61","null","<span style='color:yellow; font-size: 70px;'>过快! </span>","null","","","","","","","","","","","","","","","","","","","","","","","feedback_test"
"","","","","","psychophysics","335","698279","0.0-13.0-2.0-1.0-0.1-0.62","694","","j","","","","","","","","","","","","","key","j","16.66886138613797","768","428","j","true","img/C_ambi40.png","三角","simultaneous",""
"","","","","","html-keyboard-response","336","698591","0.0-13.0-2.0-1.0-0.1-1.62","null","<span style='color:GreenYellow; font-size: 70px;'>正确! </span>","null","","","","","","","","","","","","","","","","","","","","","","","feedback_test"
"","","","","","psychophysics","337","700468","0.0-13.0-2.0-1.0-0.1-0.63","869","","f","","","","","","","","","","","","","key","f","16.667624999999784","768","428","f","true","img/S_ambi40.png","方形","simultaneous",""
"","","","","","html-keyboard-response","338","700779","0.0-13.0-2.0-1.0-0.1-1.63","null","<span style='color:GreenYellow; font-size: 70px;'>正确! </span>","null","","","","","","","","","","","","","","","","","","","","","","","feedback_test"
"","","","","","psychophysics","339","702541","0.0-13.0-2.0-1.0-0.1-0.64","470","","j","","","","","","","","","","","","","key","j","16.66657142857134","768","428","j","true","img/T_ambi40.png","方形","simultaneous",""
"","","","","","html-keyboard-response","340","702858","0.0-13.0-2.0-1.0-0.1-1.64","null","<span style='color:GreenYellow; font-size: 70px;'>正确! </span>","null","","","","","","","","","","","","","","","","","","","","","","","feedback_test"
"","","","","","psychophysics","341","704535","0.0-13.0-2.0-1.0-0.1-0.65","670","","f","","","","","","","","","","","","","key","f","16.66694999999949","768","428","f","true","img/C_ambi40.png","圆形","simultaneous",""
"","","","","","html-keyboard-response","342","704842","0.0-13.0-2.0-1.0-0.1-1.65","null","<span style='color:GreenYellow; font-size: 70px;'>正确! </span>","null","","","","","","","","","","","","","","","","","","","","","","","feedback_test"
"","","","","","psychophysics","343","706457","0.0-13.0-2.0-1.0-0.1-0.66","608","","f","","","","","","","","","","","","","key","f","16.66585416666688","768","428","f","true","img/T_ambi40.png","三角","simultaneous",""
"","","","","","html-keyboard-response","344","706764","0.0-13.0-2.0-1.0-0.1-1.66","null","<span style='color:GreenYellow; font-size: 70px;'>正确! </span>","null","","","","","","","","","","","","","","","","","","","","","","","feedback_test"
"","","","","","psychophysics","345","708627","0.0-13.0-2.0-1.0-0.1-0.67","556","","j","","","","","","","","","","","","","key","j","16.666441441441233","768","428","j","true","img/C_ambi40.png","方形","simultaneous",""
"","","","","","html-keyboard-response","346","708936","0.0-13.0-2.0-1.0-0.1-1.67","null","<span style='color:GreenYellow; font-size: 70px;'>正确! </span>","null","","","","","","","","","","","","","","","","","","","","","","","feedback_test"
"","","","","","psychophysics","347","710500","0.0-13.0-2.0-1.0-0.1-0.68","556","","f","","","","","","","","","","","","","key","f","16.666182795699726","768","428","f","true","img/T_ambi40.png","三角","simultaneous",""
"","","","","","html-keyboard-response","348","710812","0.0-13.0-2.0-1.0-0.1-1.68","null","<span style='color:GreenYellow; font-size: 70px;'>正确! </span>","null","","","","","","","","","","","","","","","","","","","","","","","feedback_test"
"","","","","","psychophysics","349","712438","0.0-13.0-2.0-1.0-0.1-0.69","619","","j","","","","","","","","","","","","","key","j","16.670206185567107","768","428","j","true","img/S_ambi40.png","圆形","simultaneous",""
"","","","","","html-keyboard-response","350","712750","0.0-13.0-2.0-1.0-0.1-1.69","null","<span style='color:GreenYellow; font-size: 70px;'>正确! </span>","null","","","","","","","","","","","","","","","","","","","","","","","feedback_test"
"","","","","","psychophysics","351","714380","0.0-13.0-2.0-1.0-0.1-0.70","306","","j","","","","","","","","","","","","","key","j","16.665907216494777","768","428","f","false","img/S_ambi40.png","方形","simultaneous",""
"","","","","","html-keyboard-response","352","714688","0.0-13.0-2.0-1.0-0.1-1.70","null","<span style='color:red; font-size: 70px;'>错误! </span>","null","","","","","","","","","","","","","","","","","","","","","","","feedback_test"
"","","","","","psychophysics","353","716275","0.0-13.0-2.0-1.0-0.1-0.71","580","","f","","","","","","","","","","","","","key","f","16.667223404255754","768","428","f","true","img/C_ambi40.png","圆形","simultaneous",""
"","","","","","html-keyboard-response","354","716577","0.0-13.0-2.0-1.0-0.1-1.71","null","<span style='color:GreenYellow; font-size: 70px;'>正确! </span>","null","","","","","","","","","","","","","","","","","","","","","","","feedback_test"
"","","","","","psychophysics","355","718246","0.0-13.0-2.0-1.0-0.1-0.72","667","","j","","","","","","","","","","","","","key","j","16.6658888888884","768","428","j","true","img/S_ambi40.png","圆形","simultaneous",""
"","","","","","html-keyboard-response","356","718548","0.0-13.0-2.0-1.0-0.1-1.72","null","<span style='color:GreenYellow; font-size: 70px;'>正确! </span>","null","","","","","","","","","","","","","","","","","","","","","","","feedback_test"
"","","","","","psychophysics","357","720306","0.0-13.0-2.0-1.0-0.1-0.73","234","","f","","","","","","","","","","","","","key","f","16.666361904761843","768","428","f","true","img/S_ambi40.png","方形","simultaneous",""
"","","","","","html-keyboard-response","358","720610","0.0-13.0-2.0-1.0-0.1-1.73","null","<span style='color:GreenYellow; font-size: 70px;'>正确! </span>","null","","","","","","","","","","","","","","","","","","","","","","","feedback_test"
"","","","","","psychophysics","359","722409","0.0-13.0-2.0-1.0-0.1-0.74","791","","j","","","","","","","","","","","","","key","j","16.667532710280167","768","428","j","true","img/T_ambi40.png","圆形","simultaneous",""
"","","","","","html-keyboard-response","360","722719","0.0-13.0-2.0-1.0-0.1-1.74","null","<span style='color:GreenYellow; font-size: 70px;'>正确! </span>","null","","","","","","","","","","","","","","","","","","","","","","","feedback_test"
"","","","","","psychophysics","361","724569","0.0-13.0-2.0-1.0-0.1-0.75","844","","j","","","","","","","","","","","","","key","j","16.668800000000786","768","428","j","true","img/S_ambi40.png","三角","simultaneous",""
"","","","","","html-keyboard-response","362","724892","0.0-13.0-2.0-1.0-0.1-1.75","null","<span style='color:GreenYellow; font-size: 70px;'>正确! </span>","null","","","","","","","","","","","","","","","","","","","","","","","feedback_test"
"","","","","","psychophysics","363","726522","0.0-13.0-2.0-1.0-0.1-0.76","443","","f","","","","","","","","","","","","","key","f","16.667412371133434","768","428","f","true","img/T_ambi40.png","三角","simultaneous",""
"","","","","","html-keyboard-response","364","726830","0.0-13.0-2.0-1.0-0.1-1.76","null","<span style='color:GreenYellow; font-size: 70px;'>正确! </span>","null","","","","","","","","","","","","","","","","","","","","","","","feedback_test"
"","","","","","psychophysics","365","728478","0.0-13.0-2.0-1.0-0.1-0.77","635","","j","","","","","","","","","","","","","key","j","16.668489795918244","768","428","f","false","img/S_ambi40.png","方形","simultaneous",""
"","","","","","html-keyboard-response","366","728783","0.0-13.0-2.0-1.0-0.1-1.77","null","<span style='color:red; font-size: 70px;'>错误! </span>","null","","","","","","","","","","","","","","","","","","","","","","","feedback_test"
"","","","","","psychophysics","367","730581","0.0-13.0-2.0-1.0-0.1-0.78","791","","j","","","","","","","","","","","","","key","j","16.668841121495248","768","428","j","true","img/C_ambi40.png","三角","simultaneous",""
"","","","","","html-keyboard-response","368","730892","0.0-13.0-2.0-1.0-0.1-1.78","null","<span style='color:GreenYellow; font-size: 70px;'>正确! </span>","null","","","","","","","","","","","","","","","","","","","","","","","feedback_test"
"","","","","","psychophysics","369","732661","0.0-13.0-2.0-1.0-0.1-0.79","583","","j","","","","","","","","","","","","","key","j","16.668190476190787","768","428","j","true","img/C_ambi40.png","方形","simultaneous",""
"","","","","","html-keyboard-response","370","732968","0.0-13.0-2.0-1.0-0.1-1.79","null","<span style='color:GreenYellow; font-size: 70px;'>正确! </span>","null","","","","","","","","","","","","","","","","","","","","","","","feedback_test"
"","","","","","psychophysics","371","735470","0.0-13.0-2.0-1.0-0.1-0.80","null","","null","","","","","","","","","","","","","key","null","16.667154362415832","768","428","j","false","img/T_ambi40.png","方形","simultaneous",""
"","","","","","html-keyboard-response","372","735782","0.0-13.0-2.0-1.0-0.1-1.80","null","<span class='add_' style='color:yellow; font-size: 70px;'> 太慢! </span>","null","","","","","","","","","","","","","","","","","","","","","","","feedback_test"
"","","","","","psychophysics","373","737449","0.0-13.0-2.0-1.0-0.1-0.81","660","","f","","","","","","","","","","","","","key","f","16.669919191918456","768","428","f","true","img/C_ambi40.png","圆形","simultaneous",""
"","","","","","html-keyboard-response","374","738079","0.0-13.0-2.0-1.0-0.1-1.81","null","<span style='color:GreenYellow; font-size: 70px;'>正确! </span>","null","","","","","","","","","","","","","","","","","","","","","","","feedback_test"
"","","","","","psychophysics","375","740165","0.0-13.0-2.0-1.0-0.1-0.82","387","","f","","","","","","","","","","","","","key","f","16.66730645161231","768","428","f","true","img/T_ambi40.png","三角","simultaneous",""
"","","","","","html-keyboard-response","376","740471","0.0-13.0-2.0-1.0-0.1-1.82","null","<span style='color:GreenYellow; font-size: 70px;'>正确! </span>","null","","","","","","","","","","","","","","","","","","","","","","","feedback_test"
"","","","","","psychophysics","377","742299","0.0-13.0-2.0-1.0-0.1-0.83","820","","f","","","","","","","","","","","","","key","f","16.668119266055687","768","428","f","true","img/C_ambi40.png","圆形","simultaneous",""
"","","","","","html-keyboard-response","378","742611","0.0-13.0-2.0-1.0-0.1-1.83","null","<span style='color:GreenYellow; font-size: 70px;'>正确! </span>","null","","","","","","","","","","","","","","","","","","","","","","","feedback_test"
"","","","","","psychophysics","379","744293","0.0-13.0-2.0-1.0-0.1-0.84","674","","j","","","","","","","","","","","","","key","j","16.668129999999657","768","428","f","false","img/S_ambi40.png","方形","simultaneous",""
"","","","","","html-keyboard-response","380","744611","0.0-13.0-2.0-1.0-0.1-1.84","null","<span style='color:red; font-size: 70px;'>错误! </span>","null","","","","","","","","","","","","","","","","","","","","","","","feedback_test"
"","","","","","psychophysics","381","746551","0.0-13.0-2.0-1.0-0.1-0.85","483","","j","","","","","","","","","","","","","key","j","16.667669565217448","768","428","j","true","img/C_ambi40.png","方形","simultaneous",""
"","","","","","html-keyboard-response","382","746878","0.0-13.0-2.0-1.0-0.1-1.85","null","<span style='color:GreenYellow; font-size: 70px;'>正确! </span>","null","","","","","","","","","","","","","","","","","","","","","","","feedback_test"
"","","","","","psychophysics","383","748943","0.0-13.0-2.0-1.0-0.1-0.86","1052","","j","","","","","","","","","","","","","key","j","16.665951219512287","768","428","j","true","img/T_ambi40.png","圆形","simultaneous",""
"","","","","","html-keyboard-response","384","749253","0.0-13.0-2.0-1.0-0.1-1.86","null","<span style='color:GreenYellow; font-size: 70px;'>正确! </span>","null","","","","","","","","","","","","","","","","","","","","","","","feedback_test"
"","","","","","psychophysics","385","751073","0.0-13.0-2.0-1.0-0.1-0.87","812","","f","","","","","","","","","","","","","key","f","16.66795370370447","768","428","f","true","img/S_ambi40.png","方形","simultaneous",""
"","","","","","html-keyboard-response","386","751377","0.0-13.0-2.0-1.0-0.1-1.87","null","<span style='color:GreenYellow; font-size: 70px;'>正确! </span>","null","","","","","","","","","","","","","","","","","","","","","","","feedback_test"
"","","","","","psychophysics","387","753442","0.0-13.0-2.0-1.0-0.1-0.88","375","","f","","","","","","","","","","","","","key","f","16.668983739837664","768","428","f","true","img/T_ambi40.png","三角","simultaneous",""
"","","","","","html-keyboard-response","388","753753","0.0-13.0-2.0-1.0-0.1-1.88","null","<span style='color:GreenYellow; font-size: 70px;'>正确! </span>","null","","","","","","","","","","","","","","","","","","","","","","","feedback_test"
"","","","","","psychophysics","389","755345","0.0-13.0-2.0-1.0-0.1-0.89","584","","f","","","","","","","","","","","","","key","f","16.666936842104615","768","428","f","true","img/T_ambi40.png","三角","simultaneous",""
"","","","","","html-keyboard-response","390","755659","0.0-13.0-2.0-1.0-0.1-1.89","null","<span style='color:GreenYellow; font-size: 70px;'>正确! </span>","null","","","","","","","","","","","","","","","","","","","","","","","feedback_test"
"","","","","","psychophysics","391","757432","0.0-13.0-2.0-1.0-0.1-0.90","765","","j","","","","","","","","","","","","","key","j","16.667752380952948","768","428","j","true","img/S_ambi40.png","三角","simultaneous",""
"","","","","","html-keyboard-response","392","757737","0.0-13.0-2.0-1.0-0.1-1.90","null","<span style='color:GreenYellow; font-size: 70px;'>正确! </span>","null","","","","","","","","","","","","","","","","","","","","","","","feedback_test"
"","","","","","psychophysics","393","759459","0.0-13.0-2.0-1.0-0.1-0.91","381","","j","","","","","","","","","","","","","key","j","16.6662352941177","768","428","j","true","img/S_ambi40.png","圆形","simultaneous",""
"","","","","","html-keyboard-response","394","759769","0.0-13.0-2.0-1.0-0.1-1.91","null","<span style='color:GreenYellow; font-size: 70px;'>正确! </span>","null","","","","","","","","","","","","","","","","","","","","","","","feedback_test"
"","","","","","psychophysics","395","761574","0.0-13.0-2.0-1.0-0.1-0.92","796","","j","","","","","","","","","","","","","key","j","16.66852336448604","768","428","j","true","img/T_ambi40.png","方形","simultaneous",""
"","","","","","html-keyboard-response","396","761879","0.0-13.0-2.0-1.0-0.1-1.92","null","<span style='color:GreenYellow; font-size: 70px;'>正确! </span>","null","","","","","","","","","","","","","","","","","","","","","","","feedback_test"
"","","","","","psychophysics","397","763498","0.0-13.0-2.0-1.0-0.1-0.93","611","","f","","","","","","","","","","","","","key","f","16.66982291666621","768","428","f","true","img/C_ambi40.png","圆形","simultaneous",""
"","","","","","html-keyboard-response","398","763801","0.0-13.0-2.0-1.0-0.1-1.93","null","<span style='color:GreenYellow; font-size: 70px;'>正确! </span>","null","","","","","","","","","","","","","","","","","","","","","","","feedback_test"
"","","","","","psychophysics","399","765315","0.0-13.0-2.0-1.0-0.1-0.94","239","","f","","","","","","","","","","","","","key","f","16.66561111111142","768","428","f","true","img/C_ambi40.png","圆形","simultaneous",""
"","","","","","html-keyboard-response","400","765629","0.0-13.0-2.0-1.0-0.1-1.94","null","<span style='color:GreenYellow; font-size: 70px;'>正确! </span>","null","","","","","","","","","","","","","","","","","","","","","","","feedback_test"
"","","","","","psychophysics","401","767306","0.0-13.0-2.0-1.0-0.1-0.95","669","","j","","","","","","","","","","","","","key","j","16.667120000000576","768","428","j","true","img/C_ambi40.png","三角","simultaneous",""
"","","","","","html-keyboard-response","402","767615","0.0-13.0-2.0-1.0-0.1-1.95","null","<span style='color:GreenYellow; font-size: 70px;'>正确! </span>","null","","","","","","","","","","","","","","","","","","","","","","","feedback_test"
"","","","","","psychophysics","403","769770","0.0-13.0-2.0-1.0-0.1-0.96","1147","","j","","","","","","","","","","","","","key","j","16.665546875000473","768","428","j","true","img/S_ambi40.png","圆形","simultaneous",""
"","","","","","html-keyboard-response","404","770083","0.0-13.0-2.0-1.0-0.1-1.96","null","<span style='color:GreenYellow; font-size: 70px;'>正确! </span>","null","","","","","","","","","","","","","","","","","","","","","","","feedback_test"
"","","","","","psychophysics","405","772082","0.0-13.0-2.0-1.0-0.1-0.97","381","","f","","","","","","","","","","","","","key","f","16.66692436974742","768","428","f","true","img/T_ambi40.png","三角","simultaneous",""
"","","","","","html-keyboard-response","406","772397","0.0-13.0-2.0-1.0-0.1-1.97","null","<span style='color:GreenYellow; font-size: 70px;'>正确! </span>","null","","","","","","","","","","","","","","","","","","","","","","","feedback_test"
"","","","","","psychophysics","407","773945","0.0-13.0-2.0-1.0-0.1-0.98","540","","f","","","","","","","","","","","","","key","f","16.6693478260865","768","428","f","true","img/T_ambi40.png","三角","simultaneous",""
"","","","","","html-keyboard-response","408","774271","0.0-13.0-2.0-1.0-0.1-1.98","null","<span style='color:GreenYellow; font-size: 70px;'>正确! </span>","null","","","","","","","","","","","","","","","","","","","","","","","feedback_test"
"","","","","","psychophysics","409","776294","0.0-13.0-2.0-1.0-0.1-0.99","1015","","f","","","","","","","","","","","","","key","f","16.66792499999962","768","428","f","true","img/C_ambi40.png","圆形","simultaneous",""
"","","","","","html-keyboard-response","410","776601","0.0-13.0-2.0-1.0-0.1-1.99","null","<span style='color:GreenYellow; font-size: 70px;'>正确! </span>","null","","","","","","","","","","","","","","","","","","","","","","","feedback_test"
"","","","","","psychophysics","411","778545","0.0-13.0-2.0-1.0-0.1-0.100","477","","f","","","","","","","","","","","","","key","f","16.66810344827586","768","428","f","true","img/S_ambi40.png","方形","simultaneous",""
"","","","","","html-keyboard-response","412","778851","0.0-13.0-2.0-1.0-0.1-1.100","null","<span style='color:GreenYellow; font-size: 70px;'>正确! </span>","null","","","","","","","","","","","","","","","","","","","","","","","feedback_test"
"","","","","","psychophysics","413","780516","0.0-13.0-2.0-1.0-0.1-0.101","658","","f","","","","","","","","","","","","","key","f","16.666585858586725","768","428","f","true","img/C_ambi40.png","圆形","simultaneous",""
"","","","","","html-keyboard-response","414","780819","0.0-13.0-2.0-1.0-0.1-1.101","null","<span style='color:GreenYellow; font-size: 70px;'>正确! </span>","null","","","","","","","","","","","","","","","","","","","","","","","feedback_test"
"","","","","","psychophysics","415","782542","0.0-13.0-2.0-1.0-0.1-0.102","715","","j","","","","","","","","","","","","","key","j","16.66756862745159","768","428","j","true","img/T_ambi40.png","圆形","simultaneous",""
"","","","","","html-keyboard-response","416","782851","0.0-13.0-2.0-1.0-0.1-1.102","null","<span style='color:GreenYellow; font-size: 70px;'>正确! </span>","null","","","","","","","","","","","","","","","","","","","","","","","feedback_test"
"","","","","","psychophysics","417","784495","0.0-13.0-2.0-1.0-0.1-0.103","426","","f","","","","","","","","","","","","","key","f","16.66245360824774","768","428","f","true","img/S_ambi40.png","方形","simultaneous",""
"","","","","","html-keyboard-response","418","784804","0.0-13.0-2.0-1.0-0.1-1.103","null","<span style='color:GreenYellow; font-size: 70px;'>正确! </span>","null","","","","","","","","","","","","","","","","","","","","","","","feedback_test"
"","","","","","psychophysics","419","786566","0.0-13.0-2.0-1.0-0.1-0.104","756","","j","","","","","","","","","","","","","key","j","16.66817142857194","768","428","j","true","img/C_ambi40.png","方形","simultaneous",""
"","","","","","html-keyboard-response","420","786867","0.0-13.0-2.0-1.0-0.1-1.104","null","<span style='color:GreenYellow; font-size: 70px;'>正确! </span>","null","","","","","","","","","","","","","","","","","","","","","","","feedback_test"
"","","","","","psychophysics","421","788711","0.0-13.0-2.0-1.0-0.1-0.105","836","","j","","","","","","","","","","","","","key","j","16.667700000000398","768","428","j","true","img/T_ambi40.png","方形","simultaneous",""
"","","","","","html-keyboard-response","422","789039","0.0-13.0-2.0-1.0-0.1-1.105","null","<span style='color:GreenYellow; font-size: 70px;'>正确! </span>","null","","","","","","","","","","","","","","","","","","","","","","","feedback_test"
"","","","","","psychophysics","423","790937","0.0-13.0-2.0-1.0-0.1-0.106","866","","f","","","","","","","","","","","","","key","f","16.666008849557183","768","428","j","false","img/S_ambi40.png","三角","simultaneous",""
"","","","","","html-keyboard-response","424","791243","0.0-13.0-2.0-1.0-0.1-1.106","null","<span style='color:red; font-size: 70px;'>错误! </span>","null","","","","","","","","","","","","","","","","","","","","","","","feedback_test"
"","","","","","psychophysics","425","793103","0.0-13.0-2.0-1.0-0.1-0.107","863","","j","","","","","","","","","","","","","key","j","16.666216216216846","768","428","j","true","img/C_ambi40.png","三角","simultaneous",""
"","","","","","html-keyboard-response","426","793404","0.0-13.0-2.0-1.0-0.1-1.107","null","<span style='color:GreenYellow; font-size: 70px;'>正确! </span>","null","","","","","","","","","","","","","","","","","","","","","","","feedback_test"
"","","","","","psychophysics","427","795064","0.0-13.0-2.0-1.0-0.1-0.108","653","","f","","","","","","","","","","","","","key","f","16.66349494949482","768","428","f","true","img/C_ambi40.png","圆形","simultaneous",""
"","","","","","html-keyboard-response","428","795388","0.0-13.0-2.0-1.0-0.1-1.108","null","<span style='color:GreenYellow; font-size: 70px;'>正确! </span>","null","","","","","","","","","","","","","","","","","","","","","","","feedback_test"
"","","","","","psychophysics","429","797298","0.0-13.0-2.0-1.0-0.1-0.109","350","","j","","","","","","","","","","","","","key","j","16.668131578947506","768","428","j","true","img/C_ambi40.png","方形","simultaneous",""
"","","","","","html-keyboard-response","430","797608","0.0-13.0-2.0-1.0-0.1-1.109","null","<span style='color:GreenYellow; font-size: 70px;'>正确! </span>","null","","","","","","","","","","","","","","","","","","","","","","","feedback_test"
"","","","","","psychophysics","431","799168","0.0-13.0-2.0-1.0-0.1-0.110","552","","j","","","","","","","","","","","","","key","j","16.66722580645063","768","428","f","false","img/S_ambi40.png","方形","simultaneous",""
"","","","","","html-keyboard-response","432","799482","0.0-13.0-2.0-1.0-0.1-1.110","null","<span style='color:red; font-size: 70px;'>错误! </span>","null","","","","","","","","","","","","","","","","","","","","","","","feedback_test"
"","","","","","psychophysics","433","801145","0.0-13.0-2.0-1.0-0.1-0.111","648","","j","","","","","","","","","","","","","key","j","16.665928571429152","768","428","j","true","img/C_ambi40.png","三角","simultaneous",""
