"success","timeout","failed_images","failed_audio","failed_video","trial_type","trial_index","time_elapsed","internal_node_id","rt","stimulus","response","value","item_width_mm","item_height_mm","item_width_px","px2mm","view_dist_mm","item_width_deg","px2deg","scale_factor","win_width_deg","win_height_deg","view_history","response_type","key_press","avg_frame_time","center_x","center_y","correct_response","correct","Image","word","condition","screen_id"
"true","false","[]","[]","[]","preload","0","13638","0.0-0.0","","","","","","","","","","","","","","","","","","","","","","","","","",""
"","","","","","html-keyboard-response","1","25000","0.0-1.0","11361","
   <p>您好，欢迎参加本次实验。</p>
   <p>为充分保障您的权利，请确保您已经知晓并同意《参与实验同意书》以及《数据公开知情同意书》。</p>
   <p>如果您未见过上述内容，请咨询实验员。</p>
   <p>如果您选择继续实验，则表示您已经清楚两份知情同意书的内容并同意。</p>
   <p> <div style = ""color: green""><按任意键至下页></div> </p>
   ","arrowdown","","","","","","","","","","","","","","","","","","","","","","",""
"","","","","","html-keyboard-response","2","27089","0.0-2.0","2081","
   <p>本实验首先需要您填写一些基本个人信息。</p>
   <p> <div style = ""color: green""><按任意键至下页></div></p>
   ","arrowdown","","","","","","","","","","","","","","","","","","","","","","",""
"","","","","","call-function","3","27090","0.0-3.0-0.0","","","","","","","","","","","","","","","","","","","","","","","","","",""
"","","","","","survey-html-form","4","32349","0.0-3.0-1.0","5259","","{""Q0"":""29""}","","","","","","","","","","","","","","","","","","","","","","",""
"","","","","","html-button-response","5","34268","0.0-3.0-2.0","1918","<p style = 'color : white'>您的性别</p>","0","","","","","","","","","","","","","","","","","","","","","","",""
"","","","","","survey-html-form","6","39986","0.0-3.0-3.0","5717","","{""Q0"":""2001""}","","","","","","","","","","","","","","","","","","","","","","",""
"","","","","","survey-html-form","7","46489","0.0-3.0-4.0","6503","","{""Q0"":""5""}","","","","","","","","","","","","","","","","","","","","","","",""
"","","","","","virtual-chinrest","8","180633","0.0-4.0","134150","","","","85.6","53.98","478.67413849124597","5.595612035603685","511.11","9.573482769824919","50","0.9024928761801082","34.56","20.54","","","","","","","","","","","",""
"true","","","","","fullscreen","9","185015","0.0-5.0","","","","","","","","","","","","","","","","","","","","","","","","","",""
"","","","","","instructions","10","289134","0.0-6.0","104125","","","","","","","","","","","","","","[{""page_index"":0,""viewing_time"":13766},{""page_index"":1,""viewing_time"":35587},{""page_index"":2,""viewing_time"":4641},{""page_index"":3,""viewing_time"":2478},{""page_index"":2,""viewing_time"":40498},{""page_index"":3,""viewing_time"":7155}]","","","","","","","","","","",""
"","","","","","psychophysics","11","291792","0.0-7.0-0.0-0.0","null","","null","","","","","","","","","","","","","key","null","33.265822784810126","864","536","f","false","img/C_ambi40.png","方形","prac_image_first",""
"","","","","","html-keyboard-response","12","292095","0.0-7.0-0.0-1.0","null","<span class='add_' style='color:yellow; font-size: 70px;'> 太慢! </span>","null","","","","","","","","","","","","","","","","","","","","","","","feedback_test"
"","","","","","psychophysics","13","294754","0.0-7.0-0.0-0.1","null","","null","","","","","","","","","","","","","key","null","33.333333333333336","864","536","f","false","img/C_ambi40.png","三角","prac_image_first",""
"","","","","","html-keyboard-response","14","295058","0.0-7.0-0.0-1.1","null","<span class='add_' style='color:yellow; font-size: 70px;'> 太慢! </span>","null","","","","","","","","","","","","","","","","","","","","","","","feedback_test"
"","","","","","psychophysics","15","297711","0.0-7.0-0.0-0.2","null","","null","","","","","","","","","","","","","key","null","33.32911392405063","864","536","f","false","img/T_ambi40.png","方形","prac_image_first",""
"","","","","","html-keyboard-response","16","298016","0.0-7.0-0.0-1.2","null","<span class='add_' style='color:yellow; font-size: 70px;'> 太慢! </span>","null","","","","","","","","","","","","","","","","","","","","","","","feedback_test"
"","","","","","psychophysics","17","299633","0.0-7.0-0.0-0.3","465","","j","","","","","","","","","","","","","key","j","33.375","864","536","j","true","img/T_ambi40.png","三角","prac_image_first",""
"","","","","","html-keyboard-response","18","299935","0.0-7.0-0.0-1.3","null","<span style='color:GreenYellow; font-size: 70px;'>正确! </span>","null","","","","","","","","","","","","","","","","","","","","","","","feedback_test"
"","","","","","psychophysics","19","301526","0.0-7.0-0.0-0.4","439","","f","","","","","","","","","","","","","key","f","33.340425531914896","864","536","j","false","img/S_ambi40.png","方形","prac_image_first",""
"","","","","","html-keyboard-response","20","301829","0.0-7.0-0.0-1.4","null","<span style='color:red; font-size: 70px;'>错误! </span>","null","","","","","","","","","","","","","","","","","","","","","","","feedback_test"
"","","","","","psychophysics","21","303469","0.0-7.0-0.0-0.5","487","","j","","","","","","","","","","","","","key","j","33.354166666666664","864","536","f","false","img/S_ambi40.png","三角","prac_image_first",""
"","","","","","html-keyboard-response","22","303774","0.0-7.0-0.0-1.5","null","<span style='color:red; font-size: 70px;'>错误! </span>","null","","","","","","","","","","","","","","","","","","","","","","","feedback_test"
"","","","","","psychophysics","23","305501","0.0-7.0-0.0-0.6","572","","f","","","","","","","","","","","","","key","f","33.333333333333336","864","536","j","false","img/S_ambi40.png","方形","prac_image_first",""
"","","","","","html-keyboard-response","24","305803","0.0-7.0-0.0-1.6","null","<span style='color:red; font-size: 70px;'>错误! </span>","null","","","","","","","","","","","","","","","","","","","","","","","feedback_test"
"","","","","","psychophysics","25","307834","0.0-7.0-0.0-0.7","876","","j","","","","","","","","","","","","","key","j","33.333333333333336","864","536","j","true","img/C_ambi40.png","圆形","prac_image_first",""
"","","","","","html-keyboard-response","26","308137","0.0-7.0-0.0-1.7","null","<span style='color:GreenYellow; font-size: 70px;'>正确! </span>","null","","","","","","","","","","","","","","","","","","","","","","","feedback_test"
"","","","","","psychophysics","27","309770","0.0-7.0-0.0-0.8","481","","j","","","","","","","","","","","","","key","j","33.333333333333336","864","536","j","true","img/T_ambi40.png","三角","prac_image_first",""
"","","","","","html-keyboard-response","28","310072","0.0-7.0-0.0-1.8","null","<span style='color:GreenYellow; font-size: 70px;'>正确! </span>","null","","","","","","","","","","","","","","","","","","","","","","","feedback_test"
"","","","","","psychophysics","29","311766","0.0-7.0-0.0-0.9","536","","j","","","","","","","","","","","","","key","j","33.326530612244895","864","536","j","true","img/C_ambi40.png","圆形","prac_image_first",""
"","","","","","html-keyboard-response","30","312069","0.0-7.0-0.0-1.9","null","<span style='color:GreenYellow; font-size: 70px;'>正确! </span>","null","","","","","","","","","","","","","","","","","","","","","","","feedback_test"
"","","","","","psychophysics","31","313938","0.0-7.0-0.0-0.10","715","","f","","","","","","","","","","","","","key","f","33.345454545454544","864","536","f","true","img/T_ambi40.png","圆形","prac_image_first",""
"","","","","","html-keyboard-response","32","314242","0.0-7.0-0.0-1.10","null","<span style='color:GreenYellow; font-size: 70px;'>正确! </span>","null","","","","","","","","","","","","","","","","","","","","","","","feedback_test"
"","","","","","psychophysics","33","316340","0.0-7.0-0.0-0.11","943","","f","","","","","","","","","","","","","key","f","33.33870967741935","864","536","f","true","img/S_ambi40.png","圆形","prac_image_first",""
"","","","","","html-keyboard-response","34","316642","0.0-7.0-0.0-1.11","null","<span style='color:GreenYellow; font-size: 70px;'>正确! </span>","null","","","","","","","","","","","","","","","","","","","","","","","feedback_test"
"","","","","","psychophysics","35","318545","0.0-7.0-0.0-0.12","748","","j","","","","","","","","","","","","","key","j","33.339285714285715","864","536","j","true","img/C_ambi40.png","圆形","prac_image_first",""
"","","","","","html-keyboard-response","36","318848","0.0-7.0-0.0-1.12","null","<span style='color:GreenYellow; font-size: 70px;'>正确! </span>","null","","","","","","","","","","","","","","","","","","","","","","","feedback_test"
"","","","","","psychophysics","37","320899","0.0-7.0-0.0-0.13","898","","j","","","","","","","","","","","","","key","j","33.31147540983606","864","536","j","true","img/S_ambi40.png","方形","prac_image_first",""
"","","","","","html-keyboard-response","38","321201","0.0-7.0-0.0-1.13","null","<span style='color:GreenYellow; font-size: 70px;'>正确! </span>","null","","","","","","","","","","","","","","","","","","","","","","","feedback_test"
"","","","","","psychophysics","39","323062","0.0-7.0-0.0-0.14","709","","f","","","","","","","","","","","","","key","f","33.36363636363637","864","536","f","true","img/T_ambi40.png","方形","prac_image_first",""
"","","","","","html-keyboard-response","40","323364","0.0-7.0-0.0-1.14","null","<span style='color:GreenYellow; font-size: 70px;'>正确! </span>","null","","","","","","","","","","","","","","","","","","","","","","","feedback_test"
"","","","","","psychophysics","41","325114","0.0-7.0-0.0-0.15","597","","j","","","","","","","","","","","","","key","j","33.529411764705884","864","536","f","false","img/C_ambi40.png","方形","prac_image_first",""
"","","","","","html-keyboard-response","42","325416","0.0-7.0-0.0-1.15","null","<span style='color:red; font-size: 70px;'>错误! </span>","null","","","","","","","","","","","","","","","","","","","","","","","feedback_test"
"","","","","","psychophysics","43","326994","0.0-7.0-0.0-0.16","426","","j","","","","","","","","","","","","","key","j","33.32608695652174","864","536","j","true","img/T_ambi40.png","三角","prac_image_first",""
"","","","","","html-keyboard-response","44","327297","0.0-7.0-0.0-1.16","null","<span style='color:GreenYellow; font-size: 70px;'>正确! </span>","null","","","","","","","","","","","","","","","","","","","","","","","feedback_test"
"","","","","","psychophysics","45","329341","0.0-7.0-0.0-0.17","889","","j","","","","","","","","","","","","","key","j","33.32786885245902","864","536","f","false","img/S_ambi40.png","三角","prac_image_first",""
"","","","","","html-keyboard-response","46","329643","0.0-7.0-0.0-1.17","null","<span style='color:red; font-size: 70px;'>错误! </span>","null","","","","","","","","","","","","","","","","","","","","","","","feedback_test"
"","","","","","psychophysics","47","331639","0.0-7.0-0.0-0.18","844","","f","","","","","","","","","","","","","key","f","33.33898305084746","864","536","f","true","img/C_ambi40.png","三角","prac_image_first",""
"","","","","","html-keyboard-response","48","331941","0.0-7.0-0.0-1.18","null","<span style='color:GreenYellow; font-size: 70px;'>正确! </span>","null","","","","","","","","","","","","","","","","","","","","","","","feedback_test"
"","","","","","psychophysics","49","333805","0.0-7.0-0.0-0.19","711","","j","","","","","","","","","","","","","key","j","33.30909090909091","864","536","j","true","img/T_ambi40.png","三角","prac_image_first",""
"","","","","","html-keyboard-response","50","334109","0.0-7.0-0.0-1.19","null","<span style='color:GreenYellow; font-size: 70px;'>正确! </span>","null","","","","","","","","","","","","","","","","","","","","","","","feedback_test"
"","","","","","psychophysics","51","336094","0.0-7.0-0.0-0.20","832","","j","","","","","","","","","","","","","key","j","33.33898305084746","864","536","f","false","img/T_ambi40.png","圆形","prac_image_first",""
"","","","","","html-keyboard-response","52","336396","0.0-7.0-0.0-1.20","null","<span style='color:red; font-size: 70px;'>错误! </span>","null","","","","","","","","","","","","","","","","","","","","","","","feedback_test"
"","","","","","psychophysics","53","338194","0.0-7.0-0.0-0.21","643","","j","","","","","","","","","","","","","key","j","33.32692307692308","864","536","f","false","img/S_ambi40.png","圆形","prac_image_first",""
"","","","","","html-keyboard-response","54","338497","0.0-7.0-0.0-1.21","null","<span style='color:red; font-size: 70px;'>错误! </span>","null","","","","","","","","","","","","","","","","","","","","","","","feedback_test"
"","","","","","psychophysics","55","340232","0.0-7.0-0.0-0.22","583","","j","","","","","","","","","","","","","key","j","33.35294117647059","864","536","j","true","img/C_ambi40.png","圆形","prac_image_first",""
"","","","","","html-keyboard-response","56","340534","0.0-7.0-0.0-1.22","null","<span style='color:GreenYellow; font-size: 70px;'>正确! </span>","null","","","","","","","","","","","","","","","","","","","","","","","feedback_test"
"","","","","","psychophysics","57","342620","0.0-7.0-0.0-0.23","931","","j","","","","","","","","","","","","","key","j","33.33870967741935","864","536","j","true","img/S_ambi40.png","方形","prac_image_first",""
"","","","","","html-keyboard-response","58","342923","0.0-7.0-0.0-1.23","null","<span style='color:GreenYellow; font-size: 70px;'>正确! </span>","null","","","","","","","","","","","","","","","","","","","","","","","feedback_test"
"","","","","","html-keyboard-response","59","352579","0.0-7.0-1.0-0.0","9652","<style>.context{color:white; font-size: 35px; line-height:40px}</style>                            <div><p class='context'>您正确回答了58% 的试次。</p><p class='context'>您的平均反应时为705毫秒。</p>","j","","","","","","","","","","","","","","","","","","","","","","",""
"","","","","","instructions","60","361905","0.0-7.0-1.0-1.0","9325","","","","","","","","","","","","","","[{""page_index"":0,""viewing_time"":2219},{""page_index"":1,""viewing_time"":4021},{""page_index"":2,""viewing_time"":3085}]","","","","","","","","","","",""
"","","","","","psychophysics","61","363647","0.0-7.1-0.1-0.24","589","","j","","","","","","","","","","","","","key","j","33.32692307692308","864","536","j","true","img/C_ambi40.png","圆形","prac_image_first",""
"","","","","","html-keyboard-response","62","363950","0.0-7.1-0.1-1.24","null","<span style='color:GreenYellow; font-size: 70px;'>正确! </span>","null","","","","","","","","","","","","","","","","","","","","","","","feedback_test"
"","","","","","psychophysics","63","365657","0.0-7.1-0.1-0.25","553","","j","","","","","","","","","","","","","key","j","33.34","864","536","j","true","img/T_ambi40.png","三角","prac_image_first",""
"","","","","","html-keyboard-response","64","365959","0.0-7.1-0.1-1.25","null","<span style='color:GreenYellow; font-size: 70px;'>正确! </span>","null","","","","","","","","","","","","","","","","","","","","","","","feedback_test"
"","","","","","psychophysics","65","367561","0.0-7.1-0.1-0.26","449","","j","","","","","","","","","","","","","key","j","33.340425531914896","864","536","j","true","img/S_ambi40.png","方形","prac_image_first",""
"","","","","","html-keyboard-response","66","367863","0.0-7.1-0.1-1.26","null","<span style='color:GreenYellow; font-size: 70px;'>正确! </span>","null","","","","","","","","","","","","","","","","","","","","","","","feedback_test"
"","","","","","psychophysics","67","369485","0.0-7.1-0.1-0.27","469","","j","","","","","","","","","","","","","key","j","33.340425531914896","864","536","j","true","img/C_ambi40.png","圆形","prac_image_first",""
"","","","","","html-keyboard-response","68","369788","0.0-7.1-0.1-1.27","null","<span style='color:GreenYellow; font-size: 70px;'>正确! </span>","null","","","","","","","","","","","","","","","","","","","","","","","feedback_test"
"","","","","","psychophysics","69","371625","0.0-7.1-0.1-0.28","684","","f","","","","","","","","","","","","","key","f","33.351851851851855","864","536","f","true","img/S_ambi40.png","圆形","prac_image_first",""
"","","","","","html-keyboard-response","70","371927","0.0-7.1-0.1-1.28","null","<span style='color:GreenYellow; font-size: 70px;'>正确! </span>","null","","","","","","","","","","","","","","","","","","","","","","","feedback_test"
"","","","","","psychophysics","71","373939","0.0-7.1-0.1-0.29","854","","f","","","","","","","","","","","","","key","f","33.355932203389834","864","536","f","true","img/C_ambi40.png","方形","prac_image_first",""
"","","","","","html-keyboard-response","72","374243","0.0-7.1-0.1-1.29","null","<span style='color:GreenYellow; font-size: 70px;'>正确! </span>","null","","","","","","","","","","","","","","","","","","","","","","","feedback_test"
"","","","","","psychophysics","73","375930","0.0-7.1-0.1-0.30","534","","j","","","","","","","","","","","","","key","j","33.34","864","536","f","false","img/S_ambi40.png","三角","prac_image_first",""
"","","","","","html-keyboard-response","74","376233","0.0-7.1-0.1-1.30","null","<span style='color:red; font-size: 70px;'>错误! </span>","null","","","","","","","","","","","","","","","","","","","","","","","feedback_test"
"","","","","","psychophysics","75","377853","0.0-7.1-0.1-0.31","468","","j","","","","","","","","","","","","","key","j","33.354166666666664","864","536","j","true","img/T_ambi40.png","三角","prac_image_first",""
"","","","","","html-keyboard-response","76","378156","0.0-7.1-0.1-1.31","null","<span style='color:GreenYellow; font-size: 70px;'>正确! </span>","null","","","","","","","","","","","","","","","","","","","","","","","feedback_test"
"","","","","","psychophysics","77","380101","0.0-7.1-0.1-0.32","790","","f","","","","","","","","","","","","","key","f","33.3448275862069","864","536","j","false","img/S_ambi40.png","方形","prac_image_first",""
"","","","","","html-keyboard-response","78","380404","0.0-7.1-0.1-1.32","null","<span style='color:red; font-size: 70px;'>错误! </span>","null","","","","","","","","","","","","","","","","","","","","","","","feedback_test"
"","","","","","psychophysics","79","382403","0.0-7.1-0.1-0.33","840","","j","","","","","","","","","","","","","key","j","33.3448275862069","864","536","f","false","img/T_ambi40.png","圆形","prac_image_first",""
"","","","","","html-keyboard-response","80","382705","0.0-7.1-0.1-1.33","null","<span style='color:red; font-size: 70px;'>错误! </span>","null","","","","","","","","","","","","","","","","","","","","","","","feedback_test"
"","","","","","psychophysics","81","384633","0.0-7.1-0.1-0.34","776","","f","","","","","","","","","","","","","key","f","33.333333333333336","864","536","f","true","img/T_ambi40.png","方形","prac_image_first",""
"","","","","","html-keyboard-response","82","384934","0.0-7.1-0.1-1.34","null","<span style='color:GreenYellow; font-size: 70px;'>正确! </span>","null","","","","","","","","","","","","","","","","","","","","","","","feedback_test"
"","","","","","psychophysics","83","386776","0.0-7.1-0.1-0.35","690","","f","","","","","","","","","","","","","key","f","33.36363636363637","864","536","f","true","img/C_ambi40.png","三角","prac_image_first",""
"","","","","","html-keyboard-response","84","387079","0.0-7.1-0.1-1.35","null","<span style='color:GreenYellow; font-size: 70px;'>正确! </span>","null","","","","","","","","","","","","","","","","","","","","","","","feedback_test"
"","","","","","psychophysics","85","388878","0.0-7.1-0.1-0.36","646","","j","","","","","","","","","","","","","key","j","33.339622641509436","864","536","j","true","img/C_ambi40.png","圆形","prac_image_first",""
"","","","","","html-keyboard-response","86","389184","0.0-7.1-0.1-1.36","null","<span style='color:GreenYellow; font-size: 70px;'>正确! </span>","null","","","","","","","","","","","","","","","","","","","","","","","feedback_test"
"","","","","","psychophysics","87","391079","0.0-7.1-0.1-0.37","742","","j","","","","","","","","","","","","","key","j","33.30357142857143","864","536","j","true","img/T_ambi40.png","三角","prac_image_first",""
"","","","","","html-keyboard-response","88","391382","0.0-7.1-0.1-1.37","null","<span style='color:GreenYellow; font-size: 70px;'>正确! </span>","null","","","","","","","","","","","","","","","","","","","","","","","feedback_test"
"","","","","","psychophysics","89","393092","0.0-7.1-0.1-0.38","556","","j","","","","","","","","","","","","","key","j","33.333333333333336","864","536","j","true","img/T_ambi40.png","三角","prac_image_first",""
"","","","","","html-keyboard-response","90","393395","0.0-7.1-0.1-1.38","null","<span style='color:GreenYellow; font-size: 70px;'>正确! </span>","null","","","","","","","","","","","","","","","","","","","","","","","feedback_test"
"","","","","","psychophysics","91","395085","0.0-7.1-0.1-0.39","535","","j","","","","","","","","","","","","","key","j","33.265306122448976","864","536","f","false","img/S_ambi40.png","三角","prac_image_first",""
"","","","","","html-keyboard-response","92","395387","0.0-7.1-0.1-1.39","null","<span style='color:red; font-size: 70px;'>错误! </span>","null","","","","","","","","","","","","","","","","","","","","","","","feedback_test"
"","","","","","psychophysics","93","397319","0.0-7.1-0.1-0.40","779","","f","","","","","","","","","","","","","key","f","33.36842105263158","864","536","f","true","img/T_ambi40.png","方形","prac_image_first",""
"","","","","","html-keyboard-response","94","397621","0.0-7.1-0.1-1.40","null","<span style='color:GreenYellow; font-size: 70px;'>正确! </span>","null","","","","","","","","","","","","","","","","","","","","","","","feedback_test"
"","","","","","psychophysics","95","400037","0.0-7.1-0.1-0.41","1262","","j","","","","","","","","","","","","","key","j","33.34722222222222","864","536","j","true","img/S_ambi40.png","方形","prac_image_first",""
"","","","","","html-keyboard-response","96","400340","0.0-7.1-0.1-1.41","null","<span style='color:GreenYellow; font-size: 70px;'>正确! </span>","null","","","","","","","","","","","","","","","","","","","","","","","feedback_test"
"","","","","","psychophysics","97","402210","0.0-7.1-0.1-0.42","716","","f","","","","","","","","","","","","","key","f","33.345454545454544","864","536","f","true","img/T_ambi40.png","圆形","prac_image_first",""
"","","","","","html-keyboard-response","98","402512","0.0-7.1-0.1-1.42","null","<span style='color:GreenYellow; font-size: 70px;'>正确! </span>","null","","","","","","","","","","","","","","","","","","","","","","","feedback_test"
"","","","","","psychophysics","99","404519","0.0-7.1-0.1-0.43","855","","f","","","","","","","","","","","","","key","f","33.32203389830509","864","536","f","true","img/C_ambi40.png","三角","prac_image_first",""
"","","","","","html-keyboard-response","100","404820","0.0-7.1-0.1-1.43","null","<span style='color:GreenYellow; font-size: 70px;'>正确! </span>","null","","","","","","","","","","","","","","","","","","","","","","","feedback_test"
"","","","","","psychophysics","101","406576","0.0-7.1-0.1-0.44","605","","f","","","","","","","","","","","","","key","f","33.32692307692308","864","536","f","true","img/C_ambi40.png","方形","prac_image_first",""
"","","","","","html-keyboard-response","102","406878","0.0-7.1-0.1-1.44","null","<span style='color:GreenYellow; font-size: 70px;'>正确! </span>","null","","","","","","","","","","","","","","","","","","","","","","","feedback_test"
"","","","","","psychophysics","103","408615","0.0-7.1-0.1-0.45","580","","j","","","","","","","","","","","","","key","j","33.333333333333336","864","536","j","true","img/C_ambi40.png","圆形","prac_image_first",""
"","","","","","html-keyboard-response","104","408918","0.0-7.1-0.1-1.45","null","<span style='color:GreenYellow; font-size: 70px;'>正确! </span>","null","","","","","","","","","","","","","","","","","","","","","","","feedback_test"
"","","","","","psychophysics","105","410625","0.0-7.1-0.1-0.46","553","","f","","","","","","","","","","","","","key","f","33.34","864","536","j","false","img/S_ambi40.png","方形","prac_image_first",""
"","","","","","html-keyboard-response","106","410928","0.0-7.1-0.1-1.46","null","<span style='color:red; font-size: 70px;'>错误! </span>","null","","","","","","","","","","","","","","","","","","","","","","","feedback_test"
"","","","","","psychophysics","107","412979","0.0-7.1-0.1-0.47","898","","f","","","","","","","","","","","","","key","f","33.34426229508197","864","536","f","true","img/S_ambi40.png","圆形","prac_image_first",""
"","","","","","html-keyboard-response","108","413280","0.0-7.1-0.1-1.47","null","<span style='color:GreenYellow; font-size: 70px;'>正确! </span>","null","","","","","","","","","","","","","","","","","","","","","","","feedback_test"
"","","","","","html-keyboard-response","109","420959","0.0-8.0","7676","<style>.context{color:white; font-size: 35px; line-height:40px}</style>                            <div><p class='context'>您正确回答了79% 的试次。</p><p class='context'>您的平均反应时为693毫秒。</p><p class='context'>恭喜您完成这一阶段的练习。按任意键进入<span style='color: yellow;'>先文字后图形条件</span>的练习。</p></div>","j","","","","","","","","","","","","","","","","","","","","","","",""
"","","","","","psychophysics","110","423060","0.0-9.0-0.0-0.0","947","","f","","","","","","","","","","","","","key","f","33.32258064516129","864","536","f","true","img/C_ambi40.png","三角","prac_word_first",""
"","","","","","html-keyboard-response","111","423364","0.0-9.0-0.0-1.0","null","<span style='color:GreenYellow; font-size: 70px;'>正确! </span>","null","","","","","","","","","","","","","","","","","","","","","","","feedback_test"
"","","","","","psychophysics","112","425610","0.0-9.0-0.0-0.1","1091","","f","","","","","","","","","","","","","key","f","33.38805970149254","864","536","f","true","img/T_ambi40.png","圆形","prac_word_first",""
"","","","","","html-keyboard-response","113","425913","0.0-9.0-0.0-1.1","null","<span style='color:GreenYellow; font-size: 70px;'>正确! </span>","null","","","","","","","","","","","","","","","","","","","","","","","feedback_test"
"","","","","","psychophysics","114","428251","0.0-9.0-0.0-0.2","1182","","j","","","","","","","","","","","","","key","j","33.338235294117645","864","536","j","true","img/S_ambi40.png","方形","prac_word_first",""
"","","","","","html-keyboard-response","115","428552","0.0-9.0-0.0-1.2","null","<span style='color:GreenYellow; font-size: 70px;'>正确! </span>","null","","","","","","","","","","","","","","","","","","","","","","","feedback_test"
"","","","","","psychophysics","116","430682","0.0-9.0-0.0-0.3","975","","f","","","","","","","","","","","","","key","f","33.34920634920635","864","536","f","true","img/S_ambi40.png","三角","prac_word_first",""
"","","","","","html-keyboard-response","117","430984","0.0-9.0-0.0-1.3","null","<span style='color:GreenYellow; font-size: 70px;'>正确! </span>","null","","","","","","","","","","","","","","","","","","","","","","","feedback_test"
"","","","","","psychophysics","118","432673","0.0-9.0-0.0-0.4","534","","j","","","","","","","","","","","","","key","j","33.3","864","536","j","true","img/C_ambi40.png","圆形","prac_word_first",""
"","","","","","html-keyboard-response","119","432975","0.0-9.0-0.0-1.4","null","<span style='color:GreenYellow; font-size: 70px;'>正确! </span>","null","","","","","","","","","","","","","","","","","","","","","","","feedback_test"
"","","","","","psychophysics","120","435031","0.0-9.0-0.0-0.5","903","","j","","","","","","","","","","","","","key","j","33.34426229508197","864","536","j","true","img/T_ambi40.png","三角","prac_word_first",""
"","","","","","html-keyboard-response","121","435334","0.0-9.0-0.0-1.5","null","<span style='color:GreenYellow; font-size: 70px;'>正确! </span>","null","","","","","","","","","","","","","","","","","","","","","","","feedback_test"
"","","","","","psychophysics","122","437207","0.0-9.0-0.0-0.6","721","","f","","","","","","","","","","","","","key","f","33.32727272727273","864","536","f","true","img/S_ambi40.png","圆形","prac_word_first",""
"","","","","","html-keyboard-response","123","437509","0.0-9.0-0.0-1.6","null","<span style='color:GreenYellow; font-size: 70px;'>正确! </span>","null","","","","","","","","","","","","","","","","","","","","","","","feedback_test"
"","","","","","psychophysics","124","439770","0.0-9.0-0.0-0.7","1108","","f","","","","","","","","","","","","","key","f","33.32835820895522","864","536","f","true","img/T_ambi40.png","方形","prac_word_first",""
"","","","","","html-keyboard-response","125","440072","0.0-9.0-0.0-1.7","null","<span style='color:GreenYellow; font-size: 70px;'>正确! </span>","null","","","","","","","","","","","","","","","","","","","","","","","feedback_test"
"","","","","","psychophysics","126","441838","0.0-9.0-0.0-0.8","613","","j","","","","","","","","","","","","","key","j","33.333333333333336","864","536","j","true","img/S_ambi40.png","方形","prac_word_first",""
"","","","","","html-keyboard-response","127","442141","0.0-9.0-0.0-1.8","null","<span style='color:GreenYellow; font-size: 70px;'>正确! </span>","null","","","","","","","","","","","","","","","","","","","","","","","feedback_test"
"","","","","","psychophysics","128","444183","0.0-9.0-0.0-0.9","886","","j","","","","","","","","","","","","","key","j","33.333333333333336","864","536","j","true","img/T_ambi40.png","三角","prac_word_first",""
"","","","","","html-keyboard-response","129","444485","0.0-9.0-0.0-1.9","null","<span style='color:GreenYellow; font-size: 70px;'>正确! </span>","null","","","","","","","","","","","","","","","","","","","","","","","feedback_test"
"","","","","","psychophysics","130","446307","0.0-9.0-0.0-0.10","667","","j","","","","","","","","","","","","","key","j","33.351851851851855","864","536","j","true","img/C_ambi40.png","圆形","prac_word_first",""
"","","","","","html-keyboard-response","131","446609","0.0-9.0-0.0-1.10","null","<span style='color:GreenYellow; font-size: 70px;'>正确! </span>","null","","","","","","","","","","","","","","","","","","","","","","","feedback_test"
"","","","","","psychophysics","132","448605","0.0-9.0-0.0-0.11","843","","f","","","","","","","","","","","","","key","f","33.327586206896555","864","536","f","true","img/C_ambi40.png","方形","prac_word_first",""
"","","","","","html-keyboard-response","133","448907","0.0-9.0-0.0-1.11","null","<span style='color:GreenYellow; font-size: 70px;'>正确! </span>","null","","","","","","","","","","","","","","","","","","","","","","","feedback_test"
"","","","","","psychophysics","134","450765","0.0-9.0-0.0-0.12","705","","j","","","","","","","","","","","","","key","j","33.345454545454544","864","536","f","false","img/S_ambi40.png","圆形","prac_word_first",""
"","","","","","html-keyboard-response","135","451068","0.0-9.0-0.0-1.12","null","<span style='color:red; font-size: 70px;'>错误! </span>","null","","","","","","","","","","","","","","","","","","","","","","","feedback_test"
"","","","","","psychophysics","136","453214","0.0-9.0-0.0-0.13","991","","f","","","","","","","","","","","","","key","f","33.34375","864","536","f","true","img/C_ambi40.png","方形","prac_word_first",""
"","","","","","html-keyboard-response","137","453516","0.0-9.0-0.0-1.13","null","<span style='color:GreenYellow; font-size: 70px;'>正确! </span>","null","","","","","","","","","","","","","","","","","","","","","","","feedback_test"
"","","","","","psychophysics","138","455416","0.0-9.0-0.0-0.14","746","","j","","","","","","","","","","","","","key","j","33.345454545454544","864","536","j","true","img/S_ambi40.png","方形","prac_word_first",""
"","","","","","html-keyboard-response","139","455717","0.0-9.0-0.0-1.14","null","<span style='color:GreenYellow; font-size: 70px;'>正确! </span>","null","","","","","","","","","","","","","","","","","","","","","","","feedback_test"
"","","","","","psychophysics","140","457610","0.0-9.0-0.0-0.15","739","","j","","","","","","","","","","","","","key","j","33.285714285714285","864","536","j","true","img/C_ambi40.png","圆形","prac_word_first",""
"","","","","","html-keyboard-response","141","457912","0.0-9.0-0.0-1.15","null","<span style='color:GreenYellow; font-size: 70px;'>正确! </span>","null","","","","","","","","","","","","","","","","","","","","","","","feedback_test"
"","","","","","psychophysics","142","459809","0.0-9.0-0.0-0.16","744","","j","","","","","","","","","","","","","key","j","33.32142857142857","864","536","j","true","img/S_ambi40.png","方形","prac_word_first",""
"","","","","","html-keyboard-response","143","460112","0.0-9.0-0.0-1.16","null","<span style='color:GreenYellow; font-size: 70px;'>正确! </span>","null","","","","","","","","","","","","","","","","","","","","","","","feedback_test"
"","","","","","psychophysics","144","461968","0.0-9.0-0.0-0.17","703","","f","","","","","","","","","","","","","key","f","33.345454545454544","864","536","f","true","img/T_ambi40.png","方形","prac_word_first",""
"","","","","","html-keyboard-response","145","462271","0.0-9.0-0.0-1.17","null","<span style='color:GreenYellow; font-size: 70px;'>正确! </span>","null","","","","","","","","","","","","","","","","","","","","","","","feedback_test"
"","","","","","psychophysics","146","463995","0.0-9.0-0.0-0.18","570","","j","","","","","","","","","","","","","key","j","33.333333333333336","864","536","j","true","img/C_ambi40.png","圆形","prac_word_first",""
"","","","","","html-keyboard-response","147","464298","0.0-9.0-0.0-1.18","null","<span style='color:GreenYellow; font-size: 70px;'>正确! </span>","null","","","","","","","","","","","","","","","","","","","","","","","feedback_test"
"","","","","","psychophysics","148","466260","0.0-9.0-0.0-0.19","810","","f","","","","","","","","","","","","","key","f","33.333333333333336","864","536","f","true","img/T_ambi40.png","圆形","prac_word_first",""
"","","","","","html-keyboard-response","149","466562","0.0-9.0-0.0-1.19","null","<span style='color:GreenYellow; font-size: 70px;'>正确! </span>","null","","","","","","","","","","","","","","","","","","","","","","","feedback_test"
"","","","","","psychophysics","150","468524","0.0-9.0-0.0-0.20","808","","f","","","","","","","","","","","","","key","f","33.327586206896555","864","536","f","true","img/S_ambi40.png","三角","prac_word_first",""
"","","","","","html-keyboard-response","151","468826","0.0-9.0-0.0-1.20","null","<span style='color:GreenYellow; font-size: 70px;'>正确! </span>","null","","","","","","","","","","","","","","","","","","","","","","","feedback_test"
"","","","","","psychophysics","152","470620","0.0-9.0-0.0-0.21","641","","j","","","","","","","","","","","","","key","j","33.320754716981135","864","536","j","true","img/T_ambi40.png","三角","prac_word_first",""
"","","","","","html-keyboard-response","153","470926","0.0-9.0-0.0-1.21","null","<span style='color:GreenYellow; font-size: 70px;'>正确! </span>","null","","","","","","","","","","","","","","","","","","","","","","","feedback_test"
"","","","","","psychophysics","154","472738","0.0-9.0-0.0-0.22","660","","j","","","","","","","","","","","","","key","j","33.351851851851855","864","536","j","true","img/T_ambi40.png","三角","prac_word_first",""
"","","","","","html-keyboard-response","155","473041","0.0-9.0-0.0-1.22","null","<span style='color:GreenYellow; font-size: 70px;'>正确! </span>","null","","","","","","","","","","","","","","","","","","","","","","","feedback_test"
"","","","","","psychophysics","156","474865","0.0-9.0-0.0-0.23","671","","f","","","","","","","","","","","","","key","f","33.333333333333336","864","536","f","true","img/C_ambi40.png","三角","prac_word_first",""
"","","","","","html-keyboard-response","157","475166","0.0-9.0-0.0-1.23","null","<span style='color:GreenYellow; font-size: 70px;'>正确! </span>","null","","","","","","","","","","","","","","","","","","","","","","","feedback_test"
"","","","","","html-keyboard-response","158","481782","0.0-10.0","6612","<style>.context{color:white; font-size: 35px; line-height:40px}</style>                            <div><p class='context'>您正确回答了96% 的试次。</p><p class='context'>您的平均反应时为807毫秒。</p><p class='context'>恭喜您完成练习。按任意键进入<span style='color: yellow;'>图形和文字同时呈现条件</span>的练习。</p></div>","j","","","","","","","","","","","","","","","","","","","","","","",""
"","","","","","psychophysics","159","483313","0.0-11.0-0.0-0.0","527","","j","","","","","","","","","","","","","key","j","33.333333333333336","864","536","f","false","img/S_ambi40.png","三角","prac_simultaneous",""
"","","","","","html-keyboard-response","160","483614","0.0-11.0-0.0-1.0","null","<span style='color:red; font-size: 70px;'>错误! </span>","null","","","","","","","","","","","","","","","","","","","","","","","feedback_test"
"","","","","","psychophysics","161","485290","0.0-11.0-0.0-0.1","673","","j","","","","","","","","","","","","","key","j","33.326530612244895","864","536","j","true","img/C_ambi40.png","圆形","prac_simultaneous",""
"","","","","","html-keyboard-response","162","485592","0.0-11.0-0.0-1.1","null","<span style='color:GreenYellow; font-size: 70px;'>正确! </span>","null","","","","","","","","","","","","","","","","","","","","","","","feedback_test"
"","","","","","psychophysics","163","487319","0.0-11.0-0.0-0.2","723","","f","","","","","","","","","","","","","key","f","33.333333333333336","864","536","f","true","img/C_ambi40.png","三角","prac_simultaneous",""
"","","","","","html-keyboard-response","164","487621","0.0-11.0-0.0-1.2","null","<span style='color:GreenYellow; font-size: 70px;'>正确! </span>","null","","","","","","","","","","","","","","","","","","","","","","","feedback_test"
"","","","","","psychophysics","165","489677","0.0-11.0-0.0-0.3","1053","","f","","","","","","","","","","","","","key","f","33.32786885245902","864","536","f","true","img/S_ambi40.png","圆形","prac_simultaneous",""
"","","","","","html-keyboard-response","166","489980","0.0-11.0-0.0-1.3","null","<span style='color:GreenYellow; font-size: 70px;'>正确! </span>","null","","","","","","","","","","","","","","","","","","","","","","","feedback_test"
"","","","","","psychophysics","167","491862","0.0-11.0-0.0-0.4","878","","j","","","","","","","","","","","","","key","j","33.32727272727273","864","536","j","true","img/S_ambi40.png","方形","prac_simultaneous",""
"","","","","","html-keyboard-response","168","492164","0.0-11.0-0.0-1.4","null","<span style='color:GreenYellow; font-size: 70px;'>正确! </span>","null","","","","","","","","","","","","","","","","","","","","","","","feedback_test"
"","","","","","psychophysics","169","494057","0.0-11.0-0.0-0.5","890","","f","","","","","","","","","","","","","key","f","33.345454545454544","864","536","f","true","img/C_ambi40.png","方形","prac_simultaneous",""
"","","","","","html-keyboard-response","170","494359","0.0-11.0-0.0-1.5","null","<span style='color:GreenYellow; font-size: 70px;'>正确! </span>","null","","","","","","","","","","","","","","","","","","","","","","","feedback_test"
"","","","","","psychophysics","171","496393","0.0-11.0-0.0-0.6","1028","","f","","","","","","","","","","","","","key","f","33.333333333333336","864","536","f","true","img/T_ambi40.png","圆形","prac_simultaneous",""
"","","","","","html-keyboard-response","172","496696","0.0-11.0-0.0-1.6","null","<span style='color:GreenYellow; font-size: 70px;'>正确! </span>","null","","","","","","","","","","","","","","","","","","","","","","","feedback_test"
"","","","","","psychophysics","173","498630","0.0-11.0-0.0-0.7","932","","f","","","","","","","","","","","","","key","f","33.31578947368421","864","536","f","true","img/T_ambi40.png","方形","prac_simultaneous",""
"","","","","","html-keyboard-response","174","498932","0.0-11.0-0.0-1.7","null","<span style='color:GreenYellow; font-size: 70px;'>正确! </span>","null","","","","","","","","","","","","","","","","","","","","","","","feedback_test"
"","","","","","psychophysics","175","500865","0.0-11.0-0.0-0.8","930","","j","","","","","","","","","","","","","key","j","33.35087719298246","864","536","j","true","img/T_ambi40.png","三角","prac_simultaneous",""
"","","","","","html-keyboard-response","176","501169","0.0-11.0-0.0-1.8","null","<span style='color:GreenYellow; font-size: 70px;'>正确! </span>","null","","","","","","","","","","","","","","","","","","","","","","","feedback_test"
"","","","","","psychophysics","177","502886","0.0-11.0-0.0-0.9","713","","j","","","","","","","","","","","","","key","j","33.333333333333336","864","536","j","true","img/T_ambi40.png","三角","prac_simultaneous",""
"","","","","","html-keyboard-response","178","503189","0.0-11.0-0.0-1.9","null","<span style='color:GreenYellow; font-size: 70px;'>正确! </span>","null","","","","","","","","","","","","","","","","","","","","","","","feedback_test"
"","","","","","psychophysics","179","505106","0.0-11.0-0.0-0.10","915","","j","","","","","","","","","","","","","key","j","33.339285714285715","864","536","j","true","img/S_ambi40.png","方形","prac_simultaneous",""
"","","","","","html-keyboard-response","180","505410","0.0-11.0-0.0-1.10","null","<span style='color:GreenYellow; font-size: 70px;'>正确! </span>","null","","","","","","","","","","","","","","","","","","","","","","","feedback_test"
"","","","","","psychophysics","181","507116","0.0-11.0-0.0-0.11","703","","j","","","","","","","","","","","","","key","j","33.32","864","536","j","true","img/C_ambi40.png","圆形","prac_simultaneous",""
"","","","","","html-keyboard-response","182","507419","0.0-11.0-0.0-1.11","null","<span style='color:GreenYellow; font-size: 70px;'>正确! </span>","null","","","","","","","","","","","","","","","","","","","","","","","feedback_test"
"","","","","","psychophysics","183","509333","0.0-11.0-0.0-0.12","910","","f","","","","","","","","","","","","","key","f","33.29824561403509","864","536","f","true","img/S_ambi40.png","圆形","prac_simultaneous",""
"","","","","","html-keyboard-response","184","509636","0.0-11.0-0.0-1.12","null","<span style='color:GreenYellow; font-size: 70px;'>正确! </span>","null","","","","","","","","","","","","","","","","","","","","","","","feedback_test"
"","","","","","psychophysics","185","511271","0.0-11.0-0.0-0.13","634","","j","","","","","","","","","","","","","key","j","33.354166666666664","864","536","j","true","img/C_ambi40.png","圆形","prac_simultaneous",""
"","","","","","html-keyboard-response","186","511575","0.0-11.0-0.0-1.13","null","<span style='color:GreenYellow; font-size: 70px;'>正确! </span>","null","","","","","","","","","","","","","","","","","","","","","","","feedback_test"
"","","","","","psychophysics","187","513398","0.0-11.0-0.0-0.14","820","","f","","","","","","","","","","","","","key","f","33.2962962962963","864","536","f","true","img/T_ambi40.png","方形","prac_simultaneous",""
"","","","","","html-keyboard-response","188","513700","0.0-11.0-0.0-1.14","null","<span style='color:GreenYellow; font-size: 70px;'>正确! </span>","null","","","","","","","","","","","","","","","","","","","","","","","feedback_test"
"","","","","","psychophysics","189","515320","0.0-11.0-0.0-0.15","616","","j","","","","","","","","","","","","","key","j","33.333333333333336","864","536","j","true","img/T_ambi40.png","三角","prac_simultaneous",""
"","","","","","html-keyboard-response","190","515622","0.0-11.0-0.0-1.15","null","<span style='color:GreenYellow; font-size: 70px;'>正确! </span>","null","","","","","","","","","","","","","","","","","","","","","","","feedback_test"
"","","","","","psychophysics","191","517302","0.0-11.0-0.0-0.16","677","","j","","","","","","","","","","","","","key","j","33.32","864","536","j","true","img/T_ambi40.png","三角","prac_simultaneous",""
"","","","","","html-keyboard-response","192","517607","0.0-11.0-0.0-1.16","null","<span style='color:GreenYellow; font-size: 70px;'>正确! </span>","null","","","","","","","","","","","","","","","","","","","","","","","feedback_test"
"","","","","","psychophysics","193","519350","0.0-11.0-0.0-0.17","738","","f","","","","","","","","","","","","","key","f","33.333333333333336","864","536","f","true","img/C_ambi40.png","方形","prac_simultaneous",""
"","","","","","html-keyboard-response","194","519652","0.0-11.0-0.0-1.17","null","<span style='color:GreenYellow; font-size: 70px;'>正确! </span>","null","","","","","","","","","","","","","","","","","","","","","","","feedback_test"
"","","","","","psychophysics","195","521606","0.0-11.0-0.0-0.18","949","","j","","","","","","","","","","","","","key","j","33.310344827586206","864","536","f","false","img/S_ambi40.png","三角","prac_simultaneous",""
"","","","","","html-keyboard-response","196","521909","0.0-11.0-0.0-1.18","null","<span style='color:red; font-size: 70px;'>错误! </span>","null","","","","","","","","","","","","","","","","","","","","","","","feedback_test"
"","","","","","psychophysics","197","523390","0.0-11.0-0.0-0.19","476","","j","","","","","","","","","","","","","key","j","33.348837209302324","864","536","f","false","img/T_ambi40.png","圆形","prac_simultaneous",""
"","","","","","html-keyboard-response","198","523691","0.0-11.0-0.0-1.19","null","<span style='color:red; font-size: 70px;'>错误! </span>","null","","","","","","","","","","","","","","","","","","","","","","","feedback_test"
"","","","","","psychophysics","199","525549","0.0-11.0-0.0-0.20","855","","j","","","","","","","","","","","","","key","j","33.345454545454544","864","536","j","true","img/S_ambi40.png","方形","prac_simultaneous",""
"","","","","","html-keyboard-response","200","525852","0.0-11.0-0.0-1.20","null","<span style='color:GreenYellow; font-size: 70px;'>正确! </span>","null","","","","","","","","","","","","","","","","","","","","","","","feedback_test"
"","","","","","psychophysics","201","527679","0.0-11.0-0.0-0.21","825","","f","","","","","","","","","","","","","key","f","33.351851851851855","864","536","f","true","img/C_ambi40.png","三角","prac_simultaneous",""
"","","","","","html-keyboard-response","202","527981","0.0-11.0-0.0-1.21","null","<span style='color:GreenYellow; font-size: 70px;'>正确! </span>","null","","","","","","","","","","","","","","","","","","","","","","","feedback_test"
"","","","","","psychophysics","203","529813","0.0-11.0-0.0-0.22","829","","j","","","","","","","","","","","","","key","j","33.333333333333336","864","536","j","true","img/S_ambi40.png","方形","prac_simultaneous",""
"","","","","","html-keyboard-response","204","530115","0.0-11.0-0.0-1.22","null","<span style='color:GreenYellow; font-size: 70px;'>正确! </span>","null","","","","","","","","","","","","","","","","","","","","","","","feedback_test"
"","","","","","psychophysics","205","531895","0.0-11.0-0.0-0.23","777","","f","","","","","","","","","","","","","key","f","33.35849056603774","864","536","j","false","img/C_ambi40.png","圆形","prac_simultaneous",""
"","","","","","html-keyboard-response","206","532196","0.0-11.0-0.0-1.23","null","<span style='color:red; font-size: 70px;'>错误! </span>","null","","","","","","","","","","","","","","","","","","","","","","","feedback_test"
"","","","","","html-keyboard-response","207","546299","0.0-12.0","14097","<style>.context{color:white; font-size: 35px; line-height:40px}</style>                            <div><p class='context'>您正确回答了83% 的试次。</p><p class='context'>您的平均反应时为817毫秒。</p><p class='context'>恭喜您完成练习。按任意键进入正式实验。</p><p class='footer' style='font-size: 35px; line-height:40px;'>请在进入正式实验实验之前将您的<span style='color: lightgreen;'>食指</span>放在电脑键盘的相应键位上进行按键。</p>","j","","","","","","","","","","","","","","","","","","","","","","",""
"","","","","","html-keyboard-response","208","551814","0.0-13.0-1.0-0.0","5514","
    <p>请您将手指放在按键上，准备进入呈现顺序为<span style='color: yellow;'>先文字后图形条件</span>的正式匹配任务</p>
    <p> <div style = ""color: green""><按任意键进入下一阶段的匹配任务></div></p>
    "," ","","","","","","","","","","","","","","","","","","","","","","",""
"","","","","","psychophysics","209","553749","0.0-13.0-1.0-1.0-0.0-0.0","781","","j","","","","","","","","","","","","","key","j","33.31578947368421","864","536","j","true","img/T_ambi40.png","三角","word_first",""
"","","","","","html-keyboard-response","210","554053","0.0-13.0-1.0-1.0-0.0-1.0","null","<span style='color:GreenYellow; font-size: 70px;'>正确! </span>","null","","","","","","","","","","","","","","","","","","","","","","","feedback_test"
"","","","","","psychophysics","211","555925","0.0-13.0-1.0-1.0-0.0-0.1","717","","f","","","","","","","","","","","","","key","f","33.333333333333336","864","536","f","true","img/C_ambi40.png","方形","word_first",""
"","","","","","html-keyboard-response","212","556230","0.0-13.0-1.0-1.0-0.0-1.1","null","<span style='color:GreenYellow; font-size: 70px;'>正确! </span>","null","","","","","","","","","","","","","","","","","","","","","","","feedback_test"
"","","","","","psychophysics","213","558098","0.0-13.0-1.0-1.0-0.0-0.2","714","","f","","","","","","","","","","","","","key","f","33.32727272727273","864","536","f","true","img/T_ambi40.png","方形","word_first",""
"","","","","","html-keyboard-response","214","558401","0.0-13.0-1.0-1.0-0.0-1.2","null","<span style='color:GreenYellow; font-size: 70px;'>正确! </span>","null","","","","","","","","","","","","","","","","","","","","","","","feedback_test"
"","","","","","psychophysics","215","560099","0.0-13.0-1.0-1.0-0.0-0.3","543","","j","","","","","","","","","","","","","key","j","33.36","864","536","j","true","img/T_ambi40.png","三角","word_first",""
"","","","","","html-keyboard-response","216","560401","0.0-13.0-1.0-1.0-0.0-1.3","null","<span style='color:GreenYellow; font-size: 70px;'>正确! </span>","null","","","","","","","","","","","","","","","","","","","","","","","feedback_test"
"","","","","","psychophysics","217","562198","0.0-13.0-1.0-1.0-0.0-0.4","643","","j","","","","","","","","","","","","","key","j","33.283018867924525","864","536","j","true","img/S_ambi40.png","方形","word_first",""
"","","","","","html-keyboard-response","218","562501","0.0-13.0-1.0-1.0-0.0-1.4","null","<span style='color:GreenYellow; font-size: 70px;'>正确! </span>","null","","","","","","","","","","","","","","","","","","","","","","","feedback_test"
"","","","","","psychophysics","219","564278","0.0-13.0-1.0-1.0-0.0-0.5","623","","f","","","","","","","","","","","","","key","f","33.35849056603774","864","536","f","true","img/C_ambi40.png","三角","word_first",""
"","","","","","html-keyboard-response","220","564581","0.0-13.0-1.0-1.0-0.0-1.5","null","<span style='color:GreenYellow; font-size: 70px;'>正确! </span>","null","","","","","","","","","","","","","","","","","","","","","","","feedback_test"
"","","","","","psychophysics","221","566556","0.0-13.0-1.0-1.0-0.0-0.6","822","","f","","","","","","","","","","","","","key","f","33.327586206896555","864","536","f","true","img/S_ambi40.png","三角","word_first",""
"","","","","","html-keyboard-response","222","566859","0.0-13.0-1.0-1.0-0.0-1.6","null","<span style='color:GreenYellow; font-size: 70px;'>正确! </span>","null","","","","","","","","","","","","","","","","","","","","","","","feedback_test"
"","","","","","psychophysics","223","568581","0.0-13.0-1.0-1.0-0.0-0.7","568","","j","","","","","","","","","","","","","key","j","33.333333333333336","864","536","j","true","img/C_ambi40.png","圆形","word_first",""
"","","","","","html-keyboard-response","224","568884","0.0-13.0-1.0-1.0-0.0-1.7","null","<span style='color:GreenYellow; font-size: 70px;'>正确! </span>","null","","","","","","","","","","","","","","","","","","","","","","","feedback_test"
"","","","","","psychophysics","225","570609","0.0-13.0-1.0-1.0-0.0-0.8","572","","f","","","","","","","","","","","","","key","f","33.333333333333336","864","536","f","true","img/T_ambi40.png","圆形","word_first",""
"","","","","","html-keyboard-response","226","570912","0.0-13.0-1.0-1.0-0.0-1.8","null","<span style='color:GreenYellow; font-size: 70px;'>正确! </span>","null","","","","","","","","","","","","","","","","","","","","","","","feedback_test"
"","","","","","psychophysics","227","572886","0.0-13.0-1.0-1.0-0.0-0.9","820","","f","","","","","","","","","","","","","key","f","33.36206896551724","864","536","f","true","img/S_ambi40.png","圆形","word_first",""
"","","","","","html-keyboard-response","228","573191","0.0-13.0-1.0-1.0-0.0-1.9","null","<span style='color:GreenYellow; font-size: 70px;'>正确! </span>","null","","","","","","","","","","","","","","","","","","","","","","","feedback_test"
"","","","","","psychophysics","229","574972","0.0-13.0-1.0-1.0-0.0-0.10","627","","j","","","","","","","","","","","","","key","j","33.37735849056604","864","536","j","true","img/C_ambi40.png","圆形","word_first",""
"","","","","","html-keyboard-response","230","575275","0.0-13.0-1.0-1.0-0.0-1.10","null","<span style='color:GreenYellow; font-size: 70px;'>正确! </span>","null","","","","","","","","","","","","","","","","","","","","","","","feedback_test"
"","","","","","psychophysics","231","577034","0.0-13.0-1.0-1.0-0.0-0.11","603","","j","","","","","","","","","","","","","key","j","33.32692307692308","864","536","j","true","img/S_ambi40.png","方形","word_first",""
"","","","","","html-keyboard-response","232","577339","0.0-13.0-1.0-1.0-0.0-1.11","null","<span style='color:GreenYellow; font-size: 70px;'>正确! </span>","null","","","","","","","","","","","","","","","","","","","","","","","feedback_test"
"","","","","","psychophysics","233","579232","0.0-13.0-1.0-1.0-0.0-0.12","740","","j","","","","","","","","","","","","","key","j","33.339285714285715","864","536","j","true","img/C_ambi40.png","圆形","word_first",""
"","","","","","html-keyboard-response","234","579535","0.0-13.0-1.0-1.0-0.0-1.12","null","<span style='color:GreenYellow; font-size: 70px;'>正确! </span>","null","","","","","","","","","","","","","","","","","","","","","","","feedback_test"
"","","","","","psychophysics","235","581302","0.0-13.0-1.0-1.0-0.0-0.13","614","","f","","","","","","","","","","","","","key","f","33.34615384615385","864","536","f","true","img/C_ambi40.png","三角","word_first",""
"","","","","","html-keyboard-response","236","581605","0.0-13.0-1.0-1.0-0.0-1.13","null","<span style='color:GreenYellow; font-size: 70px;'>正确! </span>","null","","","","","","","","","","","","","","","","","","","","","","","feedback_test"
"","","","","","psychophysics","237","583389","0.0-13.0-1.0-1.0-0.0-0.14","628","","j","","","","","","","","","","","","","key","j","33.41509433962264","864","536","j","true","img/T_ambi40.png","三角","word_first",""
"","","","","","html-keyboard-response","238","583691","0.0-13.0-1.0-1.0-0.0-1.14","null","<span style='color:GreenYellow; font-size: 70px;'>正确! </span>","null","","","","","","","","","","","","","","","","","","","","","","","feedback_test"
"","","","","","psychophysics","239","585491","0.0-13.0-1.0-1.0-0.0-0.15","644","","j","","","","","","","","","","","","","key","j","33.339622641509436","864","536","j","true","img/T_ambi40.png","三角","word_first",""
"","","","","","html-keyboard-response","240","585795","0.0-13.0-1.0-1.0-0.0-1.15","null","<span style='color:GreenYellow; font-size: 70px;'>正确! </span>","null","","","","","","","","","","","","","","","","","","","","","","","feedback_test"
"","","","","","psychophysics","241","587498","0.0-13.0-1.0-1.0-0.0-0.16","550","","f","","","","","","","","","","","","","key","f","33.34","864","536","f","true","img/C_ambi40.png","方形","word_first",""
"","","","","","html-keyboard-response","242","587801","0.0-13.0-1.0-1.0-0.0-1.16","null","<span style='color:GreenYellow; font-size: 70px;'>正确! </span>","null","","","","","","","","","","","","","","","","","","","","","","","feedback_test"
"","","","","","psychophysics","243","589879","0.0-13.0-1.0-1.0-0.0-0.17","923","","j","","","","","","","","","","","","","key","j","33.34426229508197","864","536","j","true","img/S_ambi40.png","方形","word_first",""
"","","","","","html-keyboard-response","244","590182","0.0-13.0-1.0-1.0-0.0-1.17","null","<span style='color:GreenYellow; font-size: 70px;'>正确! </span>","null","","","","","","","","","","","","","","","","","","","","","","","feedback_test"
"","","","","","psychophysics","245","592175","0.0-13.0-1.0-1.0-0.0-0.18","840","","j","","","","","","","","","","","","","key","j","33.33898305084746","864","536","j","true","img/S_ambi40.png","方形","word_first",""
"","","","","","html-keyboard-response","246","592477","0.0-13.0-1.0-1.0-0.0-1.18","null","<span style='color:GreenYellow; font-size: 70px;'>正确! </span>","null","","","","","","","","","","","","","","","","","","","","","","","feedback_test"
"","","","","","psychophysics","247","594532","0.0-13.0-1.0-1.0-0.0-0.19","902","","f","","","","","","","","","","","","","key","f","33.34426229508197","864","536","f","true","img/S_ambi40.png","圆形","word_first",""
"","","","","","html-keyboard-response","248","594835","0.0-13.0-1.0-1.0-0.0-1.19","null","<span style='color:GreenYellow; font-size: 70px;'>正确! </span>","null","","","","","","","","","","","","","","","","","","","","","","","feedback_test"
"","","","","","psychophysics","249","597004","0.0-13.0-1.0-1.0-0.0-0.20","1017","","j","","","","","","","","","","","","","key","j","33.333333333333336","864","536","j","true","img/C_ambi40.png","圆形","word_first",""
"","","","","","html-keyboard-response","250","597306","0.0-13.0-1.0-1.0-0.0-1.20","null","<span style='color:GreenYellow; font-size: 70px;'>正确! </span>","null","","","","","","","","","","","","","","","","","","","","","","","feedback_test"
"","","","","","psychophysics","251","599155","0.0-13.0-1.0-1.0-0.0-0.21","697","","f","","","","","","","","","","","","","key","f","33.4","864","536","f","true","img/S_ambi40.png","三角","word_first",""
"","","","","","html-keyboard-response","252","599459","0.0-13.0-1.0-1.0-0.0-1.21","null","<span style='color:GreenYellow; font-size: 70px;'>正确! </span>","null","","","","","","","","","","","","","","","","","","","","","","","feedback_test"
"","","","","","psychophysics","253","601258","0.0-13.0-1.0-1.0-0.0-0.22","642","","f","","","","","","","","","","","","","key","f","33.283018867924525","864","536","f","true","img/T_ambi40.png","方形","word_first",""
"","","","","","html-keyboard-response","254","601560","0.0-13.0-1.0-1.0-0.0-1.22","null","<span style='color:GreenYellow; font-size: 70px;'>正确! </span>","null","","","","","","","","","","","","","","","","","","","","","","","feedback_test"
"","","","","","psychophysics","255","603552","0.0-13.0-1.0-1.0-0.0-0.23","836","","f","","","","","","","","","","","","","key","f","33.36206896551724","864","536","f","true","img/T_ambi40.png","圆形","word_first",""
"","","","","","html-keyboard-response","256","603855","0.0-13.0-1.0-1.0-0.0-1.23","null","<span style='color:GreenYellow; font-size: 70px;'>正确! </span>","null","","","","","","","","","","","","","","","","","","","","","","","feedback_test"
"","","","","","psychophysics","257","605725","0.0-13.0-1.0-1.0-0.0-0.24","717","","f","","","","","","","","","","","","","key","f","33.32727272727273","864","536","f","true","img/T_ambi40.png","圆形","word_first",""
"","","","","","html-keyboard-response","258","606028","0.0-13.0-1.0-1.0-0.0-1.24","null","<span style='color:GreenYellow; font-size: 70px;'>正确! </span>","null","","","","","","","","","","","","","","","","","","","","","","","feedback_test"
"","","","","","psychophysics","259","607895","0.0-13.0-1.0-1.0-0.0-0.25","712","","f","","","","","","","","","","","","","key","f","33.30909090909091","864","536","f","true","img/S_ambi40.png","三角","word_first",""
"","","","","","html-keyboard-response","260","608197","0.0-13.0-1.0-1.0-0.0-1.25","null","<span style='color:GreenYellow; font-size: 70px;'>正确! </span>","null","","","","","","","","","","","","","","","","","","","","","","","feedback_test"
"","","","","","psychophysics","261","610206","0.0-13.0-1.0-1.0-0.0-0.26","856","","j","","","","","","","","","","","","","key","j","33.33898305084746","864","536","j","true","img/T_ambi40.png","三角","word_first",""
"","","","","","html-keyboard-response","262","610509","0.0-13.0-1.0-1.0-0.0-1.26","null","<span style='color:GreenYellow; font-size: 70px;'>正确! </span>","null","","","","","","","","","","","","","","","","","","","","","","","feedback_test"
"","","","","","psychophysics","263","612264","0.0-13.0-1.0-1.0-0.0-0.27","603","","j","","","","","","","","","","","","","key","j","33.32692307692308","864","536","j","true","img/T_ambi40.png","三角","word_first",""
"","","","","","html-keyboard-response","264","612567","0.0-13.0-1.0-1.0-0.0-1.27","null","<span style='color:GreenYellow; font-size: 70px;'>正确! </span>","null","","","","","","","","","","","","","","","","","","","","","","","feedback_test"
"","","","","","psychophysics","265","614419","0.0-13.0-1.0-1.0-0.0-0.28","700","","j","","","","","","","","","","","","","key","j","33.345454545454544","864","536","j","true","img/S_ambi40.png","方形","word_first",""
"","","","","","html-keyboard-response","266","614720","0.0-13.0-1.0-1.0-0.0-1.28","null","<span style='color:GreenYellow; font-size: 70px;'>正确! </span>","null","","","","","","","","","","","","","","","","","","","","","","","feedback_test"
"","","","","","psychophysics","267","616370","0.0-13.0-1.0-1.0-0.0-0.29","498","","j","","","","","","","","","","","","","key","j","33.38775510204081","864","536","j","true","img/S_ambi40.png","方形","word_first",""
"","","","","","html-keyboard-response","268","616674","0.0-13.0-1.0-1.0-0.0-1.29","null","<span style='color:GreenYellow; font-size: 70px;'>正确! </span>","null","","","","","","","","","","","","","","","","","","","","","","","feedback_test"
"","","","","","psychophysics","269","618453","0.0-13.0-1.0-1.0-0.0-0.30","624","","f","","","","","","","","","","","","","key","f","33.339622641509436","864","536","f","true","img/T_ambi40.png","方形","word_first",""
"","","","","","html-keyboard-response","270","618757","0.0-13.0-1.0-1.0-0.0-1.30","null","<span style='color:GreenYellow; font-size: 70px;'>正确! </span>","null","","","","","","","","","","","","","","","","","","","","","","","feedback_test"
"","","","","","psychophysics","271","620617","0.0-13.0-1.0-1.0-0.0-0.31","706","","j","","","","","","","","","","","","","key","j","33.32727272727273","864","536","j","true","img/C_ambi40.png","圆形","word_first",""
"","","","","","html-keyboard-response","272","620920","0.0-13.0-1.0-1.0-0.0-1.31","null","<span style='color:GreenYellow; font-size: 70px;'>正确! </span>","null","","","","","","","","","","","","","","","","","","","","","","","feedback_test"
"","","","","","psychophysics","273","622804","0.0-13.0-1.0-1.0-0.0-0.32","730","","f","","","","","","","","","","","","","key","f","33.32142857142857","864","536","f","true","img/S_ambi40.png","圆形","word_first",""
"","","","","","html-keyboard-response","274","623106","0.0-13.0-1.0-1.0-0.0-1.32","null","<span style='color:GreenYellow; font-size: 70px;'>正确! </span>","null","","","","","","","","","","","","","","","","","","","","","","","feedback_test"
"","","","","","psychophysics","275","624861","0.0-13.0-1.0-1.0-0.0-0.33","600","","j","","","","","","","","","","","","","key","j","33.32692307692308","864","536","j","true","img/C_ambi40.png","圆形","word_first",""
"","","","","","html-keyboard-response","276","625168","0.0-13.0-1.0-1.0-0.0-1.33","null","<span style='color:GreenYellow; font-size: 70px;'>正确! </span>","null","","","","","","","","","","","","","","","","","","","","","","","feedback_test"
"","","","","","psychophysics","277","627032","0.0-13.0-1.0-1.0-0.0-0.34","713","","f","","","","","","","","","","","","","key","f","33.345454545454544","864","536","f","true","img/C_ambi40.png","三角","word_first",""
"","","","","","html-keyboard-response","278","627334","0.0-13.0-1.0-1.0-0.0-1.34","null","<span style='color:GreenYellow; font-size: 70px;'>正确! </span>","null","","","","","","","","","","","","","","","","","","","","","","","feedback_test"
"","","","","","psychophysics","279","629209","0.0-13.0-1.0-1.0-0.0-0.35","720","","j","","","","","","","","","","","","","key","j","33.345454545454544","864","536","f","false","img/C_ambi40.png","方形","word_first",""
"","","","","","html-keyboard-response","280","629512","0.0-13.0-1.0-1.0-0.0-1.35","null","<span style='color:red; font-size: 70px;'>错误! </span>","null","","","","","","","","","","","","","","","","","","","","","","","feedback_test"
"","","","","","psychophysics","281","631444","0.0-13.0-1.0-1.0-0.0-0.36","776","","f","","","","","","","","","","","","","key","f","33.333333333333336","864","536","f","true","img/C_ambi40.png","三角","word_first",""
"","","","","","html-keyboard-response","282","631746","0.0-13.0-1.0-1.0-0.0-1.36","null","<span style='color:GreenYellow; font-size: 70px;'>正确! </span>","null","","","","","","","","","","","","","","","","","","","","","","","feedback_test"
"","","","","","psychophysics","283","633901","0.0-13.0-1.0-1.0-0.0-0.37","1000","","f","","","","","","","","","","","","","key","f","33.34375","864","536","f","true","img/T_ambi40.png","圆形","word_first",""
"","","","","","html-keyboard-response","284","634203","0.0-13.0-1.0-1.0-0.0-1.37","null","<span style='color:GreenYellow; font-size: 70px;'>正确! </span>","null","","","","","","","","","","","","","","","","","","","","","","","feedback_test"
"","","","","","psychophysics","285","635989","0.0-13.0-1.0-1.0-0.0-0.38","634","","j","","","","","","","","","","","","","key","j","33.339622641509436","864","536","j","true","img/S_ambi40.png","方形","word_first",""
"","","","","","html-keyboard-response","286","636291","0.0-13.0-1.0-1.0-0.0-1.38","null","<span style='color:GreenYellow; font-size: 70px;'>正确! </span>","null","","","","","","","","","","","","","","","","","","","","","","","feedback_test"
"","","","","","psychophysics","287","638327","0.0-13.0-1.0-1.0-0.0-0.39","884","","j","","","","","","","","","","","","","key","j","33.35","864","536","j","true","img/S_ambi40.png","方形","word_first",""
"","","","","","html-keyboard-response","288","638630","0.0-13.0-1.0-1.0-0.0-1.39","null","<span style='color:GreenYellow; font-size: 70px;'>正确! </span>","null","","","","","","","","","","","","","","","","","","","","","","","feedback_test"
"","","","","","psychophysics","289","640368","0.0-13.0-1.0-1.0-0.0-0.40","584","","f","","","","","","","","","","","","","key","f","33.35294117647059","864","536","f","true","img/S_ambi40.png","三角","word_first",""
"","","","","","html-keyboard-response","290","640671","0.0-13.0-1.0-1.0-0.0-1.40","null","<span style='color:GreenYellow; font-size: 70px;'>正确! </span>","null","","","","","","","","","","","","","","","","","","","","","","","feedback_test"
"","","","","","psychophysics","291","642633","0.0-13.0-1.0-1.0-0.0-0.41","810","","f","","","","","","","","","","","","","key","f","33.327586206896555","864","536","f","true","img/T_ambi40.png","方形","word_first",""
"","","","","","html-keyboard-response","292","642935","0.0-13.0-1.0-1.0-0.0-1.41","null","<span style='color:GreenYellow; font-size: 70px;'>正确! </span>","null","","","","","","","","","","","","","","","","","","","","","","","feedback_test"
"","","","","","psychophysics","293","644628","0.0-13.0-1.0-1.0-0.0-0.42","540","","j","","","","","","","","","","","","","key","j","33.32","864","536","j","true","img/C_ambi40.png","圆形","word_first",""
"","","","","","html-keyboard-response","294","644931","0.0-13.0-1.0-1.0-0.0-1.42","null","<span style='color:GreenYellow; font-size: 70px;'>正确! </span>","null","","","","","","","","","","","","","","","","","","","","","","","feedback_test"
"","","","","","psychophysics","295","646846","0.0-13.0-1.0-1.0-0.0-0.43","762","","j","","","","","","","","","","","","","key","j","33.339285714285715","864","536","j","true","img/C_ambi40.png","圆形","word_first",""
"","","","","","html-keyboard-response","296","647149","0.0-13.0-1.0-1.0-0.0-1.43","null","<span style='color:GreenYellow; font-size: 70px;'>正确! </span>","null","","","","","","","","","","","","","","","","","","","","","","","feedback_test"
"","","","","","psychophysics","297","648935","0.0-13.0-1.0-1.0-0.0-0.44","632","","f","","","","","","","","","","","","","key","f","33.32692307692308","864","536","j","false","img/T_ambi40.png","三角","word_first",""
"","","","","","html-keyboard-response","298","649238","0.0-13.0-1.0-1.0-0.0-1.44","null","<span style='color:red; font-size: 70px;'>错误! </span>","null","","","","","","","","","","","","","","","","","","","","","","","feedback_test"
"","","","","","psychophysics","299","651121","0.0-13.0-1.0-1.0-0.0-0.45","729","","f","","","","","","","","","","","","","key","f","33.30357142857143","864","536","f","true","img/S_ambi40.png","圆形","word_first",""
"","","","","","html-keyboard-response","300","651424","0.0-13.0-1.0-1.0-0.0-1.45","null","<span style='color:GreenYellow; font-size: 70px;'>正确! </span>","null","","","","","","","","","","","","","","","","","","","","","","","feedback_test"
"","","","","","psychophysics","301","653241","0.0-13.0-1.0-1.0-0.0-0.46","661","","j","","","","","","","","","","","","","key","j","33.333333333333336","864","536","j","true","img/T_ambi40.png","三角","word_first",""
"","","","","","html-keyboard-response","302","653543","0.0-13.0-1.0-1.0-0.0-1.46","null","<span style='color:GreenYellow; font-size: 70px;'>正确! </span>","null","","","","","","","","","","","","","","","","","","","","","","","feedback_test"
"","","","","","psychophysics","303","655351","0.0-13.0-1.0-1.0-0.0-0.47","655","","f","","","","","","","","","","","","","key","f","33.339622641509436","864","536","f","true","img/C_ambi40.png","方形","word_first",""
"","","","","","html-keyboard-response","304","655654","0.0-13.0-1.0-1.0-0.0-1.47","null","<span style='color:GreenYellow; font-size: 70px;'>正确! </span>","null","","","","","","","","","","","","","","","","","","","","","","","feedback_test"
"","","","","","psychophysics","305","657707","0.0-13.0-1.0-1.0-0.0-0.48","899","","f","","","","","","","","","","","","","key","f","33.32786885245902","864","536","f","true","img/T_ambi40.png","方形","word_first",""
"","","","","","html-keyboard-response","306","658009","0.0-13.0-1.0-1.0-0.0-1.48","null","<span style='color:GreenYellow; font-size: 70px;'>正确! </span>","null","","","","","","","","","","","","","","","","","","","","","","","feedback_test"
"","","","","","psychophysics","307","659898","0.0-13.0-1.0-1.0-0.0-0.49","734","","j","","","","","","","","","","","","","key","j","33.32727272727273","864","536","j","true","img/S_ambi40.png","方形","word_first",""
"","","","","","html-keyboard-response","308","660203","0.0-13.0-1.0-1.0-0.0-1.49","null","<span style='color:GreenYellow; font-size: 70px;'>正确! </span>","null","","","","","","","","","","","","","","","","","","","","","","","feedback_test"
"","","","","","psychophysics","309","662298","0.0-13.0-1.0-1.0-0.0-0.50","939","","f","","","","","","","","","","","","","key","f","33.33870967741935","864","536","f","true","img/S_ambi40.png","圆形","word_first",""
"","","","","","html-keyboard-response","310","662601","0.0-13.0-1.0-1.0-0.0-1.50","null","<span style='color:GreenYellow; font-size: 70px;'>正确! </span>","null","","","","","","","","","","","","","","","","","","","","","","","feedback_test"
"","","","","","psychophysics","311","664426","0.0-13.0-1.0-1.0-0.0-0.51","673","","j","","","","","","","","","","","","","key","j","33.333333333333336","864","536","j","true","img/C_ambi40.png","圆形","word_first",""
"","","","","","html-keyboard-response","312","664730","0.0-13.0-1.0-1.0-0.0-1.51","null","<span style='color:GreenYellow; font-size: 70px;'>正确! </span>","null","","","","","","","","","","","","","","","","","","","","","","","feedback_test"
"","","","","","psychophysics","313","666812","0.0-13.0-1.0-1.0-0.0-0.52","929","","f","","","","","","","","","","","","","key","f","33.32786885245902","864","536","f","true","img/C_ambi40.png","方形","word_first",""
"","","","","","html-keyboard-response","314","667115","0.0-13.0-1.0-1.0-0.0-1.52","null","<span style='color:GreenYellow; font-size: 70px;'>正确! </span>","null","","","","","","","","","","","","","","","","","","","","","","","feedback_test"
"","","","","","psychophysics","315","669018","0.0-13.0-1.0-1.0-0.0-0.53","748","","f","","","","","","","","","","","","","key","f","33.32142857142857","864","536","f","true","img/S_ambi40.png","三角","word_first",""
"","","","","","html-keyboard-response","316","669321","0.0-13.0-1.0-1.0-0.0-1.53","null","<span style='color:GreenYellow; font-size: 70px;'>正确! </span>","null","","","","","","","","","","","","","","","","","","","","","","","feedback_test"
"","","","","","psychophysics","317","671072","0.0-13.0-1.0-1.0-0.0-0.54","598","","j","","","","","","","","","","","","","key","j","33.34615384615385","864","536","j","true","img/T_ambi40.png","三角","word_first",""
"","","","","","html-keyboard-response","318","671374","0.0-13.0-1.0-1.0-0.0-1.54","null","<span style='color:GreenYellow; font-size: 70px;'>正确! </span>","null","","","","","","","","","","","","","","","","","","","","","","","feedback_test"
"","","","","","psychophysics","319","673427","0.0-13.0-1.0-1.0-0.0-0.55","901","","f","","","","","","","","","","","","","key","f","33.35","864","536","f","true","img/T_ambi40.png","圆形","word_first",""
"","","","","","html-keyboard-response","320","673729","0.0-13.0-1.0-1.0-0.0-1.55","null","<span style='color:GreenYellow; font-size: 70px;'>正确! </span>","null","","","","","","","","","","","","","","","","","","","","","","","feedback_test"
"","","","","","psychophysics","321","675662","0.0-13.0-1.0-1.0-0.0-0.56","779","","f","","","","","","","","","","","","","key","f","33.333333333333336","864","536","f","true","img/C_ambi40.png","三角","word_first",""
"","","","","","html-keyboard-response","322","675967","0.0-13.0-1.0-1.0-0.0-1.56","null","<span style='color:GreenYellow; font-size: 70px;'>正确! </span>","null","","","","","","","","","","","","","","","","","","","","","","","feedback_test"
"","","","","","psychophysics","323","677717","0.0-13.0-1.0-1.0-0.0-0.57","597","","j","","","","","","","","","","","","","key","j","33.34615384615385","864","536","j","true","img/C_ambi40.png","圆形","word_first",""
"","","","","","html-keyboard-response","324","678019","0.0-13.0-1.0-1.0-0.0-1.57","null","<span style='color:GreenYellow; font-size: 70px;'>正确! </span>","null","","","","","","","","","","","","","","","","","","","","","","","feedback_test"
"","","","","","psychophysics","325","679999","0.0-13.0-1.0-1.0-0.0-0.58","828","","j","","","","","","","","","","","","","key","j","33.389830508474574","864","536","j","true","img/S_ambi40.png","方形","word_first",""
"","","","","","html-keyboard-response","326","680302","0.0-13.0-1.0-1.0-0.0-1.58","null","<span style='color:GreenYellow; font-size: 70px;'>正确! </span>","null","","","","","","","","","","","","","","","","","","","","","","","feedback_test"
"","","","","","psychophysics","327","682035","0.0-13.0-1.0-1.0-0.0-0.59","581","","j","","","","","","","","","","","","","key","j","33.333333333333336","864","536","j","true","img/T_ambi40.png","三角","word_first",""
"","","","","","html-keyboard-response","328","682337","0.0-13.0-1.0-1.0-0.0-1.59","null","<span style='color:GreenYellow; font-size: 70px;'>正确! </span>","null","","","","","","","","","","","","","","","","","","","","","","","feedback_test"
"","","","","","html-keyboard-response","329","691380","0.0-13.0-1.0-1.0-1.0","9041","<style>.context{color:white; font-size: 35px; line-height:40px}</style>                            <div><p class='context'>您正确回答了97% 的试次。</p><p class='context'>您的平均反应时为720毫秒。</p><p class='context'>请按任意键进入休息</p></div>","j","","","","","","","","","","","","","","","","","","","","","","",""
"","","","","","html-button-response","330","822185","0.0-13.0-1.0-1.0-2.0","130746","
                    <p>您当前还剩余3组实验</p>
                    <p>现在是休息时间，当您结束休息后，您可以点击 结束休息 按钮 继续</p>
                    <p>建议休息时间还剩余<span id=""iii"">60</span>秒</p>","0","","","","","","","","","","","","","","","","","","","","","","",""
"","","","","","psychophysics","331","824232","0.0-13.0-1.0-1.0-0.1-0.60","894","","j","","","","","","","","","","","","","key","j","32.16129032258065","864","509.5","j","true","img/C_ambi40.png","圆形","word_first",""
"","","","","","html-keyboard-response","332","824535","0.0-13.0-1.0-1.0-0.1-1.60","null","<span style='color:GreenYellow; font-size: 70px;'>正确! </span>","null","","","","","","","","","","","","","","","","","","","","","","","feedback_test"
"","","","","","psychophysics","333","826467","0.0-13.0-1.0-1.0-0.1-0.61","776","","f","","","","","","","","","","","","","key","f","32.186440677966104","864","509.5","f","true","img/T_ambi40.png","方形","word_first",""
"","","","","","html-keyboard-response","334","826769","0.0-13.0-1.0-1.0-0.1-1.61","null","<span style='color:GreenYellow; font-size: 70px;'>正确! </span>","null","","","","","","","","","","","","","","","","","","","","","","","feedback_test"
"","","","","","psychophysics","335","828417","0.0-13.0-1.0-1.0-0.1-0.62","496","","j","","","","","","","","","","","","","key","j","32.05882352941177","864","509.5","j","true","img/T_ambi40.png","三角","word_first",""
"","","","","","html-keyboard-response","336","828720","0.0-13.0-1.0-1.0-0.1-1.62","null","<span style='color:GreenYellow; font-size: 70px;'>正确! </span>","null","","","","","","","","","","","","","","","","","","","","","","","feedback_test"
"","","","","","psychophysics","337","830485","0.0-13.0-1.0-1.0-0.1-0.63","609","","f","","","","","","","","","","","","","key","f","31.98148148148148","864","509.5","f","true","img/C_ambi40.png","三角","word_first",""
"","","","","","html-keyboard-response","338","830786","0.0-13.0-1.0-1.0-0.1-1.63","null","<span style='color:GreenYellow; font-size: 70px;'>正确! </span>","null","","","","","","","","","","","","","","","","","","","","","","","feedback_test"
"","","","","","psychophysics","339","832680","0.0-13.0-1.0-1.0-0.1-0.64","742","","j","","","","","","","","","","","","","key","j","32.172413793103445","864","509.5","j","true","img/S_ambi40.png","方形","word_first",""
"","","","","","html-keyboard-response","340","832982","0.0-13.0-1.0-1.0-0.1-1.64","null","<span style='color:GreenYellow; font-size: 70px;'>正确! </span>","null","","","","","","","","","","","","","","","","","","","","","","","feedback_test"
"","","","","","psychophysics","341","834777","0.0-13.0-1.0-1.0-0.1-0.65","643","","j","","","","","","","","","","","","","key","j","32.886792452830186","864","509.5","j","true","img/T_ambi40.png","三角","word_first",""
"","","","","","html-keyboard-response","342","835080","0.0-13.0-1.0-1.0-0.1-1.65","null","<span style='color:GreenYellow; font-size: 70px;'>正确! </span>","null","","","","","","","","","","","","","","","","","","","","","","","feedback_test"
"","","","","","psychophysics","343","836820","0.0-13.0-1.0-1.0-0.1-0.66","586","","f","","","","","","","","","","","","","key","f","32.63461538461539","864","509.5","f","true","img/T_ambi40.png","圆形","word_first",""
"","","","","","html-keyboard-response","344","837122","0.0-13.0-1.0-1.0-0.1-1.66","null","<span style='color:GreenYellow; font-size: 70px;'>正确! </span>","null","","","","","","","","","","","","","","","","","","","","","","","feedback_test"
"","","","","","psychophysics","345","839052","0.0-13.0-1.0-1.0-0.1-0.67","777","","f","","","","","","","","","","","","","key","f","32.793103448275865","864","509.5","j","false","img/S_ambi40.png","方形","word_first",""
"","","","","","html-keyboard-response","346","839354","0.0-13.0-1.0-1.0-0.1-1.67","null","<span style='color:red; font-size: 70px;'>错误! </span>","null","","","","","","","","","","","","","","","","","","","","","","","feedback_test"
"","","","","","psychophysics","347","841181","0.0-13.0-1.0-1.0-0.1-0.68","673","","f","","","","","","","","","","","","","key","f","32.63636363636363","864","509.5","f","true","img/C_ambi40.png","方形","word_first",""
"","","","","","html-keyboard-response","348","841484","0.0-13.0-1.0-1.0-0.1-1.68","null","<span style='color:GreenYellow; font-size: 70px;'>正确! </span>","null","","","","","","","","","","","","","","","","","","","","","","","feedback_test"
"","","","","","psychophysics","349","843340","0.0-13.0-1.0-1.0-0.1-0.69","702","","f","","","","","","","","","","","","","key","f","32.35087719298246","864","509.5","f","true","img/S_ambi40.png","三角","word_first",""
"","","","","","html-keyboard-response","350","843643","0.0-13.0-1.0-1.0-0.1-1.69","null","<span style='color:GreenYellow; font-size: 70px;'>正确! </span>","null","","","","","","","","","","","","","","","","","","","","","","","feedback_test"
"","","","","","psychophysics","351","845310","0.0-13.0-1.0-1.0-0.1-0.70","513","","j","","","","","","","","","","","","","key","j","32.74","864","509.5","j","true","img/C_ambi40.png","圆形","word_first",""
"","","","","","html-keyboard-response","352","845612","0.0-13.0-1.0-1.0-0.1-1.70","null","<span style='color:GreenYellow; font-size: 70px;'>正确! </span>","null","","","","","","","","","","","","","","","","","","","","","","","feedback_test"
"","","","","","psychophysics","353","847548","0.0-13.0-1.0-1.0-0.1-0.71","782","","f","","","","","","","","","","","","","key","f","32.824561403508774","864","509.5","f","true","img/S_ambi40.png","圆形","word_first",""
"","","","","","html-keyboard-response","354","847851","0.0-13.0-1.0-1.0-0.1-1.71","null","<span style='color:GreenYellow; font-size: 70px;'>正确! </span>","null","","","","","","","","","","","","","","","","","","","","","","","feedback_test"
"","","","","","psychophysics","355","850016","0.0-13.0-1.0-1.0-0.1-0.72","1012","","f","","","","","","","","","","","","","key","f","32.784615384615385","864","509.5","f","true","img/C_ambi40.png","三角","word_first",""
"","","","","","html-keyboard-response","356","850320","0.0-13.0-1.0-1.0-0.1-1.72","null","<span style='color:GreenYellow; font-size: 70px;'>正确! </span>","null","","","","","","","","","","","","","","","","","","","","","","","feedback_test"
"","","","","","psychophysics","357","851998","0.0-13.0-1.0-1.0-0.1-0.73","524","","j","","","","","","","","","","","","","key","j","32.705882352941174","864","509.5","j","true","img/C_ambi40.png","圆形","word_first",""
"","","","","","html-keyboard-response","358","852301","0.0-13.0-1.0-1.0-0.1-1.73","null","<span style='color:GreenYellow; font-size: 70px;'>正确! </span>","null","","","","","","","","","","","","","","","","","","","","","","","feedback_test"
"","","","","","psychophysics","359","854175","0.0-13.0-1.0-1.0-0.1-0.74","717","","f","","","","","","","","","","","","","key","f","32.714285714285715","864","509.5","f","true","img/T_ambi40.png","圆形","word_first",""
"","","","","","html-keyboard-response","360","854477","0.0-13.0-1.0-1.0-0.1-1.74","null","<span style='color:GreenYellow; font-size: 70px;'>正确! </span>","null","","","","","","","","","","","","","","","","","","","","","","","feedback_test"
"","","","","","psychophysics","361","856107","0.0-13.0-1.0-1.0-0.1-0.75","478","","j","","","","","","","","","","","","","key","j","32.93877551020408","864","509.5","j","true","img/T_ambi40.png","三角","word_first",""
"","","","","","html-keyboard-response","362","856411","0.0-13.0-1.0-1.0-0.1-1.75","null","<span style='color:GreenYellow; font-size: 70px;'>正确! </span>","null","","","","","","","","","","","","","","","","","","","","","","","feedback_test"
"","","","","","psychophysics","363","858206","0.0-13.0-1.0-1.0-0.1-0.76","644","","f","","","","","","","","","","","","","key","f","32.851851851851855","864","509.5","f","true","img/S_ambi40.png","三角","word_first",""
"","","","","","html-keyboard-response","364","858509","0.0-13.0-1.0-1.0-0.1-1.76","null","<span style='color:GreenYellow; font-size: 70px;'>正确! </span>","null","","","","","","","","","","","","","","","","","","","","","","","feedback_test"
"","","","","","psychophysics","365","860682","0.0-13.0-1.0-1.0-0.1-0.77","1020","","f","","","","","","","","","","","","","key","f","32.89230769230769","864","509.5","f","true","img/S_ambi40.png","圆形","word_first",""
"","","","","","html-keyboard-response","366","860985","0.0-13.0-1.0-1.0-0.1-1.77","null","<span style='color:GreenYellow; font-size: 70px;'>正确! </span>","null","","","","","","","","","","","","","","","","","","","","","","","feedback_test"
"","","","","","psychophysics","367","862843","0.0-13.0-1.0-1.0-0.1-0.78","702","","j","","","","","","","","","","","","","key","j","33.127272727272725","864","509.5","j","true","img/S_ambi40.png","方形","word_first",""
"","","","","","html-keyboard-response","368","863146","0.0-13.0-1.0-1.0-0.1-1.78","null","<span style='color:GreenYellow; font-size: 70px;'>正确! </span>","null","","","","","","","","","","","","","","","","","","","","","","","feedback_test"
"","","","","","psychophysics","369","865048","0.0-13.0-1.0-1.0-0.1-0.79","748","","j","","","","","","","","","","","","","key","j","32.51724137931034","864","509.5","j","true","img/C_ambi40.png","圆形","word_first",""
"","","","","","html-keyboard-response","370","865350","0.0-13.0-1.0-1.0-0.1-1.79","null","<span style='color:GreenYellow; font-size: 70px;'>正确! </span>","null","","","","","","","","","","","","","","","","","","","","","","","feedback_test"
"","","","","","psychophysics","371","867163","0.0-13.0-1.0-1.0-0.1-0.80","661","","f","","","","","","","","","","","","","key","f","32.31481481481482","864","509.5","f","true","img/C_ambi40.png","方形","word_first",""
"","","","","","html-keyboard-response","372","867465","0.0-13.0-1.0-1.0-0.1-1.80","null","<span style='color:GreenYellow; font-size: 70px;'>正确! </span>","null","","","","","","","","","","","","","","","","","","","","","","","feedback_test"
"","","","","","psychophysics","373","869248","0.0-13.0-1.0-1.0-0.1-0.81","629","","j","","","","","","","","","","","","","key","j","32.370370370370374","864","509.5","j","true","img/T_ambi40.png","三角","word_first",""
"","","","","","html-keyboard-response","374","869550","0.0-13.0-1.0-1.0-0.1-1.81","null","<span style='color:GreenYellow; font-size: 70px;'>正确! </span>","null","","","","","","","","","","","","","","","","","","","","","","","feedback_test"
"","","","","","psychophysics","375","871465","0.0-13.0-1.0-1.0-0.1-0.82","762","","f","","","","","","","","","","","","","key","f","33.280701754385966","864","509.5","f","true","img/T_ambi40.png","方形","word_first",""
"","","","","","html-keyboard-response","376","871768","0.0-13.0-1.0-1.0-0.1-1.82","null","<span style='color:GreenYellow; font-size: 70px;'>正确! </span>","null","","","","","","","","","","","","","","","","","","","","","","","feedback_test"
"","","","","","psychophysics","377","873678","0.0-13.0-1.0-1.0-0.1-0.83","758","","j","","","","","","","","","","","","","key","j","33.12280701754386","864","509.5","j","true","img/S_ambi40.png","方形","word_first",""
"","","","","","html-keyboard-response","378","873981","0.0-13.0-1.0-1.0-0.1-1.83","null","<span style='color:GreenYellow; font-size: 70px;'>正确! </span>","null","","","","","","","","","","","","","","","","","","","","","","","feedback_test"
"","","","","","psychophysics","379","875832","0.0-13.0-1.0-1.0-0.1-0.84","688","","j","","","","","","","","","","","","","key","j","31.982456140350877","864","509.5","j","true","img/T_ambi40.png","三角","word_first",""
"","","","","","html-keyboard-response","380","876133","0.0-13.0-1.0-1.0-0.1-1.84","null","<span style='color:GreenYellow; font-size: 70px;'>正确! </span>","null","","","","","","","","","","","","","","","","","","","","","","","feedback_test"
"","","","","","psychophysics","381","878288","0.0-13.0-1.0-1.0-0.1-0.85","1002","","j","","","","","","","","","","","","","key","j","32.76923076923077","864","509.5","j","true","img/S_ambi40.png","方形","word_first",""
"","","","","","html-keyboard-response","382","878592","0.0-13.0-1.0-1.0-0.1-1.85","null","<span style='color:GreenYellow; font-size: 70px;'>正确! </span>","null","","","","","","","","","","","","","","","","","","","","","","","feedback_test"
"","","","","","psychophysics","383","880270","0.0-13.0-1.0-1.0-0.1-0.86","525","","j","","","","","","","","","","","","","key","j","31.48076923076923","864","509.5","j","true","img/T_ambi40.png","三角","word_first",""
"","","","","","html-keyboard-response","384","880574","0.0-13.0-1.0-1.0-0.1-1.86","null","<span style='color:GreenYellow; font-size: 70px;'>正确! </span>","null","","","","","","","","","","","","","","","","","","","","","","","feedback_test"
"","","","","","psychophysics","385","882326","0.0-13.0-1.0-1.0-0.1-0.87","593","","f","","","","","","","","","","","","","key","f","31.62962962962963","864","509.5","f","true","img/S_ambi40.png","三角","word_first",""
"","","","","","html-keyboard-response","386","882629","0.0-13.0-1.0-1.0-0.1-1.87","null","<span style='color:GreenYellow; font-size: 70px;'>正确! </span>","null","","","","","","","","","","","","","","","","","","","","","","","feedback_test"
"","","","","","psychophysics","387","884439","0.0-13.0-1.0-1.0-0.1-0.88","654","","f","","","","","","","","","","","","","key","f","32.27272727272727","864","509.5","f","true","img/S_ambi40.png","圆形","word_first",""
"","","","","","html-keyboard-response","388","884742","0.0-13.0-1.0-1.0-0.1-1.88","null","<span style='color:GreenYellow; font-size: 70px;'>正确! </span>","null","","","","","","","","","","","","","","","","","","","","","","","feedback_test"
"","","","","","psychophysics","389","886993","0.0-13.0-1.0-1.0-0.1-0.89","1097","","f","","","","","","","","","","","","","key","f","32.34782608695652","864","509.5","f","true","img/T_ambi40.png","方形","word_first",""
"","","","","","html-keyboard-response","390","887297","0.0-13.0-1.0-1.0-0.1-1.89","null","<span style='color:GreenYellow; font-size: 70px;'>正确! </span>","null","","","","","","","","","","","","","","","","","","","","","","","feedback_test"
"","","","","","psychophysics","391","889502","0.0-13.0-1.0-1.0-0.1-0.90","1051","","f","","","","","","","","","","","","","key","f","31.797101449275363","864","509.5","j","false","img/S_ambi40.png","方形","word_first",""
"","","","","","html-keyboard-response","392","889804","0.0-13.0-1.0-1.0-0.1-1.90","null","<span style='color:red; font-size: 70px;'>错误! </span>","null","","","","","","","","","","","","","","","","","","","","","","","feedback_test"
"","","","","","psychophysics","393","891580","0.0-13.0-1.0-1.0-0.1-0.91","621","","f","","","","","","","","","","","","","key","f","32.24528301886792","864","509.5","f","true","img/C_ambi40.png","三角","word_first",""
"","","","","","html-keyboard-response","394","891882","0.0-13.0-1.0-1.0-0.1-1.91","null","<span style='color:GreenYellow; font-size: 70px;'>正确! </span>","null","","","","","","","","","","","","","","","","","","","","","","","feedback_test"
"","","","","","psychophysics","395","893787","0.0-13.0-1.0-1.0-0.1-0.92","754","","f","","","","","","","","","","","","","key","f","32.5","864","509.5","f","true","img/C_ambi40.png","方形","word_first",""
"","","","","","html-keyboard-response","396","894095","0.0-13.0-1.0-1.0-0.1-1.92","null","<span style='color:GreenYellow; font-size: 70px;'>正确! </span>","null","","","","","","","","","","","","","","","","","","","","","","","feedback_test"
"","","","","","psychophysics","397","895734","0.0-13.0-1.0-1.0-0.1-0.93","485","","j","","","","","","","","","","","","","key","j","32.2","864","509.5","j","true","img/C_ambi40.png","圆形","word_first",""
"","","","","","html-keyboard-response","398","896037","0.0-13.0-1.0-1.0-0.1-1.93","null","<span style='color:GreenYellow; font-size: 70px;'>正确! </span>","null","","","","","","","","","","","","","","","","","","","","","","","feedback_test"
"","","","","","psychophysics","399","897807","0.0-13.0-1.0-1.0-0.1-0.94","614","","j","","","","","","","","","","","","","key","j","32.698113207547166","864","509.5","j","true","img/C_ambi40.png","圆形","word_first",""
"","","","","","html-keyboard-response","400","898109","0.0-13.0-1.0-1.0-0.1-1.94","null","<span style='color:GreenYellow; font-size: 70px;'>正确! </span>","null","","","","","","","","","","","","","","","","","","","","","","","feedback_test"
"","","","","","psychophysics","401","899906","0.0-13.0-1.0-1.0-0.1-0.95","644","","f","","","","","","","","","","","","","key","f","32.611111111111114","864","509.5","f","true","img/T_ambi40.png","圆形","word_first",""
"","","","","","html-keyboard-response","402","900210","0.0-13.0-1.0-1.0-0.1-1.95","null","<span style='color:GreenYellow; font-size: 70px;'>正确! </span>","null","","","","","","","","","","","","","","","","","","","","","","","feedback_test"
"","","","","","psychophysics","403","902172","0.0-13.0-1.0-1.0-0.1-0.96","808","","f","","","","","","","","","","","","","key","f","32.610169491525426","864","509.5","f","true","img/T_ambi40.png","圆形","word_first",""
"","","","","","html-keyboard-response","404","902474","0.0-13.0-1.0-1.0-0.1-1.96","null","<span style='color:GreenYellow; font-size: 70px;'>正确! </span>","null","","","","","","","","","","","","","","","","","","","","","","","feedback_test"
"","","","","","psychophysics","405","904077","0.0-13.0-1.0-1.0-0.1-0.97","451","","j","","","","","","","","","","","","","key","j","33.1875","864","509.5","j","true","img/C_ambi40.png","圆形","word_first",""
"","","","","","html-keyboard-response","406","904380","0.0-13.0-1.0-1.0-0.1-1.97","null","<span style='color:GreenYellow; font-size: 70px;'>正确! </span>","null","","","","","","","","","","","","","","","","","","","","","","","feedback_test"
"","","","","","psychophysics","407","906099","0.0-13.0-1.0-1.0-0.1-0.98","568","","j","","","","","","","","","","","","","key","j","32.73076923076923","864","509.5","j","true","img/S_ambi40.png","方形","word_first",""
"","","","","","html-keyboard-response","408","906401","0.0-13.0-1.0-1.0-0.1-1.98","null","<span style='color:GreenYellow; font-size: 70px;'>正确! </span>","null","","","","","","","","","","","","","","","","","","","","","","","feedback_test"
"","","","","","psychophysics","409","908244","0.0-13.0-1.0-1.0-0.1-0.99","691","","f","","","","","","","","","","","","","key","f","32.870370370370374","864","509.5","f","true","img/C_ambi40.png","方形","word_first",""
"","","","","","html-keyboard-response","410","908547","0.0-13.0-1.0-1.0-0.1-1.99","null","<span style='color:GreenYellow; font-size: 70px;'>正确! </span>","null","","","","","","","","","","","","","","","","","","","","","","","feedback_test"
"","","","","","psychophysics","411","910306","0.0-13.0-1.0-1.0-0.1-0.100","606","","f","","","","","","","","","","","","","key","f","32.59615384615385","864","509.5","f","true","img/S_ambi40.png","圆形","word_first",""
"","","","","","html-keyboard-response","412","910608","0.0-13.0-1.0-1.0-0.1-1.100","null","<span style='color:GreenYellow; font-size: 70px;'>正确! </span>","null","","","","","","","","","","","","","","","","","","","","","","","feedback_test"
"","","","","","psychophysics","413","912164","0.0-13.0-1.0-1.0-0.1-0.101","400","","j","","","","","","","","","","","","","key","j","32.851063829787236","864","509.5","f","false","img/C_ambi40.png","三角","word_first",""
"","","","","","html-keyboard-response","414","912467","0.0-13.0-1.0-1.0-0.1-1.101","null","<span style='color:red; font-size: 70px;'>错误! </span>","null","","","","","","","","","","","","","","","","","","","","","","","feedback_test"
"","","","","","psychophysics","415","914523","0.0-13.0-1.0-1.0-0.1-0.102","898","","f","","","","","","","","","","","","","key","f","32.693548387096776","864","509.5","f","true","img/T_ambi40.png","方形","word_first",""
"","","","","","html-keyboard-response","416","914825","0.0-13.0-1.0-1.0-0.1-1.102","null","<span style='color:GreenYellow; font-size: 70px;'>正确! </span>","null","","","","","","","","","","","","","","","","","","","","","","","feedback_test"
"","","","","","psychophysics","417","916977","0.0-13.0-1.0-1.0-0.1-0.103","999","","j","","","","","","","","","","","","","key","j","33.140625","864","509.5","j","true","img/S_ambi40.png","方形","word_first",""
"","","","","","html-keyboard-response","418","917280","0.0-13.0-1.0-1.0-0.1-1.103","null","<span style='color:GreenYellow; font-size: 70px;'>正确! </span>","null","","","","","","","","","","","","","","","","","","","","","","","feedback_test"
"","","","","","psychophysics","419","919796","0.0-13.0-1.0-1.0-0.1-0.104","1362","","f","","","","","","","","","","","","","key","f","32.86842105263158","864","509.5","f","true","img/S_ambi40.png","三角","word_first",""
"","","","","","html-keyboard-response","420","920100","0.0-13.0-1.0-1.0-0.1-1.104","null","<span style='color:GreenYellow; font-size: 70px;'>正确! </span>","null","","","","","","","","","","","","","","","","","","","","","","","feedback_test"
"","","","","","psychophysics","421","921882","0.0-13.0-1.0-1.0-0.1-0.105","629","","j","","","","","","","","","","","","","key","j","32.84905660377358","864","509.5","j","true","img/T_ambi40.png","三角","word_first",""
"","","","","","html-keyboard-response","422","922186","0.0-13.0-1.0-1.0-0.1-1.105","null","<span style='color:GreenYellow; font-size: 70px;'>正确! </span>","null","","","","","","","","","","","","","","","","","","","","","","","feedback_test"
"","","","","","psychophysics","423","923814","0.0-13.0-1.0-1.0-0.1-0.106","475","","j","","","","","","","","","","","","","key","j","32.55102040816327","864","509.5","j","true","img/C_ambi40.png","圆形","word_first",""
"","","","","","html-keyboard-response","424","924116","0.0-13.0-1.0-1.0-0.1-1.106","null","<span style='color:GreenYellow; font-size: 70px;'>正确! </span>","null","","","","","","","","","","","","","","","","","","","","","","","feedback_test"
"","","","","","psychophysics","425","925826","0.0-13.0-1.0-1.0-0.1-0.107","557","","j","","","","","","","","","","","","","key","j","33.1764705882353","864","509.5","j","true","img/T_ambi40.png","三角","word_first",""
"","","","","","html-keyboard-response","426","926129","0.0-13.0-1.0-1.0-0.1-1.107","null","<span style='color:GreenYellow; font-size: 70px;'>正确! </span>","null","","","","","","","","","","","","","","","","","","","","","","","feedback_test"
"","","","","","psychophysics","427","927894","0.0-13.0-1.0-1.0-0.1-0.108","611","","f","","","","","","","","","","","","","key","f","32.62264150943396","864","509.5","f","true","img/S_ambi40.png","圆形","word_first",""
"","","","","","html-keyboard-response","428","928196","0.0-13.0-1.0-1.0-0.1-1.108","null","<span style='color:GreenYellow; font-size: 70px;'>正确! </span>","null","","","","","","","","","","","","","","","","","","","","","","","feedback_test"
"","","","","","psychophysics","429","929934","0.0-13.0-1.0-1.0-0.1-0.109","585","","j","","","","","","","","","","","","","key","j","32.62264150943396","864","509.5","j","true","img/T_ambi40.png","三角","word_first",""
"","","","","","html-keyboard-response","430","930237","0.0-13.0-1.0-1.0-0.1-1.109","null","<span style='color:GreenYellow; font-size: 70px;'>正确! </span>","null","","","","","","","","","","","","","","","","","","","","","","","feedback_test"
"","","","","","psychophysics","431","932047","0.0-13.0-1.0-1.0-0.1-0.110","657","","f","","","","","","","","","","","","","key","f","32.56363636363636","864","509.5","f","true","img/T_ambi40.png","方形","word_first",""
"","","","","","html-keyboard-response","432","932350","0.0-13.0-1.0-1.0-0.1-1.110","null","<span style='color:GreenYellow; font-size: 70px;'>正确! </span>","null","","","","","","","","","","","","","","","","","","","","","","","feedback_test"
"","","","","","psychophysics","433","934028","0.0-13.0-1.0-1.0-0.1-0.111","526","","j","","","","","","","","","","","","","key","j","32.9","864","509.5","j","true","img/T_ambi40.png","三角","word_first",""
"","","","","","html-keyboard-response","434","934330","0.0-13.0-1.0-1.0-0.1-1.111","null","<span style='color:GreenYellow; font-size: 70px;'>正确! </span>","null","","","","","","","","","","","","","","","","","","","","","","","feedback_test"
