"success","timeout","failed_images","failed_audio","failed_video","trial_type","trial_index","time_elapsed","internal_node_id","rt","stimulus","response","value","item_width_mm","item_height_mm","item_width_px","px2mm","view_dist_mm","item_width_deg","px2deg","scale_factor","win_width_deg","win_height_deg","view_history","response_type","key_press","avg_frame_time","center_x","center_y","correct_response","correct","Image","word","condition","screen_id"
"true","false","[]","[]","[]","preload","0","8","0.0-0.0","","","","","","","","","","","","","","","","","","","","","","","","","",""
"","","","","","html-keyboard-response","1","2220","0.0-1.0","2212","
   <p>您好，欢迎参加本次实验。</p>
   <p>为充分保障您的权利，请确保您已经知晓并同意《参与实验同意书》以及《数据公开知情同意书》。</p>
   <p>如果您未见过上述内容，请咨询实验员。</p>
   <p>如果您选择继续实验，则表示您已经清楚两份知情同意书的内容并同意。</p>
   <p> <div style = ""color: green""><按任意键至下页></div> </p>
   "," ","","","","","","","","","","","","","","","","","","","","","","",""
"","","","","","html-keyboard-response","2","2958","0.0-2.0","737","
   <p>本实验首先需要您填写一些基本个人信息。</p>
   <p> <div style = ""color: green""><按任意键至下页></div></p>
   "," ","","","","","","","","","","","","","","","","","","","","","","",""
"","","","","","call-function","3","2958","0.0-3.0-0.0","","","","","","","","","","","","","","","","","","","","","","","","","",""
"","","","","","survey-html-form","4","7854","0.0-3.0-1.0","4894","","{""Q0"":""6""}","","","","","","","","","","","","","","","","","","","","","","",""
"","","","","","html-button-response","5","8895","0.0-3.0-2.0","1039","<p style = 'color : white'>您的性别</p>","0","","","","","","","","","","","","","","","","","","","","","","",""
"","","","","","survey-html-form","6","12238","0.0-3.0-3.0","3343","","{""Q0"":""1997""}","","","","","","","","","","","","","","","","","","","","","","",""
"","","","","","survey-html-form","7","14105","0.0-3.0-4.0","1865","","{""Q0"":""6""}","","","","","","","","","","","","","","","","","","","","","","",""
"","","","","","virtual-chinrest","8","167980","0.0-4.0","153873","","","","85.6","53.98","471.8103252947916","5.516740522327121","518.58","9.436206505895832","50","0.8138863848731439","30.72","15.08","","","","","","","","","","","",""
"true","","","","","fullscreen","9","173246","0.0-5.0","","","","","","","","","","","","","","","","","","","","","","","","","",""
"","","","","","instructions","10","231014","0.0-6.0","57768","","","","","","","","","","","","","","[{""page_index"":0,""viewing_time"":6929},{""page_index"":1,""viewing_time"":12287},{""page_index"":2,""viewing_time"":9001},{""page_index"":1,""viewing_time"":2288},{""page_index"":2,""viewing_time"":20952},{""page_index"":3,""viewing_time"":6312}]","","","","","","","","","","",""
"","","","","","psychophysics","11","233170","0.0-7.0-0.0-0.0","995","","f","","","","","","","","","","","","","key","f","16.796166666666746","768","428","f","true","img/C_ambi40.png","圆形","prac_image_first",""
"","","","","","html-keyboard-response","12","233484","0.0-7.0-0.0-1.0","null","<span style='color:GreenYellow; font-size: 70px;'>正确! </span>","null","","","","","","","","","","","","","","","","","","","","","","","feedback_test"
"","","","","","psychophysics","13","235231","0.0-7.0-0.0-0.1","592","","j","","","","","","","","","","","","","key","j","16.66388461538484","768","428","f","false","img/T_ambi40.png","三角","prac_image_first",""
"","","","","","html-keyboard-response","14","235551","0.0-7.0-0.0-1.1","null","<span style='color:red; font-size: 70px;'>错误! </span>","null","","","","","","","","","","","","","","","","","","","","","","","feedback_test"
"","","","","","psychophysics","15","237629","0.0-7.0-0.0-0.2","923","","f","","","","","","","","","","","","","key","f","16.663701612903218","768","428","f","true","img/T_ambi40.png","三角","prac_image_first",""
"","","","","","html-keyboard-response","16","237939","0.0-7.0-0.0-1.2","null","<span style='color:GreenYellow; font-size: 70px;'>正确! </span>","null","","","","","","","","","","","","","","","","","","","","","","","feedback_test"
"","","","","","psychophysics","17","239781","0.0-7.0-0.0-0.3","690","","f","","","","","","","","","","","","","key","f","16.663715596330285","768","428","f","true","img/C_ambi40.png","圆形","prac_image_first",""
"","","","","","html-keyboard-response","18","240093","0.0-7.0-0.0-1.3","null","<span style='color:GreenYellow; font-size: 70px;'>正确! </span>","null","","","","","","","","","","","","","","","","","","","","","","","feedback_test"
"","","","","","psychophysics","19","241937","0.0-7.0-0.0-0.4","689","","j","","","","","","","","","","","","","key","j","16.663724770642116","768","428","j","true","img/S_ambi40.png","三角","prac_image_first",""
"","","","","","html-keyboard-response","20","242242","0.0-7.0-0.0-1.4","null","<span style='color:GreenYellow; font-size: 70px;'>正确! </span>","null","","","","","","","","","","","","","","","","","","","","","","","feedback_test"
"","","","","","psychophysics","21","244230","0.0-7.0-0.0-0.5","831","","j","","","","","","","","","","","","","key","j","16.664093220339087","768","428","j","true","img/T_ambi40.png","方形","prac_image_first",""
"","","","","","html-keyboard-response","22","244550","0.0-7.0-0.0-1.5","null","<span style='color:GreenYellow; font-size: 70px;'>正确! </span>","null","","","","","","","","","","","","","","","","","","","","","","","feedback_test"
"","","","","","psychophysics","23","246381","0.0-7.0-0.0-0.6","678","","j","","","","","","","","","","","","","key","j","16.66266972477064","768","428","j","true","img/C_ambi40.png","三角","prac_image_first",""
"","","","","","html-keyboard-response","24","246702","0.0-7.0-0.0-1.6","null","<span style='color:GreenYellow; font-size: 70px;'>正确! </span>","null","","","","","","","","","","","","","","","","","","","","","","","feedback_test"
"","","","","","psychophysics","25","248545","0.0-7.0-0.0-0.7","691","","j","","","","","","","","","","","","","key","j","16.663636363636364","768","428","j","true","img/C_ambi40.png","方形","prac_image_first",""
"","","","","","html-keyboard-response","26","248862","0.0-7.0-0.0-1.7","null","<span style='color:GreenYellow; font-size: 70px;'>正确! </span>","null","","","","","","","","","","","","","","","","","","","","","","","feedback_test"
"","","","","","psychophysics","27","250662","0.0-7.0-0.0-0.8","645","","f","","","","","","","","","","","","","key","f","16.66397196261694","768","428","j","false","img/S_ambi40.png","圆形","prac_image_first",""
"","","","","","html-keyboard-response","28","250981","0.0-7.0-0.0-1.8","null","<span style='color:red; font-size: 70px;'>错误! </span>","null","","","","","","","","","","","","","","","","","","","","","","","feedback_test"
"","","","","","psychophysics","29","252960","0.0-7.0-0.0-0.9","824","","f","","","","","","","","","","","","","key","f","16.66405932203387","768","428","f","true","img/S_ambi40.png","方形","prac_image_first",""
"","","","","","html-keyboard-response","30","253266","0.0-7.0-0.0-1.9","null","<span style='color:GreenYellow; font-size: 70px;'>正确! </span>","null","","","","","","","","","","","","","","","","","","","","","","","feedback_test"
"","","","","","psychophysics","31","255465","0.0-7.0-0.0-0.10","1046","","f","","","","","","","","","","","","","key","f","16.664305343511487","768","428","f","true","img/S_ambi40.png","方形","prac_image_first",""
"","","","","","html-keyboard-response","32","255778","0.0-7.0-0.0-1.10","null","<span style='color:GreenYellow; font-size: 70px;'>正确! </span>","null","","","","","","","","","","","","","","","","","","","","","","","feedback_test"
"","","","","","psychophysics","33","257568","0.0-7.0-0.0-0.11","633","","j","","","","","","","","","","","","","key","j","16.663924528301784","768","428","j","true","img/T_ambi40.png","圆形","prac_image_first",""
"","","","","","html-keyboard-response","34","257883","0.0-7.0-0.0-1.11","null","<span style='color:GreenYellow; font-size: 70px;'>正确! </span>","null","","","","","","","","","","","","","","","","","","","","","","","feedback_test"
"","","","","","psychophysics","35","259771","0.0-7.0-0.0-0.12","736","","j","","","","","","","","","","","","","key","j","16.545750000000094","768","428","j","true","img/C_ambi40.png","三角","prac_image_first",""
"","","","","","html-keyboard-response","36","260094","0.0-7.0-0.0-1.12","null","<span style='color:GreenYellow; font-size: 70px;'>正确! </span>","null","","","","","","","","","","","","","","","","","","","","","","","feedback_test"
"","","","","","psychophysics","37","262411","0.0-7.0-0.0-0.13","1163","","f","","","","","","","","","","","","","key","f","16.66393478260885","768","428","f","true","img/T_ambi40.png","三角","prac_image_first",""
"","","","","","html-keyboard-response","38","262734","0.0-7.0-0.0-1.13","null","<span style='color:GreenYellow; font-size: 70px;'>正确! </span>","null","","","","","","","","","","","","","","","","","","","","","","","feedback_test"
"","","","","","psychophysics","39","265291","0.0-7.0-0.0-0.14","1405","","f","","","","","","","","","","","","","key","f","16.663684210526345","768","428","f","true","img/S_ambi40.png","方形","prac_image_first",""
"","","","","","html-keyboard-response","40","265603","0.0-7.0-0.0-1.14","null","<span style='color:GreenYellow; font-size: 70px;'>正确! </span>","null","","","","","","","","","","","","","","","","","","","","","","","feedback_test"
"","","","","","psychophysics","41","267302","0.0-7.0-0.0-0.15","542","","j","","","","","","","","","","","","","key","j","16.66396039603958","768","428","j","true","img/T_ambi40.png","圆形","prac_image_first",""
"","","","","","html-keyboard-response","42","267622","0.0-7.0-0.0-1.15","null","<span style='color:GreenYellow; font-size: 70px;'>正确! </span>","null","","","","","","","","","","","","","","","","","","","","","","","feedback_test"
"","","","","","psychophysics","43","269499","0.0-7.0-0.0-0.16","724","","j","","","","","","","","","","","","","key","j","16.66373873873916","768","428","j","true","img/S_ambi40.png","圆形","prac_image_first",""
"","","","","","html-keyboard-response","44","269820","0.0-7.0-0.0-1.16","null","<span style='color:GreenYellow; font-size: 70px;'>正确! </span>","null","","","","","","","","","","","","","","","","","","","","","","","feedback_test"
"","","","","","psychophysics","45","271952","0.0-7.0-0.0-0.17","976","","f","","","","","","","","","","","","","key","f","16.663685039370083","768","428","f","true","img/C_ambi40.png","圆形","prac_image_first",""
"","","","","","html-keyboard-response","46","272267","0.0-7.0-0.0-1.17","null","<span style='color:GreenYellow; font-size: 70px;'>正确! </span>","null","","","","","","","","","","","","","","","","","","","","","","","feedback_test"
"","","","","","psychophysics","47","274071","0.0-7.0-0.0-0.18","647","","j","","","","","","","","","","","","","key","j","16.66397196261667","768","428","j","true","img/T_ambi40.png","方形","prac_image_first",""
"","","","","","html-keyboard-response","48","274389","0.0-7.0-0.0-1.18","null","<span style='color:GreenYellow; font-size: 70px;'>正确! </span>","null","","","","","","","","","","","","","","","","","","","","","","","feedback_test"
"","","","","","psychophysics","49","276194","0.0-7.0-0.0-0.19","650","","j","","","","","","","","","","","","","key","j","16.66355140186916","768","428","j","true","img/S_ambi40.png","三角","prac_image_first",""
"","","","","","html-keyboard-response","50","276498","0.0-7.0-0.0-1.19","null","<span style='color:GreenYellow; font-size: 70px;'>正确! </span>","null","","","","","","","","","","","","","","","","","","","","","","","feedback_test"
"","","","","","psychophysics","51","278313","0.0-7.0-0.0-0.20","663","","j","","","","","","","","","","","","","key","j","16.664242990654415","768","428","j","true","img/C_ambi40.png","方形","prac_image_first",""
"","","","","","html-keyboard-response","52","278617","0.0-7.0-0.0-1.20","null","<span style='color:GreenYellow; font-size: 70px;'>正确! </span>","null","","","","","","","","","","","","","","","","","","","","","","","feedback_test"
"","","","","","psychophysics","53","280612","0.0-7.0-0.0-0.21","835","","f","","","","","","","","","","","","","key","f","16.66411016949194","768","428","f","true","img/S_ambi40.png","方形","prac_image_first",""
"","","","","","html-keyboard-response","54","280932","0.0-7.0-0.0-1.21","null","<span style='color:GreenYellow; font-size: 70px;'>正确! </span>","null","","","","","","","","","","","","","","","","","","","","","","","feedback_test"
"","","","","","psychophysics","55","282622","0.0-7.0-0.0-0.22","535","","j","","","","","","","","","","","","","key","j","16.663219999999857","768","428","f","false","img/T_ambi40.png","三角","prac_image_first",""
"","","","","","html-keyboard-response","56","282930","0.0-7.0-0.0-1.22","null","<span style='color:red; font-size: 70px;'>错误! </span>","null","","","","","","","","","","","","","","","","","","","","","","","feedback_test"
"","","","","","psychophysics","57","285307","0.0-7.0-0.0-0.23","1226","","f","","","","","","","","","","","","","key","f","16.66390070921976","768","428","f","true","img/C_ambi40.png","圆形","prac_image_first",""
"","","","","","html-keyboard-response","58","285625","0.0-7.0-0.0-1.23","null","<span style='color:GreenYellow; font-size: 70px;'>正确! </span>","null","","","","","","","","","","","","","","","","","","","","","","","feedback_test"
"","","","","","html-keyboard-response","59","289961","0.0-8.0","4331","<style>.context{color:white; font-size: 35px; line-height:40px}</style>                            <div><p class='context'>您正确回答了88% 的试次。</p><p class='context'>您的平均反应时为837毫秒。</p><p class='context'>恭喜您完成这一阶段的练习。按任意键进入<span style='color: yellow;'>先文字后图形条件</span>的练习。</p></div>"," ","","","","","","","","","","","","","","","","","","","","","","",""
"","","","","","psychophysics","60","291869","0.0-9.0-0.0-0.0","748","","f","","","","","","","","","","","","","key","f","16.65759292035415","768","428","f","true","img/C_ambi40.png","圆形","prac_word_first",""
"","","","","","html-keyboard-response","61","292180","0.0-9.0-0.0-1.0","null","<span style='color:GreenYellow; font-size: 70px;'>正确! </span>","null","","","","","","","","","","","","","","","","","","","","","","","feedback_test"
"","","","","","psychophysics","62","293883","0.0-9.0-0.0-0.1","552","","j","","","","","","","","","","","","","key","j","16.664227722772274","768","428","j","true","img/C_ambi40.png","方形","prac_word_first",""
"","","","","","html-keyboard-response","63","294206","0.0-9.0-0.0-1.1","null","<span style='color:GreenYellow; font-size: 70px;'>正确! </span>","null","","","","","","","","","","","","","","","","","","","","","","","feedback_test"
"","","","","","psychophysics","64","295976","0.0-9.0-0.0-0.2","617","","f","","","","","","","","","","","","","key","f","16.66409523809506","768","428","f","true","img/T_ambi40.png","三角","prac_word_first",""
"","","","","","html-keyboard-response","65","296292","0.0-9.0-0.0-1.2","null","<span style='color:GreenYellow; font-size: 70px;'>正确! </span>","null","","","","","","","","","","","","","","","","","","","","","","","feedback_test"
"","","","","","psychophysics","66","298139","0.0-9.0-0.0-0.3","694","","f","","","","","","","","","","","","","key","f","16.549284403669485","768","428","f","true","img/C_ambi40.png","圆形","prac_word_first",""
"","","","","","html-keyboard-response","67","298458","0.0-9.0-0.0-1.3","null","<span style='color:GreenYellow; font-size: 70px;'>正确! </span>","null","","","","","","","","","","","","","","","","","","","","","","","feedback_test"
"","","","","","psychophysics","68","300172","0.0-9.0-0.0-0.4","561","","j","","","","","","","","","","","","","key","j","16.66377450980351","768","428","j","true","img/T_ambi40.png","圆形","prac_word_first",""
"","","","","","html-keyboard-response","69","300487","0.0-9.0-0.0-1.4","null","<span style='color:GreenYellow; font-size: 70px;'>正确! </span>","null","","","","","","","","","","","","","","","","","","","","","","","feedback_test"
"","","","","","psychophysics","70","302325","0.0-9.0-0.0-0.5","685","","j","","","","","","","","","","","","","key","j","16.663018348623588","768","428","j","true","img/T_ambi40.png","方形","prac_word_first",""
"","","","","","html-keyboard-response","71","302641","0.0-9.0-0.0-1.5","null","<span style='color:GreenYellow; font-size: 70px;'>正确! </span>","null","","","","","","","","","","","","","","","","","","","","","","","feedback_test"
"","","","","","psychophysics","72","304485","0.0-9.0-0.0-0.6","692","","f","","","","","","","","","","","","","key","f","16.664254545454273","768","428","f","true","img/S_ambi40.png","方形","prac_word_first",""
"","","","","","html-keyboard-response","73","304792","0.0-9.0-0.0-1.6","null","<span style='color:GreenYellow; font-size: 70px;'>正确! </span>","null","","","","","","","","","","","","","","","","","","","","","","","feedback_test"
"","","","","","psychophysics","74","306548","0.0-9.0-0.0-0.7","605","","j","","","","","","","","","","","","","key","j","16.52964423076908","768","428","j","true","img/S_ambi40.png","圆形","prac_word_first",""
"","","","","","html-keyboard-response","75","306869","0.0-9.0-0.0-1.7","null","<span style='color:GreenYellow; font-size: 70px;'>正确! </span>","null","","","","","","","","","","","","","","","","","","","","","","","feedback_test"
"","","","","","psychophysics","76","308654","0.0-9.0-0.0-0.8","630","","j","","","","","","","","","","","","","key","j","16.66368867924551","768","428","j","true","img/C_ambi40.png","三角","prac_word_first",""
"","","","","","html-keyboard-response","77","308960","0.0-9.0-0.0-1.8","null","<span style='color:GreenYellow; font-size: 70px;'>正确! </span>","null","","","","","","","","","","","","","","","","","","","","","","","feedback_test"
"","","","","","psychophysics","78","310827","0.0-9.0-0.0-0.9","714","","f","","","","","","","","","","","","","key","f","16.664405405405503","768","428","f","true","img/T_ambi40.png","三角","prac_word_first",""
"","","","","","html-keyboard-response","79","311151","0.0-9.0-0.0-1.9","null","<span style='color:GreenYellow; font-size: 70px;'>正确! </span>","null","","","","","","","","","","","","","","","","","","","","","","","feedback_test"
"","","","","","psychophysics","80","313030","0.0-9.0-0.0-0.10","725","","f","","","","","","","","","","","","","key","f","16.663517857142974","768","428","f","true","img/S_ambi40.png","方形","prac_word_first",""
"","","","","","html-keyboard-response","81","313341","0.0-9.0-0.0-1.10","null","<span style='color:GreenYellow; font-size: 70px;'>正确! </span>","null","","","","","","","","","","","","","","","","","","","","","","","feedback_test"
"","","","","","psychophysics","82","315040","0.0-9.0-0.0-0.11","548","","j","","","","","","","","","","","","","key","j","16.53329999999958","768","428","j","true","img/S_ambi40.png","三角","prac_word_first",""
"","","","","","html-keyboard-response","83","315358","0.0-9.0-0.0-1.11","null","<span style='color:GreenYellow; font-size: 70px;'>正确! </span>","null","","","","","","","","","","","","","","","","","","","","","","","feedback_test"
"","","","","","psychophysics","84","317515","0.0-9.0-0.0-0.12","1001","","j","","","","","","","","","","","","","key","j","16.663874999999734","768","428","j","true","img/S_ambi40.png","圆形","prac_word_first",""
"","","","","","html-keyboard-response","85","317826","0.0-9.0-0.0-1.12","null","<span style='color:GreenYellow; font-size: 70px;'>正确! </span>","null","","","","","","","","","","","","","","","","","","","","","","","feedback_test"
"","","","","","psychophysics","86","319524","0.0-9.0-0.0-0.13","546","","j","","","","","","","","","","","","","key","j","16.66353999999992","768","428","j","true","img/C_ambi40.png","方形","prac_word_first",""
"","","","","","html-keyboard-response","87","319838","0.0-9.0-0.0-1.13","null","<span style='color:GreenYellow; font-size: 70px;'>正确! </span>","null","","","","","","","","","","","","","","","","","","","","","","","feedback_test"
"","","","","","psychophysics","88","321669","0.0-9.0-0.0-0.14","678","","j","","","","","","","","","","","","","key","j","16.663990825688074","768","428","j","true","img/T_ambi40.png","圆形","prac_word_first",""
"","","","","","html-keyboard-response","89","321979","0.0-9.0-0.0-1.14","null","<span style='color:GreenYellow; font-size: 70px;'>正确! </span>","null","","","","","","","","","","","","","","","","","","","","","","","feedback_test"
"","","","","","psychophysics","90","323656","0.0-9.0-0.0-0.15","519","","f","","","","","","","","","","","","","key","f","16.663797979797543","768","428","f","true","img/T_ambi40.png","三角","prac_word_first",""
"","","","","","html-keyboard-response","91","323966","0.0-9.0-0.0-1.15","null","<span style='color:GreenYellow; font-size: 70px;'>正确! </span>","null","","","","","","","","","","","","","","","","","","","","","","","feedback_test"
"","","","","","psychophysics","92","325835","0.0-9.0-0.0-0.16","715","","f","","","","","","","","","","","","","key","f","16.663585585585547","768","428","f","true","img/S_ambi40.png","方形","prac_word_first",""
"","","","","","html-keyboard-response","93","326153","0.0-9.0-0.0-1.16","null","<span style='color:GreenYellow; font-size: 70px;'>正确! </span>","null","","","","","","","","","","","","","","","","","","","","","","","feedback_test"
"","","","","","psychophysics","94","328013","0.0-9.0-0.0-0.17","707","","f","","","","","","","","","","","","","key","f","16.664117117117154","768","428","f","true","img/S_ambi40.png","方形","prac_word_first",""
"","","","","","html-keyboard-response","95","328333","0.0-9.0-0.0-1.17","null","<span style='color:GreenYellow; font-size: 70px;'>正确! </span>","null","","","","","","","","","","","","","","","","","","","","","","","feedback_test"
"","","","","","psychophysics","96","330012","0.0-9.0-0.0-0.18","524","","j","","","","","","","","","","","","","key","j","16.66357000000018","768","428","j","true","img/T_ambi40.png","方形","prac_word_first",""
"","","","","","html-keyboard-response","97","330324","0.0-9.0-0.0-1.18","null","<span style='color:GreenYellow; font-size: 70px;'>正确! </span>","null","","","","","","","","","","","","","","","","","","","","","","","feedback_test"
"","","","","","psychophysics","98","332090","0.0-9.0-0.0-0.19","609","","f","","","","","","","","","","","","","key","f","16.66395238095207","768","428","f","true","img/C_ambi40.png","圆形","prac_word_first",""
"","","","","","html-keyboard-response","99","332408","0.0-9.0-0.0-1.19","null","<span style='color:GreenYellow; font-size: 70px;'>正确! </span>","null","","","","","","","","","","","","","","","","","","","","","","","feedback_test"
"","","","","","psychophysics","100","334152","0.0-9.0-0.0-0.20","592","","j","","","","","","","","","","","","","key","j","16.663854368932395","768","428","j","true","img/C_ambi40.png","三角","prac_word_first",""
"","","","","","html-keyboard-response","101","334468","0.0-9.0-0.0-1.20","null","<span style='color:GreenYellow; font-size: 70px;'>正确! </span>","null","","","","","","","","","","","","","","","","","","","","","","","feedback_test"
"","","","","","psychophysics","102","336151","0.0-9.0-0.0-0.21","530","","j","","","","","","","","","","","","","key","j","16.663649999999908","768","428","j","true","img/S_ambi40.png","三角","prac_word_first",""
"","","","","","html-keyboard-response","103","336471","0.0-9.0-0.0-1.21","null","<span style='color:GreenYellow; font-size: 70px;'>正确! </span>","null","","","","","","","","","","","","","","","","","","","","","","","feedback_test"
"","","","","","psychophysics","104","338130","0.0-9.0-0.0-0.22","504","","f","","","","","","","","","","","","","key","f","16.664632653061428","768","428","f","true","img/C_ambi40.png","圆形","prac_word_first",""
"","","","","","html-keyboard-response","105","338436","0.0-9.0-0.0-1.22","null","<span style='color:GreenYellow; font-size: 70px;'>正确! </span>","null","","","","","","","","","","","","","","","","","","","","","","","feedback_test"
"","","","","","psychophysics","106","340178","0.0-9.0-0.0-0.23","591","","f","","","","","","","","","","","","","key","f","16.663854368932395","768","428","f","true","img/T_ambi40.png","三角","prac_word_first",""
"","","","","","html-keyboard-response","107","340481","0.0-9.0-0.0-1.23","null","<span style='color:GreenYellow; font-size: 70px;'>正确! </span>","null","","","","","","","","","","","","","","","","","","","","","","","feedback_test"
"","","","","","html-keyboard-response","108","343297","0.0-10.0","2814","<style>.context{color:white; font-size: 35px; line-height:40px}</style>                            <div><p class='context'>您正确回答了100% 的试次。</p><p class='context'>您的平均反应时为637毫秒。</p><p class='context'>恭喜您完成练习。按任意键进入<span style='color: yellow;'>图形和文字同时呈现条件</span>的练习。</p></div>"," ","","","","","","","","","","","","","","","","","","","","","","",""
"","","","","","psychophysics","109","345094","0.0-11.0-0.0-0.0","791","","f","","","","","","","","","","","","","key","f","16.664411214952768","768","428","f","true","img/C_ambi40.png","圆形","prac_simultaneous",""
"","","","","","html-keyboard-response","110","345410","0.0-11.0-0.0-1.0","null","<span style='color:GreenYellow; font-size: 70px;'>正确! </span>","null","","","","","","","","","","","","","","","","","","","","","","","feedback_test"
"","","","","","psychophysics","111","347277","0.0-11.0-0.0-0.1","860","","f","","","","","","","","","","","","","key","f","16.664063063063157","768","428","f","true","img/T_ambi40.png","三角","prac_simultaneous",""
"","","","","","html-keyboard-response","112","347588","0.0-11.0-0.0-1.1","null","<span style='color:GreenYellow; font-size: 70px;'>正确! </span>","null","","","","","","","","","","","","","","","","","","","","","","","feedback_test"
"","","","","","psychophysics","113","349289","0.0-11.0-0.0-0.2","696","","j","","","","","","","","","","","","","key","j","16.663792079207973","768","428","j","true","img/S_ambi40.png","三角","prac_simultaneous",""
"","","","","","html-keyboard-response","114","349602","0.0-11.0-0.0-1.2","null","<span style='color:GreenYellow; font-size: 70px;'>正确! </span>","null","","","","","","","","","","","","","","","","","","","","","","","feedback_test"
"","","","","","psychophysics","115","351209","0.0-11.0-0.0-0.3","600","","f","","","","","","","","","","","","","key","f","16.664210526316158","768","428","f","true","img/C_ambi40.png","圆形","prac_simultaneous",""
"","","","","","html-keyboard-response","116","351515","0.0-11.0-0.0-1.3","null","<span style='color:GreenYellow; font-size: 70px;'>正确! </span>","null","","","","","","","","","","","","","","","","","","","","","","","feedback_test"
"","","","","","psychophysics","117","353358","0.0-11.0-0.0-0.4","840","","f","","","","","","","","","","","","","key","f","16.6634636363639","768","428","f","true","img/T_ambi40.png","三角","prac_simultaneous",""
"","","","","","html-keyboard-response","118","353668","0.0-11.0-0.0-1.4","null","<span style='color:GreenYellow; font-size: 70px;'>正确! </span>","null","","","","","","","","","","","","","","","","","","","","","","","feedback_test"
"","","","","","psychophysics","119","355563","0.0-11.0-0.0-0.5","894","","j","","","","","","","","","","","","","key","j","16.66390178571393","768","428","j","true","img/S_ambi40.png","圆形","prac_simultaneous",""
"","","","","","html-keyboard-response","120","355865","0.0-11.0-0.0-1.5","null","<span style='color:GreenYellow; font-size: 70px;'>正确! </span>","null","","","","","","","","","","","","","","","","","","","","","","","feedback_test"
"","","","","","psychophysics","121","357661","0.0-11.0-0.0-0.6","794","","j","","","","","","","","","","","","","key","j","16.548405660377302","768","428","j","true","img/C_ambi40.png","方形","prac_simultaneous",""
"","","","","","html-keyboard-response","122","357971","0.0-11.0-0.0-1.6","null","<span style='color:GreenYellow; font-size: 70px;'>正确! </span>","null","","","","","","","","","","","","","","","","","","","","","","","feedback_test"
"","","","","","psychophysics","123","359594","0.0-11.0-0.0-0.7","617","","f","","","","","","","","","","","","","key","f","16.664010416666617","768","428","f","true","img/S_ambi40.png","方形","prac_simultaneous",""
"","","","","","html-keyboard-response","124","359907","0.0-11.0-0.0-1.7","null","<span style='color:GreenYellow; font-size: 70px;'>正确! </span>","null","","","","","","","","","","","","","","","","","","","","","","","feedback_test"
"","","","","","psychophysics","125","361911","0.0-11.0-0.0-0.8","999","","j","","","","","","","","","","","","","key","j","16.664008403361283","768","428","j","true","img/T_ambi40.png","方形","prac_simultaneous",""
"","","","","","html-keyboard-response","126","362221","0.0-11.0-0.0-1.8","null","<span style='color:GreenYellow; font-size: 70px;'>正确! </span>","null","","","","","","","","","","","","","","","","","","","","","","","feedback_test"
"","","","","","psychophysics","127","363893","0.0-11.0-0.0-0.9","669","","j","","","","","","","","","","","","","key","j","16.66375757575757","768","428","j","true","img/C_ambi40.png","三角","prac_simultaneous",""
"","","","","","html-keyboard-response","128","364215","0.0-11.0-0.0-1.9","null","<span style='color:GreenYellow; font-size: 70px;'>正确! </span>","null","","","","","","","","","","","","","","","","","","","","","","","feedback_test"
"","","","","","psychophysics","129","365821","0.0-11.0-0.0-0.10","605","","f","","","","","","","","","","","","","key","f","16.663768421052833","768","428","f","true","img/S_ambi40.png","方形","prac_simultaneous",""
"","","","","","html-keyboard-response","130","366140","0.0-11.0-0.0-1.10","null","<span style='color:GreenYellow; font-size: 70px;'>正确! </span>","null","","","","","","","","","","","","","","","","","","","","","","","feedback_test"
"","","","","","psychophysics","131","367696","0.0-11.0-0.0-0.11","552","","j","","","","","","","","","","","","","key","j","16.664195652174225","768","428","j","true","img/T_ambi40.png","圆形","prac_simultaneous",""
"","","","","","html-keyboard-response","132","368014","0.0-11.0-0.0-1.11","null","<span style='color:GreenYellow; font-size: 70px;'>正确! </span>","null","","","","","","","","","","","","","","","","","","","","","","","feedback_test"
"","","","","","psychophysics","133","369752","0.0-11.0-0.0-0.12","736","","j","","","","","","","","","","","","","key","j","16.663718446602058","768","428","j","true","img/T_ambi40.png","方形","prac_simultaneous",""
"","","","","","html-keyboard-response","134","370060","0.0-11.0-0.0-1.12","null","<span style='color:GreenYellow; font-size: 70px;'>正确! </span>","null","","","","","","","","","","","","","","","","","","","","","","","feedback_test"
"","","","","","psychophysics","135","371855","0.0-11.0-0.0-0.13","791","","j","","","","","","","","","","","","","key","j","16.66440186915902","768","428","j","true","img/S_ambi40.png","圆形","prac_simultaneous",""
"","","","","","html-keyboard-response","136","372163","0.0-11.0-0.0-1.13","null","<span style='color:GreenYellow; font-size: 70px;'>正确! </span>","null","","","","","","","","","","","","","","","","","","","","","","","feedback_test"
"","","","","","psychophysics","137","374108","0.0-11.0-0.0-0.14","944","","f","","","","","","","","","","","","","key","f","16.66432173913041","768","428","f","true","img/C_ambi40.png","圆形","prac_simultaneous",""
"","","","","","html-keyboard-response","138","374424","0.0-11.0-0.0-1.14","null","<span style='color:GreenYellow; font-size: 70px;'>正确! </span>","null","","","","","","","","","","","","","","","","","","","","","","","feedback_test"
"","","","","","psychophysics","139","376140","0.0-11.0-0.0-0.15","710","","f","","","","","","","","","","","","","key","f","16.66272549019606","768","428","f","true","img/S_ambi40.png","方形","prac_simultaneous",""
"","","","","","html-keyboard-response","140","376450","0.0-11.0-0.0-1.15","null","<span style='color:GreenYellow; font-size: 70px;'>正确! </span>","null","","","","","","","","","","","","","","","","","","","","","","","feedback_test"
"","","","","","psychophysics","141","378153","0.0-11.0-0.0-0.16","697","","f","","","","","","","","","","","","","key","f","16.663633663366355","768","428","f","true","img/T_ambi40.png","三角","prac_simultaneous",""
"","","","","","html-keyboard-response","142","378471","0.0-11.0-0.0-1.16","null","<span style='color:GreenYellow; font-size: 70px;'>正确! </span>","null","","","","","","","","","","","","","","","","","","","","","","","feedback_test"
"","","","","","psychophysics","143","380283","0.0-11.0-0.0-0.17","804","","f","","","","","","","","","","","","","key","f","16.663129629629786","768","428","f","true","img/T_ambi40.png","三角","prac_simultaneous",""
"","","","","","html-keyboard-response","144","380592","0.0-11.0-0.0-1.17","null","<span style='color:GreenYellow; font-size: 70px;'>正确! </span>","null","","","","","","","","","","","","","","","","","","","","","","","feedback_test"
"","","","","","psychophysics","145","382527","0.0-11.0-0.0-0.18","933","","j","","","","","","","","","","","","","key","j","16.663886956521814","768","428","j","true","img/C_ambi40.png","方形","prac_simultaneous",""
"","","","","","html-keyboard-response","146","382837","0.0-11.0-0.0-1.18","null","<span style='color:GreenYellow; font-size: 70px;'>正确! </span>","null","","","","","","","","","","","","","","","","","","","","","","","feedback_test"
"","","","","","psychophysics","147","384497","0.0-11.0-0.0-0.19","656","","j","","","","","","","","","","","","","key","j","16.663727272727005","768","428","j","true","img/T_ambi40.png","圆形","prac_simultaneous",""
"","","","","","html-keyboard-response","148","384806","0.0-11.0-0.0-1.19","null","<span style='color:GreenYellow; font-size: 70px;'>正确! </span>","null","","","","","","","","","","","","","","","","","","","","","","","feedback_test"
"","","","","","psychophysics","149","386553","0.0-11.0-0.0-0.20","746","","j","","","","","","","","","","","","","key","j","16.66348076923112","768","428","j","true","img/S_ambi40.png","三角","prac_simultaneous",""
"","","","","","html-keyboard-response","150","386861","0.0-11.0-0.0-1.20","null","<span style='color:GreenYellow; font-size: 70px;'>正确! </span>","null","","","","","","","","","","","","","","","","","","","","","","","feedback_test"
"","","","","","psychophysics","151","388416","0.0-11.0-0.0-0.21","554","","f","","","","","","","","","","","","","key","f","16.663880434782502","768","428","f","true","img/C_ambi40.png","圆形","prac_simultaneous",""
"","","","","","html-keyboard-response","152","388735","0.0-11.0-0.0-1.21","null","<span style='color:GreenYellow; font-size: 70px;'>正确! </span>","null","","","","","","","","","","","","","","","","","","","","","","","feedback_test"
"","","","","","psychophysics","153","390398","0.0-11.0-0.0-0.22","654","","j","","","","","","","","","","","","","key","j","16.663282828282618","768","428","j","true","img/C_ambi40.png","三角","prac_simultaneous",""
"","","","","","html-keyboard-response","154","390717","0.0-11.0-0.0-1.22","null","<span style='color:GreenYellow; font-size: 70px;'>正确! </span>","null","","","","","","","","","","","","","","","","","","","","","","","feedback_test"
"","","","","","psychophysics","155","392369","0.0-11.0-0.0-0.23","650","","f","","","","","","","","","","","","","key","f","16.66352040816291","768","428","f","true","img/S_ambi40.png","方形","prac_simultaneous",""
"","","","","","html-keyboard-response","156","392673","0.0-11.0-0.0-1.23","null","<span style='color:GreenYellow; font-size: 70px;'>正确! </span>","null","","","","","","","","","","","","","","","","","","","","","","","feedback_test"
"","","","","","html-keyboard-response","157","397488","0.0-12.0","4813","<style>.context{color:white; font-size: 35px; line-height:40px}</style>                            <div><p class='context'>您正确回答了100% 的试次。</p><p class='context'>您的平均反应时为741毫秒。</p><p class='context'>恭喜您完成练习。按任意键进入正式实验。</p><p class='footer' style='font-size: 35px; line-height:40px;'>请在进入正式实验实验之前将您的<span style='color: lightgreen;'>食指</span>放在电脑键盘的相应键位上进行按键。</p>"," ","","","","","","","","","","","","","","","","","","","","","","",""
"","","","","","html-keyboard-response","158","399346","0.0-13.0-1.0-0.0","1854","
    <p>请您将手指放在按键上，准备进入呈现顺序为<span style='color: yellow;'>先文字后图形条件</span>的正式匹配任务</p>
    <p> <div style = ""color: green""><按任意键进入下一阶段的匹配任务></div></p>
    "," ","","","","","","","","","","","","","","","","","","","","","","",""
"","","","","","psychophysics","159","401110","0.0-13.0-1.0-1.0-0.0-0.0","606","","j","","","","","","","","","","","","","key","j","16.663466666667123","768","428","j","true","img/S_ambi40.png","圆形","word_first",""
"","","","","","html-keyboard-response","160","401431","0.0-13.0-1.0-1.0-0.0-1.0","null","<span style='color:GreenYellow; font-size: 70px;'>正确! </span>","null","","","","","","","","","","","","","","","","","","","","","","","feedback_test"
"","","","","","psychophysics","161","403038","0.0-13.0-1.0-1.0-0.0-0.1","454","","f","","","","","","","","","","","","","key","f","16.663368421052215","768","428","f","true","img/S_ambi40.png","方形","word_first",""
"","","","","","html-keyboard-response","162","403350","0.0-13.0-1.0-1.0-0.0-1.1","null","<span style='color:GreenYellow; font-size: 70px;'>正确! </span>","null","","","","","","","","","","","","","","","","","","","","","","","feedback_test"
"","","","","","psychophysics","163","405044","0.0-13.0-1.0-1.0-0.0-0.2","540","","j","","","","","","","","","","","","","key","j","16.66357425742582","768","428","j","true","img/S_ambi40.png","三角","word_first",""
"","","","","","html-keyboard-response","164","405354","0.0-13.0-1.0-1.0-0.0-1.2","null","<span style='color:GreenYellow; font-size: 70px;'>正确! </span>","null","","","","","","","","","","","","","","","","","","","","","","","feedback_test"
"","","","","","psychophysics","165","407415","0.0-13.0-1.0-1.0-0.0-0.3","908","","j","","","","","","","","","","","","","key","j","16.664170731707546","768","428","j","true","img/C_ambi40.png","方形","word_first",""
"","","","","","html-keyboard-response","166","407728","0.0-13.0-1.0-1.0-0.0-1.3","null","<span style='color:GreenYellow; font-size: 70px;'>正确! </span>","null","","","","","","","","","","","","","","","","","","","","","","","feedback_test"
"","","","","","psychophysics","167","409482","0.0-13.0-1.0-1.0-0.0-0.4","602","","j","","","","","","","","","","","","","key","j","16.66370192307715","768","428","j","true","img/T_ambi40.png","方形","word_first",""
"","","","","","html-keyboard-response","168","409798","0.0-13.0-1.0-1.0-0.0-1.4","null","<span style='color:GreenYellow; font-size: 70px;'>正确! </span>","null","","","","","","","","","","","","","","","","","","","","","","","feedback_test"
"","","","","","psychophysics","169","411417","0.0-13.0-1.0-1.0-0.0-0.5","466","","f","","","","","","","","","","","","","key","f","16.66540625000016","768","428","f","true","img/S_ambi40.png","方形","word_first",""
"","","","","","html-keyboard-response","170","411730","0.0-13.0-1.0-1.0-0.0-1.5","null","<span style='color:GreenYellow; font-size: 70px;'>正确! </span>","null","","","","","","","","","","","","","","","","","","","","","","","feedback_test"
"","","","","","psychophysics","171","413446","0.0-13.0-1.0-1.0-0.0-0.6","557","","j","","","","","","","","","","","","","key","j","16.663666666666842","768","428","j","true","img/C_ambi40.png","三角","word_first",""
"","","","","","html-keyboard-response","172","413754","0.0-13.0-1.0-1.0-0.0-1.6","null","<span style='color:GreenYellow; font-size: 70px;'>正确! </span>","null","","","","","","","","","","","","","","","","","","","","","","","feedback_test"
"","","","","","psychophysics","173","415562","0.0-13.0-1.0-1.0-0.0-0.7","656","","j","","","","","","","","","","","","","key","j","16.66532710280376","768","428","j","true","img/T_ambi40.png","圆形","word_first",""
"","","","","","html-keyboard-response","174","415866","0.0-13.0-1.0-1.0-0.0-1.7","null","<span style='color:GreenYellow; font-size: 70px;'>正确! </span>","null","","","","","","","","","","","","","","","","","","","","","","","feedback_test"
"","","","","","psychophysics","175","417632","0.0-13.0-1.0-1.0-0.0-0.8","611","","f","","","","","","","","","","","","","key","f","16.663790476190236","768","428","f","true","img/T_ambi40.png","三角","word_first",""
"","","","","","html-keyboard-response","176","417941","0.0-13.0-1.0-1.0-0.0-1.8","null","<span style='color:GreenYellow; font-size: 70px;'>正确! </span>","null","","","","","","","","","","","","","","","","","","","","","","","feedback_test"
"","","","","","psychophysics","177","419647","0.0-13.0-1.0-1.0-0.0-0.9","551","","f","","","","","","","","","","","","","key","f","16.66297029702991","768","428","f","true","img/C_ambi40.png","圆形","word_first",""
"","","","","","html-keyboard-response","178","419965","0.0-13.0-1.0-1.0-0.0-1.9","null","<span style='color:GreenYellow; font-size: 70px;'>正确! </span>","null","","","","","","","","","","","","","","","","","","","","","","","feedback_test"
"","","","","","psychophysics","179","421714","0.0-13.0-1.0-1.0-0.0-0.10","593","","f","","","","","","","","","","","","","key","f","16.663942307692196","768","428","f","true","img/T_ambi40.png","三角","word_first",""
"","","","","","html-keyboard-response","180","422031","0.0-13.0-1.0-1.0-0.0-1.10","null","<span style='color:GreenYellow; font-size: 70px;'>正确! </span>","null","","","","","","","","","","","","","","","","","","","","","","","feedback_test"
"","","","","","psychophysics","181","423727","0.0-13.0-1.0-1.0-0.0-0.11","543","","f","","","","","","","","","","","","","key","f","16.66299999999989","768","428","f","true","img/C_ambi40.png","圆形","word_first",""
"","","","","","html-keyboard-response","182","424032","0.0-13.0-1.0-1.0-0.0-1.11","null","<span style='color:GreenYellow; font-size: 70px;'>正确! </span>","null","","","","","","","","","","","","","","","","","","","","","","","feedback_test"
"","","","","","psychophysics","183","425684","0.0-13.0-1.0-1.0-0.0-0.12","500","","f","","","","","","","","","","","","","key","f","16.66426530612243","768","428","f","true","img/C_ambi40.png","圆形","word_first",""
"","","","","","html-keyboard-response","184","426000","0.0-13.0-1.0-1.0-0.0-1.12","null","<span style='color:GreenYellow; font-size: 70px;'>正确! </span>","null","","","","","","","","","","","","","","","","","","","","","","","feedback_test"
"","","","","","psychophysics","185","427809","0.0-13.0-1.0-1.0-0.0-0.13","656","","j","","","","","","","","","","","","","key","j","16.66348148148164","768","428","j","true","img/S_ambi40.png","圆形","word_first",""
"","","","","","html-keyboard-response","186","428122","0.0-13.0-1.0-1.0-0.0-1.13","null","<span style='color:GreenYellow; font-size: 70px;'>正确! </span>","null","","","","","","","","","","","","","","","","","","","","","","","feedback_test"
"","","","","","psychophysics","187","429968","0.0-13.0-1.0-1.0-0.0-0.14","687","","f","","","","","","","","","","","","","key","f","16.663458715596157","768","428","f","true","img/T_ambi40.png","三角","word_first",""
"","","","","","html-keyboard-response","188","430274","0.0-13.0-1.0-1.0-0.0-1.14","null","<span style='color:GreenYellow; font-size: 70px;'>正确! </span>","null","","","","","","","","","","","","","","","","","","","","","","","feedback_test"
"","","","","","psychophysics","189","431982","0.0-13.0-1.0-1.0-0.0-0.15","551","","j","","","","","","","","","","","","","key","j","16.66431683168336","768","428","j","true","img/C_ambi40.png","方形","word_first",""
"","","","","","html-keyboard-response","190","432289","0.0-13.0-1.0-1.0-0.0-1.15","null","<span style='color:GreenYellow; font-size: 70px;'>正确! </span>","null","","","","","","","","","","","","","","","","","","","","","","","feedback_test"
"","","","","","psychophysics","191","434245","0.0-13.0-1.0-1.0-0.0-0.16","796","","f","","","","","","","","","","","","","key","f","16.663784482758714","768","428","f","true","img/T_ambi40.png","三角","word_first",""
"","","","","","html-keyboard-response","192","434564","0.0-13.0-1.0-1.0-0.0-1.16","null","<span style='color:GreenYellow; font-size: 70px;'>正确! </span>","null","","","","","","","","","","","","","","","","","","","","","","","feedback_test"
"","","","","","psychophysics","193","436327","0.0-13.0-1.0-1.0-0.0-0.17","609","","j","","","","","","","","","","","","","key","j","16.663952380952626","768","428","j","true","img/S_ambi40.png","三角","word_first",""
"","","","","","html-keyboard-response","194","436642","0.0-13.0-1.0-1.0-0.0-1.17","null","<span style='color:GreenYellow; font-size: 70px;'>正确! </span>","null","","","","","","","","","","","","","","","","","","","","","","","feedback_test"
"","","","","","psychophysics","195","438272","0.0-13.0-1.0-1.0-0.0-0.18","471","","j","","","","","","","","","","","","","key","j","16.664030927835277","768","428","j","true","img/T_ambi40.png","方形","word_first",""
"","","","","","html-keyboard-response","196","438576","0.0-13.0-1.0-1.0-0.0-1.18","null","<span style='color:GreenYellow; font-size: 70px;'>正确! </span>","null","","","","","","","","","","","","","","","","","","","","","","","feedback_test"
"","","","","","psychophysics","197","440416","0.0-13.0-1.0-1.0-0.0-0.19","688","","f","","","","","","","","","","","","","key","f","16.663798165137543","768","428","f","true","img/S_ambi40.png","方形","word_first",""
"","","","","","html-keyboard-response","198","440731","0.0-13.0-1.0-1.0-0.0-1.19","null","<span style='color:GreenYellow; font-size: 70px;'>正确! </span>","null","","","","","","","","","","","","","","","","","","","","","","","feedback_test"
"","","","","","psychophysics","199","442391","0.0-13.0-1.0-1.0-0.0-0.20","508","","f","","","","","","","","","","","","","key","f","16.66444444444414","768","428","f","true","img/C_ambi40.png","圆形","word_first",""
"","","","","","html-keyboard-response","200","442696","0.0-13.0-1.0-1.0-0.0-1.20","null","<span style='color:GreenYellow; font-size: 70px;'>正确! </span>","null","","","","","","","","","","","","","","","","","","","","","","","feedback_test"
"","","","","","psychophysics","201","444451","0.0-13.0-1.0-1.0-0.0-0.21","602","","f","","","","","","","","","","","","","key","f","16.66408571428564","768","428","f","true","img/S_ambi40.png","方形","word_first",""
"","","","","","html-keyboard-response","202","444760","0.0-13.0-1.0-1.0-0.0-1.21","null","<span style='color:GreenYellow; font-size: 70px;'>正确! </span>","null","","","","","","","","","","","","","","","","","","","","","","","feedback_test"
"","","","","","psychophysics","203","446435","0.0-13.0-1.0-1.0-0.0-0.22","523","","j","","","","","","","","","","","","","key","j","16.663580000000074","768","428","j","true","img/C_ambi40.png","三角","word_first",""
"","","","","","html-keyboard-response","204","446744","0.0-13.0-1.0-1.0-0.0-1.22","null","<span style='color:GreenYellow; font-size: 70px;'>正确! </span>","null","","","","","","","","","","","","","","","","","","","","","","","feedback_test"
"","","","","","psychophysics","205","448538","0.0-13.0-1.0-1.0-0.0-0.23","642","","j","","","","","","","","","","","","","key","j","16.663046728971928","768","428","j","true","img/T_ambi40.png","圆形","word_first",""
"","","","","","html-keyboard-response","206","448843","0.0-13.0-1.0-1.0-0.0-1.23","null","<span style='color:GreenYellow; font-size: 70px;'>正确! </span>","null","","","","","","","","","","","","","","","","","","","","","","","feedback_test"
"","","","","","psychophysics","207","450753","0.0-13.0-1.0-1.0-0.0-0.24","754","","j","","","","","","","","","","","","","key","j","16.663833333333553","768","428","j","true","img/S_ambi40.png","三角","word_first",""
"","","","","","html-keyboard-response","208","451065","0.0-13.0-1.0-1.0-0.0-1.24","null","<span style='color:GreenYellow; font-size: 70px;'>正确! </span>","null","","","","","","","","","","","","","","","","","","","","","","","feedback_test"
"","","","","","psychophysics","209","452704","0.0-13.0-1.0-1.0-0.0-0.25","487","","f","","","","","","","","","","","","","key","f","16.66453608247384","768","428","f","true","img/C_ambi40.png","圆形","word_first",""
"","","","","","html-keyboard-response","210","453018","0.0-13.0-1.0-1.0-0.0-1.25","null","<span style='color:GreenYellow; font-size: 70px;'>正确! </span>","null","","","","","","","","","","","","","","","","","","","","","","","feedback_test"
"","","","","","psychophysics","211","454701","0.0-13.0-1.0-1.0-0.0-0.26","524","","j","","","","","","","","","","","","","key","j","16.663889999999665","768","428","j","true","img/T_ambi40.png","圆形","word_first",""
"","","","","","html-keyboard-response","212","455016","0.0-13.0-1.0-1.0-0.0-1.26","null","<span style='color:GreenYellow; font-size: 70px;'>正确! </span>","null","","","","","","","","","","","","","","","","","","","","","","","feedback_test"
"","","","","","psychophysics","213","456857","0.0-13.0-1.0-1.0-0.0-0.27","688","","j","","","","","","","","","","","","","key","j","16.663577981651525","768","428","j","true","img/T_ambi40.png","方形","word_first",""
"","","","","","html-keyboard-response","214","457166","0.0-13.0-1.0-1.0-0.0-1.27","null","<span style='color:GreenYellow; font-size: 70px;'>正确! </span>","null","","","","","","","","","","","","","","","","","","","","","","","feedback_test"
"","","","","","psychophysics","215","459136","0.0-13.0-1.0-1.0-0.0-0.28","815","","f","","","","","","","","","","","","","key","f","16.6640769230768","768","428","f","true","img/S_ambi40.png","方形","word_first",""
"","","","","","html-keyboard-response","216","459452","0.0-13.0-1.0-1.0-0.0-1.28","null","<span style='color:GreenYellow; font-size: 70px;'>正确! </span>","null","","","","","","","","","","","","","","","","","","","","","","","feedback_test"
"","","","","","psychophysics","217","461192","0.0-13.0-1.0-1.0-0.0-0.29","584","","f","","","","","","","","","","","","","key","f","16.663834951456312","768","428","f","true","img/T_ambi40.png","三角","word_first",""
"","","","","","html-keyboard-response","218","461501","0.0-13.0-1.0-1.0-0.0-1.29","null","<span style='color:GreenYellow; font-size: 70px;'>正确! </span>","null","","","","","","","","","","","","","","","","","","","","","","","feedback_test"
"","","","","","psychophysics","219","463087","0.0-13.0-1.0-1.0-0.0-0.30","430","","f","","","","","","","","","","","","","key","f","16.663968085106386","768","428","f","true","img/T_ambi40.png","三角","word_first",""
"","","","","","html-keyboard-response","220","463401","0.0-13.0-1.0-1.0-0.0-1.30","null","<span style='color:GreenYellow; font-size: 70px;'>正确! </span>","null","","","","","","","","","","","","","","","","","","","","","","","feedback_test"
"","","","","","psychophysics","221","465005","0.0-13.0-1.0-1.0-0.0-0.31","445","","f","","","","","","","","","","","","","key","f","16.663568421052524","768","428","f","true","img/C_ambi40.png","圆形","word_first",""
"","","","","","html-keyboard-response","222","465323","0.0-13.0-1.0-1.0-0.0-1.31","null","<span style='color:GreenYellow; font-size: 70px;'>正确! </span>","null","","","","","","","","","","","","","","","","","","","","","","","feedback_test"
"","","","","","psychophysics","223","467020","0.0-13.0-1.0-1.0-0.0-0.32","540","","j","","","","","","","","","","","","","key","j","16.66347524752474","768","428","j","true","img/S_ambi40.png","圆形","word_first",""
"","","","","","html-keyboard-response","224","467329","0.0-13.0-1.0-1.0-0.0-1.32","null","<span style='color:GreenYellow; font-size: 70px;'>正确! </span>","null","","","","","","","","","","","","","","","","","","","","","","","feedback_test"
"","","","","","psychophysics","225","469038","0.0-13.0-1.0-1.0-0.0-0.33","558","","j","","","","","","","","","","","","","key","j","16.663792079207973","768","428","j","true","img/C_ambi40.png","方形","word_first",""
"","","","","","html-keyboard-response","226","469359","0.0-13.0-1.0-1.0-0.0-1.33","null","<span style='color:GreenYellow; font-size: 70px;'>正确! </span>","null","","","","","","","","","","","","","","","","","","","","","","","feedback_test"
"","","","","","psychophysics","227","471126","0.0-13.0-1.0-1.0-0.0-0.34","615","","j","","","","","","","","","","","","","key","j","16.66324761904765","768","428","j","true","img/C_ambi40.png","三角","word_first",""
"","","","","","html-keyboard-response","228","471437","0.0-13.0-1.0-1.0-0.0-1.34","null","<span style='color:GreenYellow; font-size: 70px;'>正确! </span>","null","","","","","","","","","","","","","","","","","","","","","","","feedback_test"
"","","","","","psychophysics","229","473122","0.0-13.0-1.0-1.0-0.0-0.35","529","","f","","","","","","","","","","","","","key","f","16.663459999999613","768","428","f","true","img/S_ambi40.png","方形","word_first",""
"","","","","","html-keyboard-response","230","473439","0.0-13.0-1.0-1.0-0.0-1.35","null","<span style='color:GreenYellow; font-size: 70px;'>正确! </span>","null","","","","","","","","","","","","","","","","","","","","","","","feedback_test"
"","","","","","psychophysics","231","475088","0.0-13.0-1.0-1.0-0.0-0.36","495","","j","","","","","","","","","","","","","key","j","16.662806122449147","768","428","j","true","img/S_ambi40.png","三角","word_first",""
"","","","","","html-keyboard-response","232","475403","0.0-13.0-1.0-1.0-0.0-1.36","null","<span style='color:GreenYellow; font-size: 70px;'>正确! </span>","null","","","","","","","","","","","","","","","","","","","","","","","feedback_test"
"","","","","","psychophysics","233","477017","0.0-13.0-1.0-1.0-0.0-0.37","457","","f","","","","","","","","","","","","","key","f","16.664177083333318","768","428","f","true","img/T_ambi40.png","三角","word_first",""
"","","","","","html-keyboard-response","234","477330","0.0-13.0-1.0-1.0-0.0-1.37","null","<span style='color:GreenYellow; font-size: 70px;'>正确! </span>","null","","","","","","","","","","","","","","","","","","","","","","","feedback_test"
"","","","","","psychophysics","235","479030","0.0-13.0-1.0-1.0-0.0-0.38","541","","j","","","","","","","","","","","","","key","j","16.66347524752474","768","428","j","true","img/S_ambi40.png","圆形","word_first",""
"","","","","","html-keyboard-response","236","479343","0.0-13.0-1.0-1.0-0.0-1.38","null","<span style='color:GreenYellow; font-size: 70px;'>正确! </span>","null","","","","","","","","","","","","","","","","","","","","","","","feedback_test"
"","","","","","psychophysics","237","480983","0.0-13.0-1.0-1.0-0.0-0.39","489","","f","","","","","","","","","","","","","key","f","16.663659793814432","768","428","f","true","img/C_ambi40.png","圆形","word_first",""
"","","","","","html-keyboard-response","238","481300","0.0-13.0-1.0-1.0-0.0-1.39","null","<span style='color:GreenYellow; font-size: 70px;'>正确! </span>","null","","","","","","","","","","","","","","","","","","","","","","","feedback_test"
"","","","","","psychophysics","239","482899","0.0-13.0-1.0-1.0-0.0-0.40","442","","f","","","","","","","","","","","","","key","f","16.663526315789817","768","428","f","true","img/C_ambi40.png","圆形","word_first",""
"","","","","","html-keyboard-response","240","483202","0.0-13.0-1.0-1.0-0.0-1.40","null","<span style='color:GreenYellow; font-size: 70px;'>正确! </span>","null","","","","","","","","","","","","","","","","","","","","","","","feedback_test"
"","","","","","psychophysics","241","484890","0.0-13.0-1.0-1.0-0.0-0.41","532","","f","","","","","","","","","","","","","key","f","16.66407999999996","768","428","f","true","img/T_ambi40.png","三角","word_first",""
"","","","","","html-keyboard-response","242","485204","0.0-13.0-1.0-1.0-0.0-1.41","null","<span style='color:GreenYellow; font-size: 70px;'>正确! </span>","null","","","","","","","","","","","","","","","","","","","","","","","feedback_test"
"","","","","","psychophysics","243","486840","0.0-13.0-1.0-1.0-0.0-0.42","482","","j","","","","","","","","","","","","","key","j","16.663721649484472","768","428","j","true","img/T_ambi40.png","方形","word_first",""
"","","","","","html-keyboard-response","244","487156","0.0-13.0-1.0-1.0-0.0-1.42","null","<span style='color:GreenYellow; font-size: 70px;'>正确! </span>","null","","","","","","","","","","","","","","","","","","","","","","","feedback_test"
"","","","","","psychophysics","245","488894","0.0-13.0-1.0-1.0-0.0-0.43","587","","f","","","","","","","","","","","","","key","f","16.664307692308146","768","428","f","true","img/S_ambi40.png","方形","word_first",""
"","","","","","html-keyboard-response","246","489215","0.0-13.0-1.0-1.0-0.0-1.43","null","<span style='color:GreenYellow; font-size: 70px;'>正确! </span>","null","","","","","","","","","","","","","","","","","","","","","","","feedback_test"
"","","","","","psychophysics","247","490828","0.0-13.0-1.0-1.0-0.0-0.44","461","","j","","","","","","","","","","","","","key","j","16.663916666667017","768","428","j","true","img/T_ambi40.png","圆形","word_first",""
"","","","","","html-keyboard-response","248","491145","0.0-13.0-1.0-1.0-0.0-1.44","null","<span style='color:GreenYellow; font-size: 70px;'>正确! </span>","null","","","","","","","","","","","","","","","","","","","","","","","feedback_test"
"","","","","","psychophysics","249","492799","0.0-13.0-1.0-1.0-0.0-0.45","495","","j","","","","","","","","","","","","","key","j","16.663704081632705","768","428","j","true","img/C_ambi40.png","三角","word_first",""
"","","","","","html-keyboard-response","250","493110","0.0-13.0-1.0-1.0-0.0-1.45","null","<span style='color:GreenYellow; font-size: 70px;'>正确! </span>","null","","","","","","","","","","","","","","","","","","","","","","","feedback_test"
"","","","","","psychophysics","251","494704","0.0-13.0-1.0-1.0-0.0-0.46","440","","f","","","","","","","","","","","","","key","f","16.66467021276649","768","428","f","true","img/S_ambi40.png","方形","word_first",""
"","","","","","html-keyboard-response","252","495009","0.0-13.0-1.0-1.0-0.0-1.46","null","<span style='color:GreenYellow; font-size: 70px;'>正确! </span>","null","","","","","","","","","","","","","","","","","","","","","","","feedback_test"
"","","","","","psychophysics","253","496701","0.0-13.0-1.0-1.0-0.0-0.47","533","","j","","","","","","","","","","","","","key","j","16.66362000000023","768","428","j","true","img/C_ambi40.png","方形","word_first",""
"","","","","","html-keyboard-response","254","497012","0.0-13.0-1.0-1.0-0.0-1.47","null","<span style='color:GreenYellow; font-size: 70px;'>正确! </span>","null","","","","","","","","","","","","","","","","","","","","","","","feedback_test"
"","","","","","psychophysics","255","498655","0.0-13.0-1.0-1.0-0.0-0.48","488","","j","","","","","","","","","","","","","key","j","16.663793814433355","768","428","j","true","img/C_ambi40.png","方形","word_first",""
"","","","","","html-keyboard-response","256","498962","0.0-13.0-1.0-1.0-0.0-1.48","null","<span style='color:GreenYellow; font-size: 70px;'>正确! </span>","null","","","","","","","","","","","","","","","","","","","","","","","feedback_test"
"","","","","","psychophysics","257","500698","0.0-13.0-1.0-1.0-0.0-0.49","578","","j","","","","","","","","","","","","","key","j","16.66387378640735","768","428","j","true","img/C_ambi40.png","三角","word_first",""
"","","","","","html-keyboard-response","258","501009","0.0-13.0-1.0-1.0-0.0-1.49","null","<span style='color:GreenYellow; font-size: 70px;'>正确! </span>","null","","","","","","","","","","","","","","","","","","","","","","","feedback_test"
"","","","","","psychophysics","259","502660","0.0-13.0-1.0-1.0-0.0-0.50","491","","f","","","","","","","","","","","","","key","f","16.663806122449127","768","428","f","true","img/T_ambi40.png","三角","word_first",""
"","","","","","html-keyboard-response","260","502982","0.0-13.0-1.0-1.0-0.0-1.50","null","<span style='color:GreenYellow; font-size: 70px;'>正确! </span>","null","","","","","","","","","","","","","","","","","","","","","","","feedback_test"
"","","","","","psychophysics","261","504676","0.0-13.0-1.0-1.0-0.0-0.51","541","","f","","","","","","","","","","","","","key","f","16.664039603960678","768","428","f","true","img/C_ambi40.png","圆形","word_first",""
"","","","","","html-keyboard-response","262","504990","0.0-13.0-1.0-1.0-0.0-1.51","null","<span style='color:GreenYellow; font-size: 70px;'>正确! </span>","null","","","","","","","","","","","","","","","","","","","","","","","feedback_test"
"","","","","","psychophysics","263","506692","0.0-13.0-1.0-1.0-0.0-0.52","548","","f","","","","","","","","","","","","","key","f","16.663415841584204","768","428","f","true","img/C_ambi40.png","圆形","word_first",""
"","","","","","html-keyboard-response","264","507012","0.0-13.0-1.0-1.0-0.0-1.52","null","<span style='color:GreenYellow; font-size: 70px;'>正确! </span>","null","","","","","","","","","","","","","","","","","","","","","","","feedback_test"
"","","","","","psychophysics","265","508828","0.0-13.0-1.0-1.0-0.0-0.53","661","","f","","","","","","","","","","","","","key","f","16.66362962962982","768","428","f","true","img/T_ambi40.png","三角","word_first",""
"","","","","","html-keyboard-response","266","509136","0.0-13.0-1.0-1.0-0.0-1.53","null","<span style='color:GreenYellow; font-size: 70px;'>正确! </span>","null","","","","","","","","","","","","","","","","","","","","","","","feedback_test"
"","","","","","psychophysics","267","510828","0.0-13.0-1.0-1.0-0.0-0.54","532","","f","","","","","","","","","","","","","key","f","16.663800000000048","768","428","f","true","img/S_ambi40.png","方形","word_first",""
"","","","","","html-keyboard-response","268","511149","0.0-13.0-1.0-1.0-0.0-1.54","null","<span style='color:GreenYellow; font-size: 70px;'>正确! </span>","null","","","","","","","","","","","","","","","","","","","","","","","feedback_test"
"","","","","","psychophysics","269","512830","0.0-13.0-1.0-1.0-0.0-0.55","528","","f","","","","","","","","","","","","","key","f","16.662629999999773","768","428","f","true","img/S_ambi40.png","方形","word_first",""
"","","","","","html-keyboard-response","270","513143","0.0-13.0-1.0-1.0-0.0-1.55","null","<span style='color:GreenYellow; font-size: 70px;'>正确! </span>","null","","","","","","","","","","","","","","","","","","","","","","","feedback_test"
"","","","","","psychophysics","271","514830","0.0-13.0-1.0-1.0-0.0-0.56","534","","j","","","","","","","","","","","","","key","j","16.664489999999642","768","428","j","true","img/S_ambi40.png","圆形","word_first",""
"","","","","","html-keyboard-response","272","515137","0.0-13.0-1.0-1.0-0.0-1.56","null","<span style='color:GreenYellow; font-size: 70px;'>正确! </span>","null","","","","","","","","","","","","","","","","","","","","","","","feedback_test"
"","","","","","psychophysics","273","516813","0.0-13.0-1.0-1.0-0.0-0.57","517","","j","","","","","","","","","","","","","key","j","16.663868686868668","768","428","j","true","img/T_ambi40.png","方形","word_first",""
"","","","","","html-keyboard-response","274","517129","0.0-13.0-1.0-1.0-0.0-1.57","null","<span style='color:GreenYellow; font-size: 70px;'>正确! </span>","null","","","","","","","","","","","","","","","","","","","","","","","feedback_test"
"","","","","","psychophysics","275","519083","0.0-13.0-1.0-1.0-0.0-0.58","799","","j","","","","","","","","","","","","","key","j","16.664060344827735","768","428","j","true","img/S_ambi40.png","三角","word_first",""
"","","","","","html-keyboard-response","276","519393","0.0-13.0-1.0-1.0-0.0-1.58","null","<span style='color:GreenYellow; font-size: 70px;'>正确! </span>","null","","","","","","","","","","","","","","","","","","","","","","","feedback_test"
"","","","","","psychophysics","277","521185","0.0-13.0-1.0-1.0-0.0-0.59","634","","j","","","","","","","","","","","","","key","j","16.663401869158847","768","428","j","true","img/T_ambi40.png","圆形","word_first",""
"","","","","","html-keyboard-response","278","521502","0.0-13.0-1.0-1.0-0.0-1.59","null","<span style='color:GreenYellow; font-size: 70px;'>正确! </span>","null","","","","","","","","","","","","","","","","","","","","","","","feedback_test"
"","","","","","html-keyboard-response","279","523077","0.0-13.0-1.0-1.0-1.0","1574","<style>.context{color:white; font-size: 35px; line-height:40px}</style>                            <div><p class='context'>您正确回答了100% 的试次。</p><p class='context'>您的平均反应时为568毫秒。</p><p class='context'>请按任意键进入休息</p></div>"," ","","","","","","","","","","","","","","","","","","","","","","",""
"","","","","","html-button-response","280","584264","0.0-13.0-1.0-1.0-2.0","61183","
                    <p>您当前还剩余3组实验</p>
                    <p>现在是休息时间，当您结束休息后，您可以点击 结束休息 按钮 继续</p>
                    <p>建议休息时间还剩余<span id=""iii"">60</span>秒</p>","0","","","","","","","","","","","","","","","","","","","","","","",""
"","","","","","psychophysics","281","586016","0.0-13.0-1.0-1.0-0.1-0.60","599","","j","","","","","","","","","","","","","key","j","16.66441346153778","768","428","j","true","img/C_ambi40.png","方形","word_first",""
"","","","","","html-keyboard-response","282","586329","0.0-13.0-1.0-1.0-0.1-1.60","null","<span style='color:GreenYellow; font-size: 70px;'>正确! </span>","null","","","","","","","","","","","","","","","","","","","","","","","feedback_test"
"","","","","","psychophysics","283","588097","0.0-13.0-1.0-1.0-0.1-0.61","609","","j","","","","","","","","","","","","","key","j","16.66464761904818","768","428","j","true","img/S_ambi40.png","三角","word_first",""
"","","","","","html-keyboard-response","284","588407","0.0-13.0-1.0-1.0-0.1-1.61","null","<span style='color:GreenYellow; font-size: 70px;'>正确! </span>","null","","","","","","","","","","","","","","","","","","","","","","","feedback_test"
"","","","","","psychophysics","285","590193","0.0-13.0-1.0-1.0-0.1-0.62","634","","f","","","","","","","","","","","","","key","f","16.663764150942818","768","428","f","true","img/C_ambi40.png","圆形","word_first",""
"","","","","","html-keyboard-response","286","590502","0.0-13.0-1.0-1.0-0.1-1.62","null","<span style='color:GreenYellow; font-size: 70px;'>正确! </span>","null","","","","","","","","","","","","","","","","","","","","","","","feedback_test"
"","","","","","psychophysics","287","592168","0.0-13.0-1.0-1.0-0.1-0.63","514","","f","","","","","","","","","","","","","key","f","16.663474747474833","768","428","f","true","img/S_ambi40.png","方形","word_first",""
"","","","","","html-keyboard-response","288","592483","0.0-13.0-1.0-1.0-0.1-1.63","null","<span style='color:GreenYellow; font-size: 70px;'>正确! </span>","null","","","","","","","","","","","","","","","","","","","","","","","feedback_test"
"","","","","","psychophysics","289","594279","0.0-13.0-1.0-1.0-0.1-0.64","642","","f","","","","","","","","","","","","","key","f","16.66394392523379","768","428","f","true","img/C_ambi40.png","圆形","word_first",""
"","","","","","html-keyboard-response","290","594599","0.0-13.0-1.0-1.0-0.1-1.64","null","<span style='color:GreenYellow; font-size: 70px;'>正确! </span>","null","","","","","","","","","","","","","","","","","","","","","","","feedback_test"
"","","","","","psychophysics","291","596379","0.0-13.0-1.0-1.0-0.1-0.65","627","","f","","","","","","","","","","","","","key","f","16.663773584906625","768","428","f","true","img/S_ambi40.png","方形","word_first",""
"","","","","","html-keyboard-response","292","596687","0.0-13.0-1.0-1.0-0.1-1.65","null","<span style='color:GreenYellow; font-size: 70px;'>正确! </span>","null","","","","","","","","","","","","","","","","","","","","","","","feedback_test"
"","","","","","psychophysics","293","598338","0.0-13.0-1.0-1.0-0.1-0.66","498","","j","","","","","","","","","","","","","key","j","16.664795918367584","768","428","j","true","img/C_ambi40.png","三角","word_first",""
"","","","","","html-keyboard-response","294","598656","0.0-13.0-1.0-1.0-0.1-1.66","null","<span style='color:GreenYellow; font-size: 70px;'>正确! </span>","null","","","","","","","","","","","","","","","","","","","","","","","feedback_test"
"","","","","","psychophysics","295","600279","0.0-13.0-1.0-1.0-0.1-0.67","470","","f","","","","","","","","","","","","","key","f","16.663312499999545","768","428","j","false","img/S_ambi40.png","圆形","word_first",""
"","","","","","html-keyboard-response","296","600586","0.0-13.0-1.0-1.0-0.1-1.67","null","<span style='color:red; font-size: 70px;'>错误! </span>","null","","","","","","","","","","","","","","","","","","","","","","","feedback_test"
"","","","","","psychophysics","297","602286","0.0-13.0-1.0-1.0-0.1-0.68","542","","j","","","","","","","","","","","","","key","j","16.664683168317136","768","428","j","true","img/T_ambi40.png","方形","word_first",""
"","","","","","html-keyboard-response","298","602593","0.0-13.0-1.0-1.0-0.1-1.68","null","<span style='color:GreenYellow; font-size: 70px;'>正确! </span>","null","","","","","","","","","","","","","","","","","","","","","","","feedback_test"
"","","","","","psychophysics","299","604283","0.0-13.0-1.0-1.0-0.1-0.69","532","","j","","","","","","","","","","","","","key","j","16.663460000000196","768","428","j","true","img/T_ambi40.png","圆形","word_first",""
"","","","","","html-keyboard-response","300","604607","0.0-13.0-1.0-1.0-0.1-1.69","null","<span style='color:GreenYellow; font-size: 70px;'>正确! </span>","null","","","","","","","","","","","","","","","","","","","","","","","feedback_test"
"","","","","","psychophysics","301","606317","0.0-13.0-1.0-1.0-0.1-0.70","556","","f","","","","","","","","","","","","","key","f","16.663673267326327","768","428","f","true","img/T_ambi40.png","三角","word_first",""
"","","","","","html-keyboard-response","302","606632","0.0-13.0-1.0-1.0-0.1-1.70","null","<span style='color:GreenYellow; font-size: 70px;'>正确! </span>","null","","","","","","","","","","","","","","","","","","","","","","","feedback_test"
"","","","","","psychophysics","303","608597","0.0-13.0-1.0-1.0-0.1-0.71","813","","f","","","","","","","","","","","","","key","f","16.663760683759968","768","428","f","true","img/T_ambi40.png","三角","word_first",""
"","","","","","html-keyboard-response","304","608912","0.0-13.0-1.0-1.0-0.1-1.71","null","<span style='color:GreenYellow; font-size: 70px;'>正确! </span>","null","","","","","","","","","","","","","","","","","","","","","","","feedback_test"
"","","","","","psychophysics","305","610581","0.0-13.0-1.0-1.0-0.1-0.72","518","","j","","","","","","","","","","","","","key","j","16.664303030302474","768","428","j","true","img/S_ambi40.png","圆形","word_first",""
"","","","","","html-keyboard-response","306","610891","0.0-13.0-1.0-1.0-0.1-1.72","null","<span style='color:GreenYellow; font-size: 70px;'>正确! </span>","null","","","","","","","","","","","","","","","","","","","","","","","feedback_test"
"","","","","","psychophysics","307","612688","0.0-13.0-1.0-1.0-0.1-0.73","639","","f","","","","","","","","","","","","","key","f","16.66357943925258","768","428","f","true","img/S_ambi40.png","方形","word_first",""
"","","","","","html-keyboard-response","308","612997","0.0-13.0-1.0-1.0-0.1-1.73","null","<span style='color:GreenYellow; font-size: 70px;'>正确! </span>","null","","","","","","","","","","","","","","","","","","","","","","","feedback_test"
"","","","","","psychophysics","309","614679","0.0-13.0-1.0-1.0-0.1-0.74","530","","j","","","","","","","","","","","","","key","j","16.664259999999775","768","428","j","true","img/S_ambi40.png","三角","word_first",""
"","","","","","html-keyboard-response","310","614984","0.0-13.0-1.0-1.0-0.1-1.74","null","<span style='color:GreenYellow; font-size: 70px;'>正确! </span>","null","","","","","","","","","","","","","","","","","","","","","","","feedback_test"
"","","","","","psychophysics","311","616657","0.0-13.0-1.0-1.0-0.1-0.75","522","","f","","","","","","","","","","","","","key","f","16.66434343434362","768","428","f","true","img/S_ambi40.png","方形","word_first",""
"","","","","","html-keyboard-response","312","616970","0.0-13.0-1.0-1.0-0.1-1.75","null","<span style='color:GreenYellow; font-size: 70px;'>正确! </span>","null","","","","","","","","","","","","","","","","","","","","","","","feedback_test"
"","","","","","psychophysics","313","618913","0.0-13.0-1.0-1.0-0.1-0.76","786","","f","","","","","","","","","","","","","key","f","16.663634782608437","768","428","f","true","img/T_ambi40.png","三角","word_first",""
"","","","","","html-keyboard-response","314","619225","0.0-13.0-1.0-1.0-0.1-1.76","null","<span style='color:GreenYellow; font-size: 70px;'>正确! </span>","null","","","","","","","","","","","","","","","","","","","","","","","feedback_test"
"","","","","","psychophysics","315","620952","0.0-13.0-1.0-1.0-0.1-0.77","571","","j","","","","","","","","","","","","","key","j","16.66339805825315","768","428","j","true","img/T_ambi40.png","方形","word_first",""
"","","","","","html-keyboard-response","316","621259","0.0-13.0-1.0-1.0-0.1-1.77","null","<span style='color:GreenYellow; font-size: 70px;'>正确! </span>","null","","","","","","","","","","","","","","","","","","","","","","","feedback_test"
"","","","","","psychophysics","317","622995","0.0-13.0-1.0-1.0-0.1-0.78","580","","j","","","","","","","","","","","","","key","j","16.66309708737863","768","428","j","true","img/C_ambi40.png","三角","word_first",""
"","","","","","html-keyboard-response","318","623306","0.0-13.0-1.0-1.0-0.1-1.78","null","<span style='color:GreenYellow; font-size: 70px;'>正确! </span>","null","","","","","","","","","","","","","","","","","","","","","","","feedback_test"
"","","","","","psychophysics","319","625079","0.0-13.0-1.0-1.0-0.1-0.79","615","","f","","","","","","","","","","","","","key","f","16.663219047619386","768","428","f","true","img/T_ambi40.png","三角","word_first",""
"","","","","","html-keyboard-response","320","625390","0.0-13.0-1.0-1.0-0.1-1.79","null","<span style='color:GreenYellow; font-size: 70px;'>正确! </span>","null","","","","","","","","","","","","","","","","","","","","","","","feedback_test"
"","","","","","psychophysics","321","627073","0.0-13.0-1.0-1.0-0.1-0.80","528","","f","","","","","","","","","","","","","key","f","16.663680000000166","768","428","f","true","img/C_ambi40.png","圆形","word_first",""
"","","","","","html-keyboard-response","322","627386","0.0-13.0-1.0-1.0-0.1-1.80","null","<span style='color:GreenYellow; font-size: 70px;'>正确! </span>","null","","","","","","","","","","","","","","","","","","","","","","","feedback_test"
"","","","","","psychophysics","323","629038","0.0-13.0-1.0-1.0-0.1-0.81","494","","j","","","","","","","","","","","","","key","j","16.663336734693708","768","428","j","true","img/T_ambi40.png","圆形","word_first",""
"","","","","","html-keyboard-response","324","629358","0.0-13.0-1.0-1.0-0.1-1.81","null","<span style='color:GreenYellow; font-size: 70px;'>正确! </span>","null","","","","","","","","","","","","","","","","","","","","","","","feedback_test"
"","","","","","psychophysics","325","631172","0.0-13.0-1.0-1.0-0.1-0.82","660","","f","","","","","","","","","","","","","key","f","16.664203703703134","768","428","f","true","img/C_ambi40.png","圆形","word_first",""
"","","","","","html-keyboard-response","326","631494","0.0-13.0-1.0-1.0-0.1-1.82","null","<span style='color:GreenYellow; font-size: 70px;'>正确! </span>","null","","","","","","","","","","","","","","","","","","","","","","","feedback_test"
"","","","","","psychophysics","327","633252","0.0-13.0-1.0-1.0-0.1-0.83","606","","j","","","","","","","","","","","","","key","j","16.533038461538336","768","428","j","true","img/C_ambi40.png","方形","word_first",""
"","","","","","html-keyboard-response","328","633574","0.0-13.0-1.0-1.0-0.1-1.83","null","<span style='color:GreenYellow; font-size: 70px;'>正确! </span>","null","","","","","","","","","","","","","","","","","","","","","","","feedback_test"
"","","","","","psychophysics","329","635324","0.0-13.0-1.0-1.0-0.1-0.84","595","","f","","","","","","","","","","","","","key","f","16.663567307692855","768","428","f","true","img/S_ambi40.png","方形","word_first",""
"","","","","","html-keyboard-response","330","635647","0.0-13.0-1.0-1.0-0.1-1.84","null","<span style='color:GreenYellow; font-size: 70px;'>正确! </span>","null","","","","","","","","","","","","","","","","","","","","","","","feedback_test"
"","","","","","psychophysics","331","637404","0.0-13.0-1.0-1.0-0.1-0.85","604","","f","","","","","","","","","","","","","key","f","16.663855769231585","768","428","f","true","img/C_ambi40.png","圆形","word_first",""
"","","","","","html-keyboard-response","332","637717","0.0-13.0-1.0-1.0-0.1-1.85","null","<span style='color:GreenYellow; font-size: 70px;'>正确! </span>","null","","","","","","","","","","","","","","","","","","","","","","","feedback_test"
"","","","","","psychophysics","333","639453","0.0-13.0-1.0-1.0-0.1-0.86","581","","f","","","","","","","","","","","","","key","f","16.664281553397796","768","428","f","true","img/T_ambi40.png","三角","word_first",""
"","","","","","html-keyboard-response","334","639765","0.0-13.0-1.0-1.0-0.1-1.86","null","<span style='color:GreenYellow; font-size: 70px;'>正确! </span>","null","","","","","","","","","","","","","","","","","","","","","","","feedback_test"
"","","","","","psychophysics","335","641454","0.0-13.0-1.0-1.0-0.1-0.87","534","","f","","","","","","","","","","","","","key","f","16.663830000000306","768","428","f","true","img/T_ambi40.png","三角","word_first",""
"","","","","","html-keyboard-response","336","641773","0.0-13.0-1.0-1.0-0.1-1.87","null","<span style='color:GreenYellow; font-size: 70px;'>正确! </span>","null","","","","","","","","","","","","","","","","","","","","","","","feedback_test"
"","","","","","psychophysics","337","643577","0.0-13.0-1.0-1.0-0.1-0.88","649","","j","","","","","","","","","","","","","key","j","16.664018691588133","768","428","j","true","img/S_ambi40.png","三角","word_first",""
"","","","","","html-keyboard-response","338","643893","0.0-13.0-1.0-1.0-0.1-1.88","null","<span style='color:GreenYellow; font-size: 70px;'>正确! </span>","null","","","","","","","","","","","","","","","","","","","","","","","feedback_test"
"","","","","","psychophysics","339","645861","0.0-13.0-1.0-1.0-0.1-0.89","812","","j","","","","","","","","","","","","","key","j","16.664222222222534","768","428","j","true","img/C_ambi40.png","方形","word_first",""
"","","","","","html-keyboard-response","340","646179","0.0-13.0-1.0-1.0-0.1-1.89","null","<span style='color:GreenYellow; font-size: 70px;'>正确! </span>","null","","","","","","","","","","","","","","","","","","","","","","","feedback_test"
"","","","","","psychophysics","341","647834","0.0-13.0-1.0-1.0-0.1-0.90","498","","j","","","","","","","","","","","","","key","j","16.664530612244413","768","428","j","true","img/T_ambi40.png","圆形","word_first",""
"","","","","","html-keyboard-response","342","648141","0.0-13.0-1.0-1.0-0.1-1.90","null","<span style='color:GreenYellow; font-size: 70px;'>正确! </span>","null","","","","","","","","","","","","","","","","","","","","","","","feedback_test"
"","","","","","psychophysics","343","649859","0.0-13.0-1.0-1.0-0.1-0.91","566","","f","","","","","","","","","","","","","key","f","16.531257425742638","768","428","f","true","img/S_ambi40.png","方形","word_first",""
"","","","","","html-keyboard-response","344","650180","0.0-13.0-1.0-1.0-0.1-1.91","null","<span style='color:GreenYellow; font-size: 70px;'>正确! </span>","null","","","","","","","","","","","","","","","","","","","","","","","feedback_test"
"","","","","","psychophysics","345","651842","0.0-13.0-1.0-1.0-0.1-0.92","507","","j","","","","","","","","","","","","","key","j","16.66341836734708","768","428","j","true","img/S_ambi40.png","圆形","word_first",""
"","","","","","html-keyboard-response","346","652153","0.0-13.0-1.0-1.0-0.1-1.92","null","<span style='color:GreenYellow; font-size: 70px;'>正确! </span>","null","","","","","","","","","","","","","","","","","","","","","","","feedback_test"
"","","","","","psychophysics","347","653832","0.0-13.0-1.0-1.0-0.1-0.93","523","","j","","","","","","","","","","","","","key","j","16.66344999999972","768","428","j","true","img/C_ambi40.png","三角","word_first",""
"","","","","","html-keyboard-response","348","654139","0.0-13.0-1.0-1.0-0.1-1.93","null","<span style='color:GreenYellow; font-size: 70px;'>正确! </span>","null","","","","","","","","","","","","","","","","","","","","","","","feedback_test"
"","","","","","psychophysics","349","655806","0.0-13.0-1.0-1.0-0.1-0.94","515","","j","","","","","","","","","","","","","key","j","16.664595959595207","768","428","j","true","img/T_ambi40.png","方形","word_first",""
"","","","","","html-keyboard-response","350","656124","0.0-13.0-1.0-1.0-0.1-1.94","null","<span style='color:GreenYellow; font-size: 70px;'>正确! </span>","null","","","","","","","","","","","","","","","","","","","","","","","feedback_test"
"","","","","","psychophysics","351","657746","0.0-13.0-1.0-1.0-0.1-0.95","470","","f","","","","","","","","","","","","","key","f","16.66381250000025","768","428","f","true","img/C_ambi40.png","圆形","word_first",""
"","","","","","html-keyboard-response","352","658057","0.0-13.0-1.0-1.0-0.1-1.95","null","<span style='color:GreenYellow; font-size: 70px;'>正确! </span>","null","","","","","","","","","","","","","","","","","","","","","","","feedback_test"
"","","","","","psychophysics","353","659787","0.0-13.0-1.0-1.0-0.1-0.96","578","","j","","","","","","","","","","","","","key","j","16.663676470587735","768","428","j","true","img/C_ambi40.png","方形","word_first",""
"","","","","","html-keyboard-response","354","660106","0.0-13.0-1.0-1.0-0.1-1.96","null","<span style='color:GreenYellow; font-size: 70px;'>正确! </span>","null","","","","","","","","","","","","","","","","","","","","","","","feedback_test"
"","","","","","psychophysics","355","661810","0.0-13.0-1.0-1.0-0.1-0.97","552","","j","","","","","","","","","","","","","key","j","16.520089108910696","768","428","j","true","img/T_ambi40.png","方形","word_first",""
"","","","","","html-keyboard-response","356","662133","0.0-13.0-1.0-1.0-0.1-1.97","null","<span style='color:GreenYellow; font-size: 70px;'>正确! </span>","null","","","","","","","","","","","","","","","","","","","","","","","feedback_test"
"","","","","","psychophysics","357","663915","0.0-13.0-1.0-1.0-0.1-0.98","626","","f","","","","","","","","","","","","","key","f","16.663415094338937","768","428","f","true","img/S_ambi40.png","方形","word_first",""
"","","","","","html-keyboard-response","358","664237","0.0-13.0-1.0-1.0-0.1-1.98","null","<span style='color:GreenYellow; font-size: 70px;'>正确! </span>","null","","","","","","","","","","","","","","","","","","","","","","","feedback_test"
"","","","","","psychophysics","359","665987","0.0-13.0-1.0-1.0-0.1-0.99","598","","f","","","","","","","","","","","","","key","f","16.66424038461544","768","428","f","true","img/T_ambi40.png","三角","word_first",""
"","","","","","html-keyboard-response","360","666296","0.0-13.0-1.0-1.0-0.1-1.99","null","<span style='color:GreenYellow; font-size: 70px;'>正确! </span>","null","","","","","","","","","","","","","","","","","","","","","","","feedback_test"
"","","","","","psychophysics","361","667933","0.0-13.0-1.0-1.0-0.1-0.100","485","","j","","","","","","","","","","","","","key","j","16.664443298969083","768","428","j","true","img/T_ambi40.png","圆形","word_first",""
"","","","","","html-keyboard-response","362","668242","0.0-13.0-1.0-1.0-0.1-1.100","null","<span style='color:GreenYellow; font-size: 70px;'>正确! </span>","null","","","","","","","","","","","","","","","","","","","","","","","feedback_test"
"","","","","","psychophysics","363","669915","0.0-13.0-1.0-1.0-0.1-0.101","514","","f","","","","","","","","","","","","","key","f","16.664090909090863","768","428","f","true","img/S_ambi40.png","方形","word_first",""
"","","","","","html-keyboard-response","364","670231","0.0-13.0-1.0-1.0-0.1-1.101","null","<span style='color:GreenYellow; font-size: 70px;'>正确! </span>","null","","","","","","","","","","","","","","","","","","","","","","","feedback_test"
"","","","","","psychophysics","365","671935","0.0-13.0-1.0-1.0-0.1-0.102","552","","f","","","","","","","","","","","","","key","f","16.662752475247185","768","428","f","true","img/T_ambi40.png","三角","word_first",""
"","","","","","html-keyboard-response","366","672252","0.0-13.0-1.0-1.0-0.1-1.102","null","<span style='color:GreenYellow; font-size: 70px;'>正确! </span>","null","","","","","","","","","","","","","","","","","","","","","","","feedback_test"
"","","","","","psychophysics","367","673942","0.0-13.0-1.0-1.0-0.1-0.103","537","","j","","","","","","","","","","","","","key","j","16.539749999999767","768","428","j","true","img/C_ambi40.png","三角","word_first",""
"","","","","","html-keyboard-response","368","674252","0.0-13.0-1.0-1.0-0.1-1.103","null","<span style='color:GreenYellow; font-size: 70px;'>正确! </span>","null","","","","","","","","","","","","","","","","","","","","","","","feedback_test"
"","","","","","psychophysics","369","675998","0.0-13.0-1.0-1.0-0.1-0.104","594","","j","","","","","","","","","","","","","key","j","16.663153846153783","768","428","j","true","img/S_ambi40.png","圆形","word_first",""
"","","","","","html-keyboard-response","370","676310","0.0-13.0-1.0-1.0-0.1-1.104","null","<span style='color:GreenYellow; font-size: 70px;'>正确! </span>","null","","","","","","","","","","","","","","","","","","","","","","","feedback_test"
"","","","","","psychophysics","371","678012","0.0-13.0-1.0-1.0-0.1-0.105","549","","f","","","","","","","","","","","","","key","f","16.663693069306312","768","428","f","true","img/C_ambi40.png","圆形","word_first",""
"","","","","","html-keyboard-response","372","678331","0.0-13.0-1.0-1.0-0.1-1.105","null","<span style='color:GreenYellow; font-size: 70px;'>正确! </span>","null","","","","","","","","","","","","","","","","","","","","","","","feedback_test"
"","","","","","psychophysics","373","680010","0.0-13.0-1.0-1.0-0.1-0.106","523","","j","","","","","","","","","","","","","key","j","16.66402000000002","768","428","j","true","img/S_ambi40.png","三角","word_first",""
"","","","","","html-keyboard-response","374","680324","0.0-13.0-1.0-1.0-0.1-1.106","null","<span style='color:GreenYellow; font-size: 70px;'>正确! </span>","null","","","","","","","","","","","","","","","","","","","","","","","feedback_test"
"","","","","","psychophysics","375","681940","0.0-13.0-1.0-1.0-0.1-0.107","460","","f","","","","","","","","","","","","","key","f","16.663260416666162","768","428","f","true","img/C_ambi40.png","圆形","word_first",""
"","","","","","html-keyboard-response","376","682253","0.0-13.0-1.0-1.0-0.1-1.107","null","<span style='color:GreenYellow; font-size: 70px;'>正确! </span>","null","","","","","","","","","","","","","","","","","","","","","","","feedback_test"
"","","","","","psychophysics","377","683973","0.0-13.0-1.0-1.0-0.1-0.108","570","","j","","","","","","","","","","","","","key","j","16.662901960784687","768","428","j","true","img/S_ambi40.png","圆形","word_first",""
"","","","","","html-keyboard-response","378","684289","0.0-13.0-1.0-1.0-0.1-1.108","null","<span style='color:GreenYellow; font-size: 70px;'>正确! </span>","null","","","","","","","","","","","","","","","","","","","","","","","feedback_test"
"","","","","","psychophysics","379","685970","0.0-13.0-1.0-1.0-0.1-0.109","522","","f","","","","","","","","","","","","","key","f","16.66390999999945","768","428","f","true","img/T_ambi40.png","三角","word_first",""
"","","","","","html-keyboard-response","380","686291","0.0-13.0-1.0-1.0-0.1-1.109","null","<span style='color:GreenYellow; font-size: 70px;'>正确! </span>","null","","","","","","","","","","","","","","","","","","","","","","","feedback_test"
"","","","","","psychophysics","381","687945","0.0-13.0-1.0-1.0-0.1-0.110","498","","f","","","","","","","","","","","","","key","f","16.66487755101977","768","428","f","true","img/T_ambi40.png","三角","word_first",""
"","","","","","html-keyboard-response","382","688260","0.0-13.0-1.0-1.0-0.1-1.110","null","<span style='color:GreenYellow; font-size: 70px;'>正确! </span>","null","","","","","","","","","","","","","","","","","","","","","","","feedback_test"
"","","","","","psychophysics","383","689998","0.0-13.0-1.0-1.0-0.1-0.111","581","","j","","","","","","","","","","","","","key","j","16.664718446602087","768","428","j","true","img/C_ambi40.png","方形","word_first",""
"","","","","","html-keyboard-response","384","690311","0.0-13.0-1.0-1.0-0.1-1.111","null","<span style='color:GreenYellow; font-size: 70px;'>正确! </span>","null","","","","","","","","","","","","","","","","","","","","","","","feedback_test"
"","","","","","psychophysics","385","692080","0.0-13.0-1.0-1.0-0.1-0.112","616","","f","","","","","","","","","","","","","key","f","16.663761904761415","768","428","f","true","img/C_ambi40.png","圆形","word_first",""
"","","","","","html-keyboard-response","386","692387","0.0-13.0-1.0-1.0-0.1-1.112","null","<span style='color:GreenYellow; font-size: 70px;'>正确! </span>","null","","","","","","","","","","","","","","","","","","","","","","","feedback_test"
"","","","","","psychophysics","387","694035","0.0-13.0-1.0-1.0-0.1-0.113","492","","j","","","","","","","","","","","","","key","j","16.66342857142801","768","428","j","true","img/S_ambi40.png","三角","word_first",""
"","","","","","html-keyboard-response","388","694346","0.0-13.0-1.0-1.0-0.1-1.113","null","<span style='color:GreenYellow; font-size: 70px;'>正确! </span>","null","","","","","","","","","","","","","","","","","","","","","","","feedback_test"
"","","","","","psychophysics","389","696271","0.0-13.0-1.0-1.0-0.1-0.114","770","","j","","","","","","","","","","","","","key","j","16.664330434781984","768","428","j","true","img/C_ambi40.png","三角","word_first",""
"","","","","","html-keyboard-response","390","696578","0.0-13.0-1.0-1.0-0.1-1.114","null","<span style='color:GreenYellow; font-size: 70px;'>正确! </span>","null","","","","","","","","","","","","","","","","","","","","","","","feedback_test"
"","","","","","psychophysics","391","698381","0.0-13.0-1.0-1.0-0.1-0.115","649","","j","","","","","","","","","","","","","key","j","16.664074766356062","768","428","j","true","img/T_ambi40.png","方形","word_first",""
"","","","","","html-keyboard-response","392","698690","0.0-13.0-1.0-1.0-0.1-1.115","null","<span style='color:GreenYellow; font-size: 70px;'>正确! </span>","null","","","","","","","","","","","","","","","","","","","","","","","feedback_test"
"","","","","","psychophysics","393","700317","0.0-13.0-1.0-1.0-0.1-0.116","469","","j","","","","","","","","","","","","","key","j","16.66441237113376","768","428","j","true","img/T_ambi40.png","圆形","word_first",""
"","","","","","html-keyboard-response","394","700627","0.0-13.0-1.0-1.0-0.1-1.116","null","<span style='color:GreenYellow; font-size: 70px;'>正确! </span>","null","","","","","","","","","","","","","","","","","","","","","","","feedback_test"
"","","","","","psychophysics","395","702273","0.0-13.0-1.0-1.0-0.1-0.117","491","","f","","","","","","","","","","","","","key","f","16.663112244897818","768","428","f","true","img/S_ambi40.png","方形","word_first",""
"","","","","","html-keyboard-response","396","702590","0.0-13.0-1.0-1.0-0.1-1.117","null","<span style='color:GreenYellow; font-size: 70px;'>正确! </span>","null","","","","","","","","","","","","","","","","","","","","","","","feedback_test"
"","","","","","psychophysics","397","704277","0.0-13.0-1.0-1.0-0.1-0.118","533","","f","","","","","","","","","","","","","key","f","16.664210000000892","768","428","f","true","img/S_ambi40.png","方形","word_first",""
"","","","","","html-keyboard-response","398","704590","0.0-13.0-1.0-1.0-0.1-1.118","null","<span style='color:GreenYellow; font-size: 70px;'>正确! </span>","null","","","","","","","","","","","","","","","","","","","","","","","feedback_test"
"","","","","","psychophysics","399","706325","0.0-13.0-1.0-1.0-0.1-0.119","581","","f","","","","","","","","","","","","","key","f","16.663466019416905","768","428","f","true","img/C_ambi40.png","圆形","word_first",""
"","","","","","html-keyboard-response","400","706641","0.0-13.0-1.0-1.0-0.1-1.119","null","<span style='color:GreenYellow; font-size: 70px;'>正确! </span>","null","","","","","","","","","","","","","","","","","","","","","","","feedback_test"
"","","","","","html-keyboard-response","401","708676","0.0-13.0-1.0-1.0-1.1","2033","<style>.context{color:white; font-size: 35px; line-height:40px}</style>                            <div><p class='context'>您正确回答了98% 的试次。</p><p class='context'>您的平均反应时为573毫秒。</p><p class='context'>请按任意键进入休息</p></div>"," ","","","","","","","","","","","","","","","","","","","","","","",""
"","","","","","html-button-response","402","769249","0.0-13.0-1.0-1.0-2.1","60569","
                    <p>您当前还剩余2组实验</p>
                    <p>现在是休息时间，当您结束休息后，您可以点击 结束休息 按钮 继续</p>
                    <p>建议休息时间还剩余<span id=""iii"">60</span>秒</p>","0","","","","","","","","","","","","","","","","","","","","","","",""
"","","","","","psychophysics","403","771417","0.0-13.0-1.0-1.0-0.2-0.120","1015","","j","","","","","","","","","","","","","key","j","16.66266406250088","768","428","j","true","img/C_ambi40.png","三角","word_first",""
"","","","","","html-keyboard-response","404","771722","0.0-13.0-1.0-1.0-0.2-1.120","null","<span style='color:GreenYellow; font-size: 70px;'>正确! </span>","null","","","","","","","","","","","","","","","","","","","","","","","feedback_test"
"","","","","","psychophysics","405","773423","0.0-13.0-1.0-1.0-0.2-0.121","542","","j","","","","","","","","","","","","","key","j","16.66389108910963","768","428","j","true","img/S_ambi40.png","圆形","word_first",""
"","","","","","html-keyboard-response","406","773729","0.0-13.0-1.0-1.0-0.2-1.121","null","<span style='color:GreenYellow; font-size: 70px;'>正确! </span>","null","","","","","","","","","","","","","","","","","","","","","","","feedback_test"
"","","","","","psychophysics","407","775388","0.0-13.0-1.0-1.0-0.2-0.122","503","","j","","","","","","","","","","","","","key","j","16.663808080807534","768","428","j","true","img/T_ambi40.png","圆形","word_first",""
"","","","","","html-keyboard-response","408","775699","0.0-13.0-1.0-1.0-0.2-1.122","null","<span style='color:GreenYellow; font-size: 70px;'>正确! </span>","null","","","","","","","","","","","","","","","","","","","","","","","feedback_test"
"","","","","","psychophysics","409","777364","0.0-13.0-1.0-1.0-0.2-0.123","513","","j","","","","","","","","","","","","","key","j","16.528397959183035","768","428","j","true","img/C_ambi40.png","方形","word_first",""
"","","","","","html-keyboard-response","410","777680","0.0-13.0-1.0-1.0-0.2-1.123","null","<span style='color:GreenYellow; font-size: 70px;'>正确! </span>","null","","","","","","","","","","","","","","","","","","","","","","","feedback_test"
"","","","","","psychophysics","411","779369","0.0-13.0-1.0-1.0-0.2-0.124","537","","f","","","","","","","","","","","","","key","f","16.663128712871526","768","428","f","true","img/S_ambi40.png","方形","word_first",""
"","","","","","html-keyboard-response","412","779681","0.0-13.0-1.0-1.0-0.2-1.124","null","<span style='color:GreenYellow; font-size: 70px;'>正确! </span>","null","","","","","","","","","","","","","","","","","","","","","","","feedback_test"
"","","","","","psychophysics","413","781337","0.0-13.0-1.0-1.0-0.2-0.125","503","","f","","","","","","","","","","","","","key","f","16.66387878787925","768","428","f","true","img/S_ambi40.png","方形","word_first",""
"","","","","","html-keyboard-response","414","781650","0.0-13.0-1.0-1.0-0.2-1.125","null","<span style='color:GreenYellow; font-size: 70px;'>正确! </span>","null","","","","","","","","","","","","","","","","","","","","","","","feedback_test"
"","","","","","psychophysics","415","783382","0.0-13.0-1.0-1.0-0.2-0.126","580","","f","","","","","","","","","","","","","key","f","16.663647058823912","768","428","f","true","img/C_ambi40.png","圆形","word_first",""
"","","","","","html-keyboard-response","416","783688","0.0-13.0-1.0-1.0-0.2-1.126","null","<span style='color:GreenYellow; font-size: 70px;'>正确! </span>","null","","","","","","","","","","","","","","","","","","","","","","","feedback_test"
"","","","","","psychophysics","417","785303","0.0-13.0-1.0-1.0-0.2-0.127","463","","f","","","","","","","","","","","","","key","f","16.664489583334216","768","428","f","true","img/C_ambi40.png","圆形","word_first",""
"","","","","","html-keyboard-response","418","785611","0.0-13.0-1.0-1.0-0.2-1.127","null","<span style='color:GreenYellow; font-size: 70px;'>正确! </span>","null","","","","","","","","","","","","","","","","","","","","","","","feedback_test"
"","","","","","psychophysics","419","787300","0.0-13.0-1.0-1.0-0.2-0.128","535","","j","","","","","","","","","","","","","key","j","16.66426732673282","768","428","j","true","img/T_ambi40.png","方形","word_first",""
"","","","","","html-keyboard-response","420","787621","0.0-13.0-1.0-1.0-0.2-1.128","null","<span style='color:GreenYellow; font-size: 70px;'>正确! </span>","null","","","","","","","","","","","","","","","","","","","","","","","feedback_test"
"","","","","","psychophysics","421","789312","0.0-13.0-1.0-1.0-0.2-0.129","536","","f","","","","","","","","","","","","","key","f","16.664499999999535","768","428","f","true","img/T_ambi40.png","三角","word_first",""
"","","","","","html-keyboard-response","422","789623","0.0-13.0-1.0-1.0-0.2-1.129","null","<span style='color:GreenYellow; font-size: 70px;'>正确! </span>","null","","","","","","","","","","","","","","","","","","","","","","","feedback_test"
"","","","","","psychophysics","423","791239","0.0-13.0-1.0-1.0-0.2-0.130","463","","j","","","","","","","","","","","","","key","j","16.663885416666744","768","428","j","true","img/S_ambi40.png","三角","word_first",""
"","","","","","html-keyboard-response","424","791544","0.0-13.0-1.0-1.0-0.2-1.130","null","<span style='color:GreenYellow; font-size: 70px;'>正确! </span>","null","","","","","","","","","","","","","","","","","","","","","","","feedback_test"
"","","","","","psychophysics","425","793207","0.0-13.0-1.0-1.0-0.2-0.131","511","","f","","","","","","","","","","","","","key","f","16.664191919191968","768","428","f","true","img/T_ambi40.png","三角","word_first",""
"","","","","","html-keyboard-response","426","793513","0.0-13.0-1.0-1.0-0.2-1.131","null","<span style='color:GreenYellow; font-size: 70px;'>正确! </span>","null","","","","","","","","","","","","","","","","","","","","","","","feedback_test"
"","","","","","psychophysics","427","795249","0.0-13.0-1.0-1.0-0.2-0.132","585","","f","","","","","","","","","","","","","key","f","16.52407766990273","768","428","f","true","img/C_ambi40.png","圆形","word_first",""
"","","","","","html-keyboard-response","428","795559","0.0-13.0-1.0-1.0-0.2-1.132","null","<span style='color:GreenYellow; font-size: 70px;'>正确! </span>","null","","","","","","","","","","","","","","","","","","","","","","","feedback_test"
"","","","","","psychophysics","429","797208","0.0-13.0-1.0-1.0-0.2-0.133","496","","j","","","","","","","","","","","","","key","j","16.66277551020339","768","428","f","false","img/T_ambi40.png","三角","word_first",""
"","","","","","html-keyboard-response","430","797517","0.0-13.0-1.0-1.0-0.2-1.133","null","<span style='color:red; font-size: 70px;'>错误! </span>","null","","","","","","","","","","","","","","","","","","","","","","","feedback_test"
"","","","","","psychophysics","431","799239","0.0-13.0-1.0-1.0-0.2-0.134","567","","f","","","","","","","","","","","","","key","f","16.664196078431583","768","428","f","true","img/S_ambi40.png","方形","word_first",""
"","","","","","html-keyboard-response","432","799557","0.0-13.0-1.0-1.0-0.2-1.134","null","<span style='color:GreenYellow; font-size: 70px;'>正确! </span>","null","","","","","","","","","","","","","","","","","","","","","","","feedback_test"
