"success","timeout","failed_images","failed_audio","failed_video","trial_type","trial_index","time_elapsed","internal_node_id","rt","stimulus","response","value","item_width_mm","item_height_mm","item_width_px","px2mm","view_dist_mm","item_width_deg","px2deg","scale_factor","win_width_deg","win_height_deg","view_history","response_type","key_press","avg_frame_time","center_x","center_y","correct_response","correct","Image","word","condition","screen_id"
"true","false","[]","[]","[]","preload","0","623","0.0-0.0","","","","","","","","","","","","","","","","","","","","","","","","","",""
"","","","","","html-keyboard-response","1","9602","0.0-1.0","8978","
   <p>您好，欢迎参加本次实验。</p>
   <p>为充分保障您的权利，请确保您已经知晓并同意《参与实验同意书》以及《数据公开知情同意书》。</p>
   <p>如果您未见过上述内容，请咨询实验员。</p>
   <p>如果您选择继续实验，则表示您已经清楚两份知情同意书的内容并同意。</p>
   <p> <div style = ""color: green""><按任意键至下页></div> </p>
   "," ","","","","","","","","","","","","","","","","","","","","","","",""
"","","","","","html-keyboard-response","2","11555","0.0-2.0","1951","
   <p>本实验首先需要您填写一些基本个人信息。</p>
   <p> <div style = ""color: green""><按任意键至下页></div></p>
   "," ","","","","","","","","","","","","","","","","","","","","","","",""
"","","","","","call-function","3","11557","0.0-3.0-0.0","","","","","","","","","","","","","","","","","","","","","","","","","",""
"","","","","","survey-html-form","4","17395","0.0-3.0-1.0","5832","","{""Q0"":""19""}","","","","","","","","","","","","","","","","","","","","","","",""
"","","","","","html-button-response","5","18519","0.0-3.0-2.0","1122","<p style = 'color : white'>您的性别</p>","1","","","","","","","","","","","","","","","","","","","","","","",""
"","","","","","survey-html-form","6","23753","0.0-3.0-3.0","5232","","{""Q0"":""2003""}","","","","","","","","","","","","","","","","","","","","","","",""
"","","","","","survey-html-form","7","26663","0.0-3.0-4.0","2908","","{""Q0"":""5""}","","","","","","","","","","","","","","","","","","","","","","",""
"","","","","","virtual-chinrest","8","322953","0.0-4.0","296289","","","","85.6","53.98","575.1037210438581","6.719632951144026","424.97","11.502074420877161","50","0.6607503761413166","30.72","14.06","","","","","","","","","","","",""
"true","","","","","fullscreen","9","325832","0.0-5.0","","","","","","","","","","","","","","","","","","","","","","","","","",""
"","","","","","instructions","10","444466","0.0-6.0","118633","","","","","","","","","","","","","","[{""page_index"":0,""viewing_time"":15872},{""page_index"":1,""viewing_time"":39079},{""page_index"":2,""viewing_time"":47599},{""page_index"":3,""viewing_time"":16083}]","","","","","","","","","","",""
"","","","","","psychophysics","11","446288","0.0-7.0-0.0-0.0","657","","j","","","","","","","","","","","","","key","j","16.660370370370433","768","428","j","true","img/C_ambi40.png","圆形","prac_image_first",""
"","","","","","html-keyboard-response","12","446595","0.0-7.0-0.0-1.0","null","<span style='color:GreenYellow; font-size: 70px;'>正确! </span>","null","","","","","","","","","","","","","","","","","","","","","","","feedback_test"
"","","","","","psychophysics","13","448469","0.0-7.0-0.0-0.1","711","","j","","","","","","","","","","","","","key","j","16.6605405405406","768","428","j","true","img/S_ambi40.png","方形","prac_image_first",""
"","","","","","html-keyboard-response","14","448778","0.0-7.0-0.0-1.1","null","<span style='color:GreenYellow; font-size: 70px;'>正确! </span>","null","","","","","","","","","","","","","","","","","","","","","","","feedback_test"
"","","","","","psychophysics","15","450462","0.0-7.0-0.0-0.2","518","","j","","","","","","","","","","","","","key","j","16.660599999999977","768","428","j","true","img/T_ambi40.png","三角","prac_image_first",""
"","","","","","html-keyboard-response","16","450769","0.0-7.0-0.0-1.2","null","<span style='color:GreenYellow; font-size: 70px;'>正确! </span>","null","","","","","","","","","","","","","","","","","","","","","","","feedback_test"
"","","","","","psychophysics","17","452557","0.0-7.0-0.0-0.3","622","","j","","","","","","","","","","","","","key","j","16.660566037736025","768","428","j","true","img/T_ambi40.png","三角","prac_image_first",""
"","","","","","html-keyboard-response","18","452867","0.0-7.0-0.0-1.3","null","<span style='color:GreenYellow; font-size: 70px;'>正确! </span>","null","","","","","","","","","","","","","","","","","","","","","","","feedback_test"
"","","","","","psychophysics","19","454577","0.0-7.0-0.0-0.4","548","","j","","","","","","","","","","","","","key","j","16.659801980198157","768","428","f","false","img/S_ambi40.png","圆形","prac_image_first",""
"","","","","","html-keyboard-response","20","454886","0.0-7.0-0.0-1.4","null","<span style='color:red; font-size: 70px;'>错误! </span>","null","","","","","","","","","","","","","","","","","","","","","","","feedback_test"
"","","","","","psychophysics","21","456767","0.0-7.0-0.0-0.5","728","","f","","","","","","","","","","","","","key","f","16.66035714285733","768","428","f","true","img/T_ambi40.png","方形","prac_image_first",""
"","","","","","html-keyboard-response","22","457076","0.0-7.0-0.0-1.5","null","<span style='color:GreenYellow; font-size: 70px;'>正确! </span>","null","","","","","","","","","","","","","","","","","","","","","","","feedback_test"
"","","","","","psychophysics","23","459243","0.0-7.0-0.0-0.6","1015","","f","","","","","","","","","","","","","key","f","16.660468749999836","768","428","f","true","img/C_ambi40.png","三角","prac_image_first",""
"","","","","","html-keyboard-response","24","459547","0.0-7.0-0.0-1.6","null","<span style='color:GreenYellow; font-size: 70px;'>正确! </span>","null","","","","","","","","","","","","","","","","","","","","","","","feedback_test"
"","","","","","psychophysics","25","461303","0.0-7.0-0.0-0.7","602","","j","","","","","","","","","","","","","key","j","16.660384615384547","768","428","j","true","img/C_ambi40.png","圆形","prac_image_first",""
"","","","","","html-keyboard-response","26","461618","0.0-7.0-0.0-1.7","null","<span style='color:GreenYellow; font-size: 70px;'>正确! </span>","null","","","","","","","","","","","","","","","","","","","","","","","feedback_test"
"","","","","","psychophysics","27","463343","0.0-7.0-0.0-0.8","557","","j","","","","","","","","","","","","","key","j","16.66039215686261","768","428","j","true","img/S_ambi40.png","方形","prac_image_first",""
"","","","","","html-keyboard-response","28","463646","0.0-7.0-0.0-1.8","null","<span style='color:GreenYellow; font-size: 70px;'>正确! </span>","null","","","","","","","","","","","","","","","","","","","","","","","feedback_test"
"","","","","","psychophysics","29","465552","0.0-7.0-0.0-0.9","750","","f","","","","","","","","","","","","","key","f","16.66053097345145","768","428","f","true","img/S_ambi40.png","三角","prac_image_first",""
"","","","","","html-keyboard-response","30","465855","0.0-7.0-0.0-1.9","null","<span style='color:GreenYellow; font-size: 70px;'>正确! </span>","null","","","","","","","","","","","","","","","","","","","","","","","feedback_test"
"","","","","","psychophysics","31","467766","0.0-7.0-0.0-0.10","749","","f","","","","","","","","","","","","","key","f","16.660526315789372","768","428","f","true","img/T_ambi40.png","圆形","prac_image_first",""
"","","","","","html-keyboard-response","32","468072","0.0-7.0-0.0-1.10","null","<span style='color:GreenYellow; font-size: 70px;'>正确! </span>","null","","","","","","","","","","","","","","","","","","","","","","","feedback_test"
"","","","","","psychophysics","33","470221","0.0-7.0-0.0-0.11","985","","f","","","","","","","","","","","","","key","f","16.660629921260025","768","428","f","true","img/C_ambi40.png","方形","prac_image_first",""
"","","","","","html-keyboard-response","34","470533","0.0-7.0-0.0-1.11","null","<span style='color:GreenYellow; font-size: 70px;'>正确! </span>","null","","","","","","","","","","","","","","","","","","","","","","","feedback_test"
"","","","","","psychophysics","35","472380","0.0-7.0-0.0-0.12","684","","f","","","","","","","","","","","","","key","f","16.66054545454575","768","428","f","true","img/S_ambi40.png","圆形","prac_image_first",""
"","","","","","html-keyboard-response","36","472685","0.0-7.0-0.0-1.12","null","<span style='color:GreenYellow; font-size: 70px;'>正确! </span>","null","","","","","","","","","","","","","","","","","","","","","","","feedback_test"
"","","","","","psychophysics","37","474421","0.0-7.0-0.0-0.13","573","","j","","","","","","","","","","","","","key","j","16.66038834951418","768","428","f","false","img/T_ambi40.png","方形","prac_image_first",""
"","","","","","html-keyboard-response","38","474737","0.0-7.0-0.0-1.13","null","<span style='color:red; font-size: 70px;'>错误! </span>","null","","","","","","","","","","","","","","","","","","","","","","","feedback_test"
"","","","","","psychophysics","39","476598","0.0-7.0-0.0-0.14","695","","f","","","","","","","","","","","","","key","f","16.660363636363233","768","428","f","true","img/T_ambi40.png","圆形","prac_image_first",""
"","","","","","html-keyboard-response","40","476902","0.0-7.0-0.0-1.14","null","<span style='color:GreenYellow; font-size: 70px;'>正确! </span>","null","","","","","","","","","","","","","","","","","","","","","","","feedback_test"
"","","","","","psychophysics","41","478774","0.0-7.0-0.0-0.15","708","","f","","","","","","","","","","","","","key","f","16.610810810810705","768","428","f","true","img/C_ambi40.png","三角","prac_image_first",""
"","","","","","html-keyboard-response","42","479090","0.0-7.0-0.0-1.15","null","<span style='color:GreenYellow; font-size: 70px;'>正确! </span>","null","","","","","","","","","","","","","","","","","","","","","","","feedback_test"
"","","","","","psychophysics","43","480905","0.0-7.0-0.0-0.16","660","","j","","","","","","","","","","","","","key","j","16.660560747663485","768","428","j","true","img/C_ambi40.png","圆形","prac_image_first",""
"","","","","","html-keyboard-response","44","481206","0.0-7.0-0.0-1.16","null","<span style='color:GreenYellow; font-size: 70px;'>正确! </span>","null","","","","","","","","","","","","","","","","","","","","","","","feedback_test"
"","","","","","psychophysics","45","482985","0.0-7.0-0.0-0.17","627","","j","","","","","","","","","","","","","key","j","16.660571428571295","768","428","j","true","img/T_ambi40.png","三角","prac_image_first",""
"","","","","","html-keyboard-response","46","483291","0.0-7.0-0.0-1.17","null","<span style='color:GreenYellow; font-size: 70px;'>正确! </span>","null","","","","","","","","","","","","","","","","","","","","","","","feedback_test"
"","","","","","psychophysics","47","485147","0.0-7.0-0.0-0.18","691","","j","","","","","","","","","","","","","key","j","16.660363636363762","768","428","j","true","img/T_ambi40.png","三角","prac_image_first",""
"","","","","","html-keyboard-response","48","485463","0.0-7.0-0.0-1.18","null","<span style='color:GreenYellow; font-size: 70px;'>正确! </span>","null","","","","","","","","","","","","","","","","","","","","","","","feedback_test"
"","","","","","psychophysics","49","487253","0.0-7.0-0.0-0.19","626","","j","","","","","","","","","","","","","key","j","16.660566037736025","768","428","j","true","img/C_ambi40.png","圆形","prac_image_first",""
"","","","","","html-keyboard-response","50","487558","0.0-7.0-0.0-1.19","null","<span style='color:GreenYellow; font-size: 70px;'>正确! </span>","null","","","","","","","","","","","","","","","","","","","","","","","feedback_test"
"","","","","","psychophysics","51","489862","0.0-7.0-0.0-0.20","1140","","f","","","","","","","","","","","","","key","f","16.660437956204245","768","428","f","true","img/C_ambi40.png","方形","prac_image_first",""
"","","","","","html-keyboard-response","52","490169","0.0-7.0-0.0-1.20","null","<span style='color:GreenYellow; font-size: 70px;'>正确! </span>","null","","","","","","","","","","","","","","","","","","","","","","","feedback_test"
"","","","","","psychophysics","53","492071","0.0-7.0-0.0-0.21","737","","j","","","","","","","","","","","","","key","j","16.66053097345145","768","428","j","true","img/S_ambi40.png","方形","prac_image_first",""
"","","","","","html-keyboard-response","54","492380","0.0-7.0-0.0-1.21","null","<span style='color:GreenYellow; font-size: 70px;'>正确! </span>","null","","","","","","","","","","","","","","","","","","","","","","","feedback_test"
"","","","","","psychophysics","55","494141","0.0-7.0-0.0-0.22","595","","f","","","","","","","","","","","","","key","f","16.65980952380979","768","428","f","true","img/S_ambi40.png","三角","prac_image_first",""
"","","","","","html-keyboard-response","56","494444","0.0-7.0-0.0-1.22","null","<span style='color:GreenYellow; font-size: 70px;'>正确! </span>","null","","","","","","","","","","","","","","","","","","","","","","","feedback_test"
"","","","","","psychophysics","57","496396","0.0-7.0-0.0-0.23","798","","j","","","","","","","","","","","","","key","j","16.568888888888868","768","428","j","true","img/S_ambi40.png","方形","prac_image_first",""
"","","","","","html-keyboard-response","58","496705","0.0-7.0-0.0-1.23","null","<span style='color:GreenYellow; font-size: 70px;'>正确! </span>","null","","","","","","","","","","","","","","","","","","","","","","","feedback_test"
"","","","","","html-keyboard-response","59","548969","0.0-8.0","52261","<style>.context{color:white; font-size: 35px; line-height:40px}</style>                            <div><p class='context'>您正确回答了92% 的试次。</p><p class='context'>您的平均反应时为721毫秒。</p><p class='context'>恭喜您完成这一阶段的练习。按任意键进入<span style='color: yellow;'>先文字后图形条件</span>的练习。</p></div>"," ","","","","","","","","","","","","","","","","","","","","","","",""
"","","","","","psychophysics","60","550936","0.0-9.0-0.0-0.0","809","","f","","","","","","","","","","","","","key","f","16.65914529914526","768","428","f","true","img/C_ambi40.png","方形","prac_word_first",""
"","","","","","html-keyboard-response","61","551240","0.0-9.0-0.0-1.0","null","<span style='color:GreenYellow; font-size: 70px;'>正确! </span>","null","","","","","","","","","","","","","","","","","","","","","","","feedback_test"
"","","","","","psychophysics","62","553163","0.0-9.0-0.0-0.1","758","","f","","","","","","","","","","","","","key","f","16.659824561404285","768","428","f","true","img/T_ambi40.png","圆形","prac_word_first",""
"","","","","","html-keyboard-response","63","553479","0.0-9.0-0.0-1.1","null","<span style='color:GreenYellow; font-size: 70px;'>正确! </span>","null","","","","","","","","","","","","","","","","","","","","","","","feedback_test"
"","","","","","psychophysics","64","555230","0.0-9.0-0.0-0.2","589","","f","","","","","","","","","","","","","key","f","16.660576923077596","768","428","f","true","img/C_ambi40.png","三角","prac_word_first",""
"","","","","","html-keyboard-response","65","555543","0.0-9.0-0.0-1.2","null","<span style='color:GreenYellow; font-size: 70px;'>正确! </span>","null","","","","","","","","","","","","","","","","","","","","","","","feedback_test"
"","","","","","psychophysics","66","557400","0.0-9.0-0.0-0.3","692","","j","","","","","","","","","","","","","key","j","16.659999999999787","768","428","j","true","img/C_ambi40.png","圆形","prac_word_first",""
"","","","","","html-keyboard-response","67","557718","0.0-9.0-0.0-1.3","null","<span style='color:GreenYellow; font-size: 70px;'>正确! </span>","null","","","","","","","","","","","","","","","","","","","","","","","feedback_test"
"","","","","","psychophysics","68","559487","0.0-9.0-0.0-0.4","604","","f","","","","","","","","","","","","","key","f","16.660380952380642","768","428","f","true","img/T_ambi40.png","方形","prac_word_first",""
"","","","","","html-keyboard-response","69","559799","0.0-9.0-0.0-1.4","null","<span style='color:GreenYellow; font-size: 70px;'>正确! </span>","null","","","","","","","","","","","","","","","","","","","","","","","feedback_test"
"","","","","","psychophysics","70","561511","0.0-9.0-0.0-0.5","559","","f","","","","","","","","","","","","","key","f","16.65941176470483","768","428","f","true","img/S_ambi40.png","圆形","prac_word_first",""
"","","","","","html-keyboard-response","71","561818","0.0-9.0-0.0-1.5","null","<span style='color:GreenYellow; font-size: 70px;'>正确! </span>","null","","","","","","","","","","","","","","","","","","","","","","","feedback_test"
"","","","","","psychophysics","72","563524","0.0-9.0-0.0-0.6","538","","j","","","","","","","","","","","","","key","j","16.660588235294163","768","428","j","true","img/C_ambi40.png","圆形","prac_word_first",""
"","","","","","html-keyboard-response","73","563825","0.0-9.0-0.0-1.6","null","<span style='color:GreenYellow; font-size: 70px;'>正确! </span>","null","","","","","","","","","","","","","","","","","","","","","","","feedback_test"
"","","","","","psychophysics","74","565495","0.0-9.0-0.0-0.7","505","","j","","","","","","","","","","","","","key","j","16.66040404040409","768","428","j","true","img/T_ambi40.png","三角","prac_word_first",""
"","","","","","html-keyboard-response","75","565812","0.0-9.0-0.0-1.7","null","<span style='color:GreenYellow; font-size: 70px;'>正确! </span>","null","","","","","","","","","","","","","","","","","","","","","","","feedback_test"
"","","","","","psychophysics","76","567554","0.0-9.0-0.0-0.8","574","","f","","","","","","","","","","","","","key","f","16.660388349514744","768","428","f","true","img/S_ambi40.png","三角","prac_word_first",""
"","","","","","html-keyboard-response","77","567870","0.0-9.0-0.0-1.8","null","<span style='color:GreenYellow; font-size: 70px;'>正确! </span>","null","","","","","","","","","","","","","","","","","","","","","","","feedback_test"
"","","","","","psychophysics","78","569705","0.0-9.0-0.0-0.9","676","","j","","","","","","","","","","","","","key","j","16.66000000000026","768","428","j","true","img/S_ambi40.png","方形","prac_word_first",""
"","","","","","html-keyboard-response","79","570012","0.0-9.0-0.0-1.9","null","<span style='color:GreenYellow; font-size: 70px;'>正确! </span>","null","","","","","","","","","","","","","","","","","","","","","","","feedback_test"
"","","","","","psychophysics","80","571843","0.0-9.0-0.0-0.10","665","","j","","","","","","","","","","","","","key","j","16.660550458715598","768","428","j","true","img/S_ambi40.png","方形","prac_word_first",""
"","","","","","html-keyboard-response","81","572154","0.0-9.0-0.0-1.10","null","<span style='color:GreenYellow; font-size: 70px;'>正确! </span>","null","","","","","","","","","","","","","","","","","","","","","","","feedback_test"
"","","","","","psychophysics","82","573924","0.0-9.0-0.0-0.11","617","","j","","","","","","","","","","","","","key","j","16.660571428571295","768","428","j","true","img/T_ambi40.png","三角","prac_word_first",""
"","","","","","html-keyboard-response","83","574238","0.0-9.0-0.0-1.11","null","<span style='color:GreenYellow; font-size: 70px;'>正确! </span>","null","","","","","","","","","","","","","","","","","","","","","","","feedback_test"
"","","","","","psychophysics","84","575964","0.0-9.0-0.0-0.12","572","","f","","","","","","","","","","","","","key","f","16.660588235294163","768","428","f","true","img/S_ambi40.png","圆形","prac_word_first",""
"","","","","","html-keyboard-response","85","576267","0.0-9.0-0.0-1.12","null","<span style='color:GreenYellow; font-size: 70px;'>正确! </span>","null","","","","","","","","","","","","","","","","","","","","","","","feedback_test"
"","","","","","psychophysics","86","578092","0.0-9.0-0.0-0.13","658","","f","","","","","","","","","","","","","key","f","16.660555555555252","768","428","f","true","img/C_ambi40.png","三角","prac_word_first",""
"","","","","","html-keyboard-response","87","578398","0.0-9.0-0.0-1.13","null","<span style='color:GreenYellow; font-size: 70px;'>正确! </span>","null","","","","","","","","","","","","","","","","","","","","","","","feedback_test"
"","","","","","psychophysics","88","580323","0.0-9.0-0.0-0.14","762","","f","","","","","","","","","","","","","key","f","16.66052173913011","768","428","f","true","img/T_ambi40.png","圆形","prac_word_first",""
"","","","","","html-keyboard-response","89","580636","0.0-9.0-0.0-1.14","null","<span style='color:GreenYellow; font-size: 70px;'>正确! </span>","null","","","","","","","","","","","","","","","","","","","","","","","feedback_test"
"","","","","","psychophysics","90","582488","0.0-9.0-0.0-0.15","700","","f","","","","","","","","","","","","","key","f","16.66054545454575","768","428","f","true","img/C_ambi40.png","方形","prac_word_first",""
"","","","","","html-keyboard-response","91","582803","0.0-9.0-0.0-1.15","null","<span style='color:GreenYellow; font-size: 70px;'>正确! </span>","null","","","","","","","","","","","","","","","","","","","","","","","feedback_test"
"","","","","","psychophysics","92","584516","0.0-9.0-0.0-0.16","561","","j","","","","","","","","","","","","","key","j","16.660396039604652","768","428","j","true","img/C_ambi40.png","圆形","prac_word_first",""
"","","","","","html-keyboard-response","93","584826","0.0-9.0-0.0-1.16","null","<span style='color:GreenYellow; font-size: 70px;'>正确! </span>","null","","","","","","","","","","","","","","","","","","","","","","","feedback_test"
"","","","","","psychophysics","94","586633","0.0-9.0-0.0-0.17","653","","j","","","","","","","","","","","","","key","j","16.66056074766403","768","428","j","true","img/S_ambi40.png","方形","prac_word_first",""
"","","","","","html-keyboard-response","95","586946","0.0-9.0-0.0-1.17","null","<span style='color:GreenYellow; font-size: 70px;'>正确! </span>","null","","","","","","","","","","","","","","","","","","","","","","","feedback_test"
"","","","","","psychophysics","96","588620","0.0-9.0-0.0-0.18","507","","j","","","","","","","","","","","","","key","j","16.660400000000372","768","428","j","true","img/C_ambi40.png","圆形","prac_word_first",""
"","","","","","html-keyboard-response","97","588922","0.0-9.0-0.0-1.18","null","<span style='color:GreenYellow; font-size: 70px;'>正确! </span>","null","","","","","","","","","","","","","","","","","","","","","","","feedback_test"
"","","","","","psychophysics","98","590685","0.0-9.0-0.0-0.19","595","","f","","","","","","","","","","","","","key","f","16.660576923076476","768","428","f","true","img/T_ambi40.png","方形","prac_word_first",""
"","","","","","html-keyboard-response","99","590988","0.0-9.0-0.0-1.19","null","<span style='color:GreenYellow; font-size: 70px;'>正确! </span>","null","","","","","","","","","","","","","","","","","","","","","","","feedback_test"
"","","","","","psychophysics","100","592705","0.0-9.0-0.0-0.20","554","","j","","","","","","","","","","","","","key","j","16.66039215686261","768","428","j","true","img/T_ambi40.png","三角","prac_word_first",""
"","","","","","html-keyboard-response","101","593018","0.0-9.0-0.0-1.20","null","<span style='color:GreenYellow; font-size: 70px;'>正确! </span>","null","","","","","","","","","","","","","","","","","","","","","","","feedback_test"
"","","","","","psychophysics","102","594738","0.0-9.0-0.0-0.21","570","","f","","","","","","","","","","","","","key","f","16.66039215686261","768","428","f","true","img/S_ambi40.png","三角","prac_word_first",""
"","","","","","html-keyboard-response","103","595043","0.0-9.0-0.0-1.21","null","<span style='color:GreenYellow; font-size: 70px;'>正确! </span>","null","","","","","","","","","","","","","","","","","","","","","","","feedback_test"
"","","","","","psychophysics","104","596913","0.0-9.0-0.0-0.22","715","","j","","","","","","","","","","","","","key","j","16.66054054054008","768","428","j","true","img/T_ambi40.png","三角","prac_word_first",""
"","","","","","html-keyboard-response","105","597228","0.0-9.0-0.0-1.22","null","<span style='color:GreenYellow; font-size: 70px;'>正确! </span>","null","","","","","","","","","","","","","","","","","","","","","","","feedback_test"
"","","","","","psychophysics","106","598948","0.0-9.0-0.0-0.23","568","","j","","","","","","","","","","","","","key","j","16.66039215686261","768","428","j","true","img/S_ambi40.png","方形","prac_word_first",""
"","","","","","html-keyboard-response","107","599265","0.0-9.0-0.0-1.23","null","<span style='color:GreenYellow; font-size: 70px;'>正确! </span>","null","","","","","","","","","","","","","","","","","","","","","","","feedback_test"
"","","","","","html-keyboard-response","108","605371","0.0-10.0","6100","<style>.context{color:white; font-size: 35px; line-height:40px}</style>                            <div><p class='context'>您正确回答了100% 的试次。</p><p class='context'>您的平均反应时为625毫秒。</p><p class='context'>恭喜您完成练习。按任意键进入<span style='color: yellow;'>图形和文字同时呈现条件</span>的练习。</p></div>"," ","","","","","","","","","","","","","","","","","","","","","","",""
"","","","","","psychophysics","109","607305","0.0-11.0-0.0-0.0","923","","f","","","","","","","","","","","","","key","f","16.660521739131124","768","428","f","true","img/C_ambi40.png","方形","prac_simultaneous",""
"","","","","","html-keyboard-response","110","607609","0.0-11.0-0.0-1.0","null","<span style='color:GreenYellow; font-size: 70px;'>正确! </span>","null","","","","","","","","","","","","","","","","","","","","","","","feedback_test"
"","","","","","psychophysics","111","609526","0.0-11.0-0.0-0.1","903","","j","","","","","","","","","","","","","key","j","16.660350877193228","768","428","j","true","img/S_ambi40.png","方形","prac_simultaneous",""
"","","","","","html-keyboard-response","112","609836","0.0-11.0-0.0-1.1","null","<span style='color:GreenYellow; font-size: 70px;'>正确! </span>","null","","","","","","","","","","","","","","","","","","","","","","","feedback_test"
"","","","","","psychophysics","113","611641","0.0-11.0-0.0-0.2","797","","f","","","","","","","","","","","","","key","f","16.65943925233697","768","428","f","true","img/S_ambi40.png","三角","prac_simultaneous",""
"","","","","","html-keyboard-response","114","611946","0.0-11.0-0.0-1.2","null","<span style='color:GreenYellow; font-size: 70px;'>正确! </span>","null","","","","","","","","","","","","","","","","","","","","","","","feedback_test"
"","","","","","psychophysics","115","613806","0.0-11.0-0.0-0.3","852","","j","","","","","","","","","","","","","key","j","16.66054545454575","768","428","j","true","img/C_ambi40.png","圆形","prac_simultaneous",""
"","","","","","html-keyboard-response","116","614107","0.0-11.0-0.0-1.3","null","<span style='color:GreenYellow; font-size: 70px;'>正确! </span>","null","","","","","","","","","","","","","","","","","","","","","","","feedback_test"
"","","","","","psychophysics","117","615830","0.0-11.0-0.0-0.4","712","","f","","","","","","","","","","","","","key","f","16.660194174757283","768","428","f","true","img/T_ambi40.png","方形","prac_simultaneous",""
"","","","","","html-keyboard-response","118","616143","0.0-11.0-0.0-1.4","null","<span style='color:GreenYellow; font-size: 70px;'>正确! </span>","null","","","","","","","","","","","","","","","","","","","","","","","feedback_test"
"","","","","","psychophysics","119","617923","0.0-11.0-0.0-0.5","771","","j","","","","","","","","","","","","","key","j","16.660566037736025","768","428","j","true","img/S_ambi40.png","方形","prac_simultaneous",""
"","","","","","html-keyboard-response","120","618230","0.0-11.0-0.0-1.5","null","<span style='color:GreenYellow; font-size: 70px;'>正确! </span>","null","","","","","","","","","","","","","","","","","","","","","","","feedback_test"
"","","","","","psychophysics","121","619948","0.0-11.0-0.0-0.6","709","","f","","","","","","","","","","","","","key","f","16.660588235293023","768","428","f","true","img/S_ambi40.png","圆形","prac_simultaneous",""
"","","","","","html-keyboard-response","122","620263","0.0-11.0-0.0-1.6","null","<span style='color:GreenYellow; font-size: 70px;'>正确! </span>","null","","","","","","","","","","","","","","","","","","","","","","","feedback_test"
"","","","","","psychophysics","123","622019","0.0-11.0-0.0-0.7","747","","f","","","","","","","","","","","","","key","f","16.658653846153847","768","428","f","true","img/T_ambi40.png","圆形","prac_simultaneous",""
"","","","","","html-keyboard-response","124","622333","0.0-11.0-0.0-1.7","null","<span style='color:GreenYellow; font-size: 70px;'>正确! </span>","null","","","","","","","","","","","","","","","","","","","","","","","feedback_test"
"","","","","","psychophysics","125","623970","0.0-11.0-0.0-0.8","624","","j","","","","","","","","","","","","","key","j","16.659381443298585","768","428","j","true","img/T_ambi40.png","三角","prac_simultaneous",""
"","","","","","html-keyboard-response","126","624281","0.0-11.0-0.0-1.8","null","<span style='color:GreenYellow; font-size: 70px;'>正确! </span>","null","","","","","","","","","","","","","","","","","","","","","","","feedback_test"
"","","","","","psychophysics","127","625981","0.0-11.0-0.0-0.9","692","","f","","","","","","","","","","","","","key","f","16.660396039603498","768","428","f","true","img/C_ambi40.png","三角","prac_simultaneous",""
"","","","","","html-keyboard-response","128","626287","0.0-11.0-0.0-1.9","null","<span style='color:GreenYellow; font-size: 70px;'>正确! </span>","null","","","","","","","","","","","","","","","","","","","","","","","feedback_test"
"","","","","","psychophysics","129","627984","0.0-11.0-0.0-0.10","687","","j","","","","","","","","","","","","","key","j","16.660198019801335","768","428","j","true","img/C_ambi40.png","圆形","prac_simultaneous",""
"","","","","","html-keyboard-response","130","628290","0.0-11.0-0.0-1.10","null","<span style='color:GreenYellow; font-size: 70px;'>正确! </span>","null","","","","","","","","","","","","","","","","","","","","","","","feedback_test"
"","","","","","psychophysics","131","630026","0.0-11.0-0.0-0.11","731","","j","","","","","","","","","","","","","key","j","16.660588235294163","768","428","j","true","img/T_ambi40.png","三角","prac_simultaneous",""
"","","","","","html-keyboard-response","132","630338","0.0-11.0-0.0-1.11","null","<span style='color:GreenYellow; font-size: 70px;'>正确! </span>","null","","","","","","","","","","","","","","","","","","","","","","","feedback_test"
"","","","","","psychophysics","133","632200","0.0-11.0-0.0-0.12","854","","j","","","","","","","","","","","","","key","j","16.660540540541128","768","428","j","true","img/S_ambi40.png","方形","prac_simultaneous",""
"","","","","","html-keyboard-response","134","632515","0.0-11.0-0.0-1.12","null","<span style='color:GreenYellow; font-size: 70px;'>正确! </span>","null","","","","","","","","","","","","","","","","","","","","","","","feedback_test"
"","","","","","psychophysics","135","634486","0.0-11.0-0.0-0.13","954","","f","","","","","","","","","","","","","key","f","16.66051282051306","768","428","f","true","img/T_ambi40.png","方形","prac_simultaneous",""
"","","","","","html-keyboard-response","136","634789","0.0-11.0-0.0-1.13","null","<span style='color:GreenYellow; font-size: 70px;'>正确! </span>","null","","","","","","","","","","","","","","","","","","","","","","","feedback_test"
"","","","","","psychophysics","137","636983","0.0-11.0-0.0-0.14","1184","","f","","","","","","","","","","","","","key","f","16.660615384615422","768","428","f","true","img/C_ambi40.png","方形","prac_simultaneous",""
"","","","","","html-keyboard-response","138","637297","0.0-11.0-0.0-1.14","null","<span style='color:GreenYellow; font-size: 70px;'>正确! </span>","null","","","","","","","","","","","","","","","","","","","","","","","feedback_test"
"","","","","","psychophysics","139","639234","0.0-11.0-0.0-0.15","927","","f","","","","","","","","","","","","","key","f","16.66052173913011","768","428","f","true","img/C_ambi40.png","三角","prac_simultaneous",""
"","","","","","html-keyboard-response","140","639541","0.0-11.0-0.0-1.15","null","<span style='color:GreenYellow; font-size: 70px;'>正确! </span>","null","","","","","","","","","","","","","","","","","","","","","","","feedback_test"
"","","","","","psychophysics","141","641370","0.0-11.0-0.0-0.16","822","","f","","","","","","","","","","","","","key","f","16.660185185185615","768","428","f","true","img/S_ambi40.png","圆形","prac_simultaneous",""
"","","","","","html-keyboard-response","142","641682","0.0-11.0-0.0-1.16","null","<span style='color:GreenYellow; font-size: 70px;'>正确! </span>","null","","","","","","","","","","","","","","","","","","","","","","","feedback_test"
"","","","","","psychophysics","143","643379","0.0-11.0-0.0-0.17","682","","f","","","","","","","","","","","","","key","f","16.660594059405664","768","428","f","true","img/S_ambi40.png","三角","prac_simultaneous",""
"","","","","","html-keyboard-response","144","643685","0.0-11.0-0.0-1.17","null","<span style='color:GreenYellow; font-size: 70px;'>正确! </span>","null","","","","","","","","","","","","","","","","","","","","","","","feedback_test"
"","","","","","psychophysics","145","645361","0.0-11.0-0.0-0.18","663","","f","","","","","","","","","","","","","key","f","16.660599999999395","768","428","f","true","img/T_ambi40.png","圆形","prac_simultaneous",""
"","","","","","html-keyboard-response","146","645676","0.0-11.0-0.0-1.18","null","<span style='color:GreenYellow; font-size: 70px;'>正确! </span>","null","","","","","","","","","","","","","","","","","","","","","","","feedback_test"
"","","","","","psychophysics","147","647460","0.0-11.0-0.0-0.19","771","","j","","","","","","","","","","","","","key","j","16.660377358490567","768","428","j","true","img/T_ambi40.png","三角","prac_simultaneous",""
"","","","","","html-keyboard-response","148","647763","0.0-11.0-0.0-1.19","null","<span style='color:GreenYellow; font-size: 70px;'>正确! </span>","null","","","","","","","","","","","","","","","","","","","","","","","feedback_test"
"","","","","","psychophysics","149","649699","0.0-11.0-0.0-0.20","924","","j","","","","","","","","","","","","","key","j","16.66052173913011","768","428","j","true","img/S_ambi40.png","方形","prac_simultaneous",""
"","","","","","html-keyboard-response","150","650003","0.0-11.0-0.0-1.20","null","<span style='color:GreenYellow; font-size: 70px;'>正确! </span>","null","","","","","","","","","","","","","","","","","","","","","","","feedback_test"
"","","","","","psychophysics","151","652034","0.0-11.0-0.0-0.21","1021","","j","","","","","","","","","","","","","key","j","16.609333333333293","768","428","j","true","img/C_ambi40.png","圆形","prac_simultaneous",""
"","","","","","html-keyboard-response","152","652348","0.0-11.0-0.0-1.21","null","<span style='color:GreenYellow; font-size: 70px;'>正确! </span>","null","","","","","","","","","","","","","","","","","","","","","","","feedback_test"
"","","","","","psychophysics","153","654681","0.0-11.0-0.0-0.22","1322","","j","","","","","","","","","","","","","key","j","16.660431654675758","768","428","j","true","img/C_ambi40.png","圆形","prac_simultaneous",""
"","","","","","html-keyboard-response","154","654988","0.0-11.0-0.0-1.22","null","<span style='color:GreenYellow; font-size: 70px;'>正确! </span>","null","","","","","","","","","","","","","","","","","","","","","","","feedback_test"
"","","","","","psychophysics","155","656694","0.0-11.0-0.0-0.23","692","","j","","","","","","","","","","","","","key","j","16.660198019802486","768","428","j","true","img/T_ambi40.png","三角","prac_simultaneous",""
"","","","","","html-keyboard-response","156","656995","0.0-11.0-0.0-1.23","null","<span style='color:GreenYellow; font-size: 70px;'>正确! </span>","null","","","","","","","","","","","","","","","","","","","","","","","feedback_test"
"","","","","","html-keyboard-response","157","693124","0.0-12.0","36122","<style>.context{color:white; font-size: 35px; line-height:40px}</style>                            <div><p class='context'>您正确回答了100% 的试次。</p><p class='context'>您的平均反应时为832毫秒。</p><p class='context'>恭喜您完成练习。按任意键进入正式实验。</p><p class='footer' style='font-size: 35px; line-height:40px;'>请在进入正式实验实验之前将您的<span style='color: lightgreen;'>食指</span>放在电脑键盘的相应键位上进行按键。</p>"," ","","","","","","","","","","","","","","","","","","","","","","",""
"","","","","","html-keyboard-response","158","697438","0.0-13.0-0.0-0.0","4313","
    <p>请您将手指放在按键上，准备进入呈现顺序为<span style='color: yellow;'>先图形后文字条件</span>的正式匹配任务</p>
    <p> <div style = ""color: green""><按任意键进入下一阶段的匹配任务></div></p>
    "," ","","","","","","","","","","","","","","","","","","","","","","",""
"","","","","","psychophysics","159","699374","0.0-13.0-0.0-1.0-0.0-0.0","782","","f","","","","","","","","","","","","","key","f","16.660521739131124","768","428","f","true","img/T_ambi40.png","方形","image_first",""
"","","","","","html-keyboard-response","160","699676","0.0-13.0-0.0-1.0-0.0-1.0","null","<span style='color:GreenYellow; font-size: 70px;'>正确! </span>","null","","","","","","","","","","","","","","","","","","","","","","","feedback_test"
"","","","","","psychophysics","161","701384","0.0-13.0-0.0-1.0-0.0-0.1","556","","j","","","","","","","","","","","","","key","j","16.66039215686261","768","428","j","true","img/C_ambi40.png","圆形","image_first",""
"","","","","","html-keyboard-response","162","701700","0.0-13.0-0.0-1.0-0.0-1.1","null","<span style='color:GreenYellow; font-size: 70px;'>正确! </span>","null","","","","","","","","","","","","","","","","","","","","","","","feedback_test"
"","","","","","psychophysics","163","703405","0.0-13.0-0.0-1.0-0.0-0.2","544","","j","","","","","","","","","","","","","key","j","16.660594059405664","768","428","j","true","img/C_ambi40.png","圆形","image_first",""
"","","","","","html-keyboard-response","164","703718","0.0-13.0-0.0-1.0-0.0-1.2","null","<span style='color:GreenYellow; font-size: 70px;'>正确! </span>","null","","","","","","","","","","","","","","","","","","","","","","","feedback_test"
"","","","","","psychophysics","165","705584","0.0-13.0-0.0-1.0-0.0-0.3","712","","f","","","","","","","","","","","","","key","f","16.595178571428864","768","428","f","true","img/C_ambi40.png","方形","image_first",""
"","","","","","html-keyboard-response","166","705899","0.0-13.0-0.0-1.0-0.0-1.3","null","<span style='color:GreenYellow; font-size: 70px;'>正确! </span>","null","","","","","","","","","","","","","","","","","","","","","","","feedback_test"
"","","","","","psychophysics","167","707764","0.0-13.0-0.0-1.0-0.0-0.4","715","","f","","","","","","","","","","","","","key","f","16.660540540541128","768","428","f","true","img/S_ambi40.png","圆形","image_first",""
"","","","","","html-keyboard-response","168","708080","0.0-13.0-0.0-1.0-0.0-1.4","null","<span style='color:GreenYellow; font-size: 70px;'>正确! </span>","null","","","","","","","","","","","","","","","","","","","","","","","feedback_test"
"","","","","","psychophysics","169","709859","0.0-13.0-0.0-1.0-0.0-0.5","625","","j","","","","","","","","","","","","","key","j","16.660571428571295","768","428","j","true","img/S_ambi40.png","方形","image_first",""
"","","","","","html-keyboard-response","170","710168","0.0-13.0-0.0-1.0-0.0-1.5","null","<span style='color:GreenYellow; font-size: 70px;'>正确! </span>","null","","","","","","","","","","","","","","","","","","","","","","","feedback_test"
"","","","","","psychophysics","171","711994","0.0-13.0-0.0-1.0-0.0-0.6","657","","f","","","","","","","","","","","","","key","f","16.660555555556332","768","428","f","true","img/S_ambi40.png","三角","image_first",""
"","","","","","html-keyboard-response","172","712300","0.0-13.0-0.0-1.0-0.0-1.6","null","<span style='color:GreenYellow; font-size: 70px;'>正确! </span>","null","","","","","","","","","","","","","","","","","","","","","","","feedback_test"
"","","","","","psychophysics","173","714067","0.0-13.0-0.0-1.0-0.0-0.7","602","","j","","","","","","","","","","","","","key","j","16.659619047619135","768","428","j","true","img/T_ambi40.png","三角","image_first",""
"","","","","","html-keyboard-response","174","714377","0.0-13.0-0.0-1.0-0.0-1.7","null","<span style='color:GreenYellow; font-size: 70px;'>正确! </span>","null","","","","","","","","","","","","","","","","","","","","","","","feedback_test"
"","","","","","psychophysics","175","716110","0.0-13.0-0.0-1.0-0.0-0.8","579","","j","","","","","","","","","","","","","key","j","16.660582524272208","768","428","j","true","img/T_ambi40.png","三角","image_first",""
"","","","","","html-keyboard-response","176","716423","0.0-13.0-0.0-1.0-0.0-1.8","null","<span style='color:GreenYellow; font-size: 70px;'>正确! </span>","null","","","","","","","","","","","","","","","","","","","","","","","feedback_test"
"","","","","","psychophysics","177","718115","0.0-13.0-0.0-1.0-0.0-0.9","539","","j","","","","","","","","","","","","","key","j","16.660594059405664","768","428","j","true","img/S_ambi40.png","方形","image_first",""
"","","","","","html-keyboard-response","178","718418","0.0-13.0-0.0-1.0-0.0-1.9","null","<span style='color:GreenYellow; font-size: 70px;'>正确! </span>","null","","","","","","","","","","","","","","","","","","","","","","","feedback_test"
"","","","","","psychophysics","179","720206","0.0-13.0-0.0-1.0-0.0-0.10","625","","f","","","","","","","","","","","","","key","f","16.660566037736025","768","428","f","true","img/C_ambi40.png","三角","image_first",""
"","","","","","html-keyboard-response","180","720516","0.0-13.0-0.0-1.0-0.0-1.10","null","<span style='color:GreenYellow; font-size: 70px;'>正确! </span>","null","","","","","","","","","","","","","","","","","","","","","","","feedback_test"
"","","","","","psychophysics","181","722256","0.0-13.0-0.0-1.0-0.0-0.11","583","","f","","","","","","","","","","","","","key","f","16.660582524271074","768","428","f","true","img/T_ambi40.png","圆形","image_first",""
"","","","","","html-keyboard-response","182","722570","0.0-13.0-0.0-1.0-0.0-1.11","null","<span style='color:GreenYellow; font-size: 70px;'>正确! </span>","null","","","","","","","","","","","","","","","","","","","","","","","feedback_test"
"","","","","","psychophysics","183","724354","0.0-13.0-0.0-1.0-0.0-0.12","628","","f","","","","","","","","","","","","","key","f","16.660566037736025","768","428","f","true","img/C_ambi40.png","三角","image_first",""
"","","","","","html-keyboard-response","184","724658","0.0-13.0-0.0-1.0-0.0-1.12","null","<span style='color:GreenYellow; font-size: 70px;'>正确! </span>","null","","","","","","","","","","","","","","","","","","","","","","","feedback_test"
"","","","","","psychophysics","185","726405","0.0-13.0-0.0-1.0-0.0-0.13","582","","f","","","","","","","","","","","","","key","f","16.660388349514744","768","428","f","true","img/S_ambi40.png","圆形","image_first",""
"","","","","","html-keyboard-response","186","726708","0.0-13.0-0.0-1.0-0.0-1.13","null","<span style='color:GreenYellow; font-size: 70px;'>正确! </span>","null","","","","","","","","","","","","","","","","","","","","","","","feedback_test"
"","","","","","psychophysics","187","728504","0.0-13.0-0.0-1.0-0.0-0.14","644","","j","","","","","","","","","","","","","key","j","16.63214953271041","768","428","j","true","img/T_ambi40.png","三角","image_first",""
"","","","","","html-keyboard-response","188","728812","0.0-13.0-0.0-1.0-0.0-1.14","null","<span style='color:GreenYellow; font-size: 70px;'>正确! </span>","null","","","","","","","","","","","","","","","","","","","","","","","feedback_test"
"","","","","","psychophysics","189","730775","0.0-13.0-0.0-1.0-0.0-0.15","797","","j","","","","","","","","","","","","","key","j","16.66051282051306","768","428","j","true","img/C_ambi40.png","圆形","image_first",""
"","","","","","html-keyboard-response","190","731078","0.0-13.0-0.0-1.0-0.0-1.15","null","<span style='color:GreenYellow; font-size: 70px;'>正确! </span>","null","","","","","","","","","","","","","","","","","","","","","","","feedback_test"
"","","","","","psychophysics","191","732978","0.0-13.0-0.0-1.0-0.0-0.16","750","","f","","","","","","","","","","","","","key","f","16.66053097345145","768","428","f","true","img/T_ambi40.png","方形","image_first",""
"","","","","","html-keyboard-response","192","733286","0.0-13.0-0.0-1.0-0.0-1.16","null","<span style='color:GreenYellow; font-size: 70px;'>正确! </span>","null","","","","","","","","","","","","","","","","","","","","","","","feedback_test"
"","","","","","psychophysics","193","735162","0.0-13.0-0.0-1.0-0.0-0.17","714","","j","","","","","","","","","","","","","key","j","16.660540540541128","768","428","j","true","img/T_ambi40.png","三角","image_first",""
"","","","","","html-keyboard-response","194","735477","0.0-13.0-0.0-1.0-0.0-1.17","null","<span style='color:GreenYellow; font-size: 70px;'>正确! </span>","null","","","","","","","","","","","","","","","","","","","","","","","feedback_test"
"","","","","","psychophysics","195","737314","0.0-13.0-0.0-1.0-0.0-0.18","672","","f","","","","","","","","","","","","","key","f","16.660366972476893","768","428","f","true","img/C_ambi40.png","方形","image_first",""
"","","","","","html-keyboard-response","196","737621","0.0-13.0-0.0-1.0-0.0-1.18","null","<span style='color:GreenYellow; font-size: 70px;'>正确! </span>","null","","","","","","","","","","","","","","","","","","","","","","","feedback_test"
"","","","","","psychophysics","197","739503","0.0-13.0-0.0-1.0-0.0-0.19","718","","f","","","","","","","","","","","","","key","f","16.66036036036078","768","428","f","true","img/T_ambi40.png","圆形","image_first",""
"","","","","","html-keyboard-response","198","739816","0.0-13.0-0.0-1.0-0.0-1.19","null","<span style='color:GreenYellow; font-size: 70px;'>正确! </span>","null","","","","","","","","","","","","","","","","","","","","","","","feedback_test"
"","","","","","psychophysics","199","741614","0.0-13.0-0.0-1.0-0.0-0.20","630","","j","","","","","","","","","","","","","key","j","16.660373831776006","768","428","j","true","img/S_ambi40.png","方形","image_first",""
"","","","","","html-keyboard-response","200","741916","0.0-13.0-0.0-1.0-0.0-1.20","null","<span style='color:GreenYellow; font-size: 70px;'>正确! </span>","null","","","","","","","","","","","","","","","","","","","","","","","feedback_test"
"","","","","","psychophysics","201","743733","0.0-13.0-0.0-1.0-0.0-0.21","653","","j","","","","","","","","","","","","","key","j","16.660370370370973","768","428","j","true","img/S_ambi40.png","方形","image_first",""
"","","","","","html-keyboard-response","202","744047","0.0-13.0-0.0-1.0-0.0-1.21","null","<span style='color:GreenYellow; font-size: 70px;'>正确! </span>","null","","","","","","","","","","","","","","","","","","","","","","","feedback_test"
"","","","","","psychophysics","203","745691","0.0-13.0-0.0-1.0-0.0-0.22","490","","j","","","","","","","","","","","","","key","j","16.660612244897862","768","428","j","true","img/C_ambi40.png","圆形","image_first",""
"","","","","","html-keyboard-response","204","746001","0.0-13.0-0.0-1.0-0.0-1.22","null","<span style='color:GreenYellow; font-size: 70px;'>正确! </span>","null","","","","","","","","","","","","","","","","","","","","","","","feedback_test"
"","","","","","psychophysics","205","747664","0.0-13.0-0.0-1.0-0.0-0.23","509","","f","","","","","","","","","","","","","key","f","16.66040404040409","768","428","f","true","img/S_ambi40.png","三角","image_first",""
"","","","","","html-keyboard-response","206","747975","0.0-13.0-0.0-1.0-0.0-1.23","null","<span style='color:GreenYellow; font-size: 70px;'>正确! </span>","null","","","","","","","","","","","","","","","","","","","","","","","feedback_test"
"","","","","","psychophysics","207","749719","0.0-13.0-0.0-1.0-0.0-0.24","582","","j","","","","","","","","","","","","","key","j","16.660582524271074","768","428","j","true","img/T_ambi40.png","三角","image_first",""
"","","","","","html-keyboard-response","208","750026","0.0-13.0-0.0-1.0-0.0-1.24","null","<span style='color:GreenYellow; font-size: 70px;'>正确! </span>","null","","","","","","","","","","","","","","","","","","","","","","","feedback_test"
"","","","","","psychophysics","209","751733","0.0-13.0-0.0-1.0-0.0-0.25","543","","f","","","","","","","","","","","","","key","f","16.660396039603498","768","428","f","true","img/C_ambi40.png","方形","image_first",""
"","","","","","html-keyboard-response","210","752046","0.0-13.0-0.0-1.0-0.0-1.25","null","<span style='color:GreenYellow; font-size: 70px;'>正确! </span>","null","","","","","","","","","","","","","","","","","","","","","","","feedback_test"
"","","","","","psychophysics","211","754115","0.0-13.0-0.0-1.0-0.0-0.26","917","","f","","","","","","","","","","","","","key","f","16.660487804877974","768","428","f","true","img/S_ambi40.png","圆形","image_first",""
"","","","","","html-keyboard-response","212","754429","0.0-13.0-0.0-1.0-0.0-1.26","null","<span style='color:GreenYellow; font-size: 70px;'>正确! </span>","null","","","","","","","","","","","","","","","","","","","","","","","feedback_test"
"","","","","","psychophysics","213","756195","0.0-13.0-0.0-1.0-0.0-0.27","599","","f","","","","","","","","","","","","","key","f","16.660571428571295","768","428","f","true","img/C_ambi40.png","三角","image_first",""
"","","","","","html-keyboard-response","214","756497","0.0-13.0-0.0-1.0-0.0-1.27","null","<span style='color:GreenYellow; font-size: 70px;'>正确! </span>","null","","","","","","","","","","","","","","","","","","","","","","","feedback_test"
"","","","","","psychophysics","215","758226","0.0-13.0-0.0-1.0-0.0-0.28","565","","f","","","","","","","","","","","","","key","f","16.51980769230711","768","428","f","true","img/S_ambi40.png","三角","image_first",""
"","","","","","html-keyboard-response","216","758532","0.0-13.0-0.0-1.0-0.0-1.28","null","<span style='color:GreenYellow; font-size: 70px;'>正确! </span>","null","","","","","","","","","","","","","","","","","","","","","","","feedback_test"
"","","","","","psychophysics","217","760435","0.0-13.0-0.0-1.0-0.0-0.29","747","","j","","","","","","","","","","","","","key","j","16.66053097345145","768","428","j","true","img/S_ambi40.png","方形","image_first",""
"","","","","","html-keyboard-response","218","760744","0.0-13.0-0.0-1.0-0.0-1.29","null","<span style='color:GreenYellow; font-size: 70px;'>正确! </span>","null","","","","","","","","","","","","","","","","","","","","","","","feedback_test"
"","","","","","psychophysics","219","762472","0.0-13.0-0.0-1.0-0.0-0.30","559","","j","","","","","","","","","","","","","key","j","16.66039215686261","768","428","j","true","img/T_ambi40.png","三角","image_first",""
"","","","","","html-keyboard-response","220","762781","0.0-13.0-0.0-1.0-0.0-1.30","null","<span style='color:GreenYellow; font-size: 70px;'>正确! </span>","null","","","","","","","","","","","","","","","","","","","","","","","feedback_test"
"","","","","","psychophysics","221","764528","0.0-13.0-0.0-1.0-0.0-0.31","595","","f","","","","","","","","","","","","","key","f","16.660388349514744","768","428","f","true","img/T_ambi40.png","圆形","image_first",""
"","","","","","html-keyboard-response","222","764837","0.0-13.0-0.0-1.0-0.0-1.31","null","<span style='color:GreenYellow; font-size: 70px;'>正确! </span>","null","","","","","","","","","","","","","","","","","","","","","","","feedback_test"
"","","","","","psychophysics","223","766665","0.0-13.0-0.0-1.0-0.0-0.32","662","","f","","","","","","","","","","","","","key","f","16.660555555555252","768","428","f","true","img/T_ambi40.png","方形","image_first",""
"","","","","","html-keyboard-response","224","766966","0.0-13.0-0.0-1.0-0.0-1.32","null","<span style='color:GreenYellow; font-size: 70px;'>正确! </span>","null","","","","","","","","","","","","","","","","","","","","","","","feedback_test"
"","","","","","psychophysics","225","768656","0.0-13.0-0.0-1.0-0.0-0.33","525","","j","","","","","","","","","","","","","key","j","16.660599999999395","768","428","j","true","img/C_ambi40.png","圆形","image_first",""
"","","","","","html-keyboard-response","226","768970","0.0-13.0-0.0-1.0-0.0-1.33","null","<span style='color:GreenYellow; font-size: 70px;'>正确! </span>","null","","","","","","","","","","","","","","","","","","","","","","","feedback_test"
"","","","","","psychophysics","227","770714","0.0-13.0-0.0-1.0-0.0-0.34","587","","j","","","","","","","","","","","","","key","j","16.660582524271074","768","428","j","true","img/C_ambi40.png","圆形","image_first",""
"","","","","","html-keyboard-response","228","771029","0.0-13.0-0.0-1.0-0.0-1.34","null","<span style='color:GreenYellow; font-size: 70px;'>正确! </span>","null","","","","","","","","","","","","","","","","","","","","","","","feedback_test"
"","","","","","psychophysics","229","772921","0.0-13.0-0.0-1.0-0.0-0.35","731","","j","","","","","","","","","","","","","key","j","16.66035714285785","768","428","j","true","img/S_ambi40.png","方形","image_first",""
"","","","","","html-keyboard-response","230","773232","0.0-13.0-0.0-1.0-0.0-1.35","null","<span style='color:GreenYellow; font-size: 70px;'>正确! </span>","null","","","","","","","","","","","","","","","","","","","","","","","feedback_test"
"","","","","","psychophysics","231","775416","0.0-13.0-0.0-1.0-0.0-0.36","1029","","f","","","","","","","","","","","","","key","f","16.66030769230744","768","428","f","true","img/C_ambi40.png","方形","image_first",""
"","","","","","html-keyboard-response","232","775720","0.0-13.0-0.0-1.0-0.0-1.36","null","<span style='color:GreenYellow; font-size: 70px;'>正确! </span>","null","","","","","","","","","","","","","","","","","","","","","","","feedback_test"
"","","","","","psychophysics","233","777741","0.0-13.0-0.0-1.0-0.0-0.37","868","","j","","","","","","","","","","","","","key","j","16.660500000000077","768","428","j","true","img/C_ambi40.png","圆形","image_first",""
"","","","","","html-keyboard-response","234","778042","0.0-13.0-0.0-1.0-0.0-1.37","null","<span style='color:GreenYellow; font-size: 70px;'>正确! </span>","null","","","","","","","","","","","","","","","","","","","","","","","feedback_test"
"","","","","","psychophysics","235","779992","0.0-13.0-0.0-1.0-0.0-0.38","787","","f","","","","","","","","","","","","","key","f","16.62382608695644","768","428","f","true","img/S_ambi40.png","圆形","image_first",""
"","","","","","html-keyboard-response","236","780294","0.0-13.0-0.0-1.0-0.0-1.38","null","<span style='color:GreenYellow; font-size: 70px;'>正确! </span>","null","","","","","","","","","","","","","","","","","","","","","","","feedback_test"
"","","","","","psychophysics","237","782131","0.0-13.0-0.0-1.0-0.0-0.39","670","","f","","","","","","","","","","","","","key","f","16.659444444444187","768","428","f","true","img/S_ambi40.png","三角","image_first",""
"","","","","","html-keyboard-response","238","782438","0.0-13.0-0.0-1.0-0.0-1.39","null","<span style='color:GreenYellow; font-size: 70px;'>正确! </span>","null","","","","","","","","","","","","","","","","","","","","","","","feedback_test"
"","","","","","psychophysics","239","784279","0.0-13.0-0.0-1.0-0.0-0.40","690","","j","","","","","","","","","","","","","key","j","16.660550458715598","768","428","j","true","img/T_ambi40.png","三角","image_first",""
"","","","","","html-keyboard-response","240","784586","0.0-13.0-0.0-1.0-0.0-1.40","null","<span style='color:GreenYellow; font-size: 70px;'>正确! </span>","null","","","","","","","","","","","","","","","","","","","","","","","feedback_test"
"","","","","","psychophysics","241","786660","0.0-13.0-0.0-1.0-0.0-0.41","908","","f","","","","","","","","","","","","","key","f","16.66048780487892","768","428","f","true","img/T_ambi40.png","圆形","image_first",""
"","","","","","html-keyboard-response","242","786967","0.0-13.0-0.0-1.0-0.0-1.41","null","<span style='color:GreenYellow; font-size: 70px;'>正确! </span>","null","","","","","","","","","","","","","","","","","","","","","","","feedback_test"
"","","","","","psychophysics","243","788801","0.0-13.0-0.0-1.0-0.0-0.42","681","","f","","","","","","","","","","","","","key","f","16.660550458715598","768","428","f","true","img/T_ambi40.png","方形","image_first",""
"","","","","","html-keyboard-response","244","789114","0.0-13.0-0.0-1.0-0.0-1.42","null","<span style='color:GreenYellow; font-size: 70px;'>正确! </span>","null","","","","","","","","","","","","","","","","","","","","","","","feedback_test"
"","","","","","psychophysics","245","791155","0.0-13.0-0.0-1.0-0.0-0.43","874","","f","","","","","","","","","","","","","key","f","16.66049586776894","768","428","f","true","img/C_ambi40.png","三角","image_first",""
"","","","","","html-keyboard-response","246","791461","0.0-13.0-0.0-1.0-0.0-1.43","null","<span style='color:GreenYellow; font-size: 70px;'>正确! </span>","null","","","","","","","","","","","","","","","","","","","","","","","feedback_test"
"","","","","","psychophysics","247","793159","0.0-13.0-0.0-1.0-0.0-0.44","534","","j","","","","","","","","","","","","","key","j","16.660599999999395","768","428","j","true","img/C_ambi40.png","圆形","image_first",""
"","","","","","html-keyboard-response","248","793473","0.0-13.0-0.0-1.0-0.0-1.44","null","<span style='color:GreenYellow; font-size: 70px;'>正确! </span>","null","","","","","","","","","","","","","","","","","","","","","","","feedback_test"
"","","","","","psychophysics","249","795523","0.0-13.0-0.0-1.0-0.0-0.45","894","","j","","","","","","","","","","","","","key","j","16.660491803278344","768","428","j","true","img/T_ambi40.png","三角","image_first",""
"","","","","","html-keyboard-response","250","795823","0.0-13.0-0.0-1.0-0.0-1.45","null","<span style='color:GreenYellow; font-size: 70px;'>正确! </span>","null","","","","","","","","","","","","","","","","","","","","","","","feedback_test"
"","","","","","psychophysics","251","797749","0.0-13.0-0.0-1.0-0.0-0.46","761","","j","","","","","","","","","","","","","key","j","16.66017543859657","768","428","j","true","img/S_ambi40.png","方形","image_first",""
"","","","","","html-keyboard-response","252","798052","0.0-13.0-0.0-1.0-0.0-1.46","null","<span style='color:GreenYellow; font-size: 70px;'>正确! </span>","null","","","","","","","","","","","","","","","","","","","","","","","feedback_test"
"","","","","","psychophysics","253","800123","0.0-13.0-0.0-1.0-0.0-0.47","906","","j","","","","","","","","","","","","","key","j","16.66048780487892","768","428","j","true","img/S_ambi40.png","方形","image_first",""
"","","","","","html-keyboard-response","254","800435","0.0-13.0-0.0-1.0-0.0-1.47","null","<span style='color:GreenYellow; font-size: 70px;'>正确! </span>","null","","","","","","","","","","","","","","","","","","","","","","","feedback_test"
"","","","","","psychophysics","255","802477","0.0-13.0-0.0-1.0-0.0-0.48","889","","f","","","","","","","","","","","","","key","f","16.6604918032793","768","428","f","true","img/T_ambi40.png","圆形","image_first",""
"","","","","","html-keyboard-response","256","802792","0.0-13.0-0.0-1.0-0.0-1.48","null","<span style='color:GreenYellow; font-size: 70px;'>正确! </span>","null","","","","","","","","","","","","","","","","","","","","","","","feedback_test"
"","","","","","psychophysics","257","804723","0.0-13.0-0.0-1.0-0.0-0.49","768","","j","","","","","","","","","","","","","key","j","16.66052631578988","768","428","j","true","img/T_ambi40.png","三角","image_first",""
"","","","","","html-keyboard-response","258","805027","0.0-13.0-0.0-1.0-0.0-1.49","null","<span style='color:GreenYellow; font-size: 70px;'>正确! </span>","null","","","","","","","","","","","","","","","","","","","","","","","feedback_test"
"","","","","","psychophysics","259","807086","0.0-13.0-0.0-1.0-0.0-0.50","906","","j","","","","","","","","","","","","","key","j","16.660491803278344","768","428","j","true","img/T_ambi40.png","三角","image_first",""
"","","","","","html-keyboard-response","260","807391","0.0-13.0-0.0-1.0-0.0-1.50","null","<span style='color:GreenYellow; font-size: 70px;'>正确! </span>","null","","","","","","","","","","","","","","","","","","","","","","","feedback_test"
"","","","","","psychophysics","261","809469","0.0-13.0-0.0-1.0-0.0-0.51","910","","f","","","","","","","","","","","","","key","f","16.660487804877974","768","428","f","true","img/C_ambi40.png","三角","image_first",""
"","","","","","html-keyboard-response","262","809776","0.0-13.0-0.0-1.0-0.0-1.51","null","<span style='color:GreenYellow; font-size: 70px;'>正确! </span>","null","","","","","","","","","","","","","","","","","","","","","","","feedback_test"
"","","","","","psychophysics","263","811893","0.0-13.0-0.0-1.0-0.0-0.52","953","","j","","","","","","","","","","","","","key","j","16.660476190476892","768","428","j","true","img/S_ambi40.png","方形","image_first",""
"","","","","","html-keyboard-response","264","812205","0.0-13.0-0.0-1.0-0.0-1.52","null","<span style='color:GreenYellow; font-size: 70px;'>正确! </span>","null","","","","","","","","","","","","","","","","","","","","","","","feedback_test"
"","","","","","psychophysics","265","814310","0.0-13.0-0.0-1.0-0.0-0.53","942","","j","","","","","","","","","","","","","key","j","16.660480000000447","768","428","j","true","img/S_ambi40.png","方形","image_first",""
"","","","","","html-keyboard-response","266","814625","0.0-13.0-0.0-1.0-0.0-1.53","null","<span style='color:GreenYellow; font-size: 70px;'>正确! </span>","null","","","","","","","","","","","","","","","","","","","","","","","feedback_test"
"","","","","","psychophysics","267","816675","0.0-13.0-0.0-1.0-0.0-0.54","882","","f","","","","","","","","","","","","","key","f","16.660163934426535","768","428","f","true","img/T_ambi40.png","方形","image_first",""
"","","","","","html-keyboard-response","268","816986","0.0-13.0-0.0-1.0-0.0-1.54","null","<span style='color:GreenYellow; font-size: 70px;'>正确! </span>","null","","","","","","","","","","","","","","","","","","","","","","","feedback_test"
"","","","","","psychophysics","269","819355","0.0-13.0-0.0-1.0-0.0-0.55","1202","","f","","","","","","","","","","","","","key","f","16.659571428571194","768","428","f","true","img/S_ambi40.png","三角","image_first",""
"","","","","","html-keyboard-response","270","819658","0.0-13.0-0.0-1.0-0.0-1.55","null","<span style='color:GreenYellow; font-size: 70px;'>正确! </span>","null","","","","","","","","","","","","","","","","","","","","","","","feedback_test"
"","","","","","psychophysics","271","821452","0.0-13.0-0.0-1.0-0.0-0.56","630","","j","","","","","","","","","","","","","key","j","16.660377358490567","768","428","j","true","img/C_ambi40.png","圆形","image_first",""
"","","","","","html-keyboard-response","272","821760","0.0-13.0-0.0-1.0-0.0-1.56","null","<span style='color:GreenYellow; font-size: 70px;'>正确! </span>","null","","","","","","","","","","","","","","","","","","","","","","","feedback_test"
"","","","","","psychophysics","273","823952","0.0-13.0-0.0-1.0-0.0-0.57","1031","","f","","","","","","","","","","","","","key","f","16.660461538462325","768","428","f","true","img/C_ambi40.png","方形","image_first",""
"","","","","","html-keyboard-response","274","824263","0.0-13.0-0.0-1.0-0.0-1.57","null","<span style='color:GreenYellow; font-size: 70px;'>正确! </span>","null","","","","","","","","","","","","","","","","","","","","","","","feedback_test"
"","","","","","psychophysics","275","826403","0.0-13.0-0.0-1.0-0.0-0.58","974","","f","","","","","","","","","","","","","key","f","16.66047244094492","768","428","f","true","img/S_ambi40.png","圆形","image_first",""
"","","","","","html-keyboard-response","276","826717","0.0-13.0-0.0-1.0-0.0-1.58","null","<span style='color:GreenYellow; font-size: 70px;'>正确! </span>","null","","","","","","","","","","","","","","","","","","","","","","","feedback_test"
"","","","","","psychophysics","277","828424","0.0-13.0-0.0-1.0-0.0-0.59","540","","j","","","","","","","","","","","","","key","j","16.660594059405664","768","428","j","true","img/C_ambi40.png","圆形","image_first",""
"","","","","","html-keyboard-response","278","828738","0.0-13.0-0.0-1.0-0.0-1.59","null","<span style='color:GreenYellow; font-size: 70px;'>正确! </span>","null","","","","","","","","","","","","","","","","","","","","","","","feedback_test"
"","","","","","html-keyboard-response","279","885847","0.0-13.0-0.0-1.0-1.0","57103","<style>.context{color:white; font-size: 35px; line-height:40px}</style>                            <div><p class='context'>您正确回答了100% 的试次。</p><p class='context'>您的平均反应时为719毫秒。</p><p class='context'>请按任意键进入休息</p></div>"," ","","","","","","","","","","","","","","","","","","","","","","",""
"","","","","","html-button-response","280","893087","0.0-13.0-0.0-1.0-2.0","7238","
                    <p>您当前还剩余3组实验</p>
                    <p>现在是休息时间，当您结束休息后，您可以点击 结束休息 按钮 继续</p>
                    <p>建议休息时间还剩余<span id=""iii"">60</span>秒</p>","0","","","","","","","","","","","","","","","","","","","","","","",""
"","","","","","psychophysics","281","895251","0.0-13.0-0.0-1.0-0.1-0.60","1006","","j","","","","","","","","","","","","","key","j","16.660465116278708","768","428","j","true","img/C_ambi40.png","圆形","image_first",""
"","","","","","html-keyboard-response","282","895567","0.0-13.0-0.0-1.0-0.1-1.60","null","<span style='color:GreenYellow; font-size: 70px;'>正确! </span>","null","","","","","","","","","","","","","","","","","","","","","","","feedback_test"
"","","","","","psychophysics","283","897685","0.0-13.0-0.0-1.0-0.1-0.61","963","","f","","","","","","","","","","","","","key","f","16.66047619047597","768","428","f","true","img/S_ambi40.png","圆形","image_first",""
"","","","","","html-keyboard-response","284","897995","0.0-13.0-0.0-1.0-0.1-1.61","null","<span style='color:GreenYellow; font-size: 70px;'>正确! </span>","null","","","","","","","","","","","","","","","","","","","","","","","feedback_test"
"","","","","","psychophysics","285","900229","0.0-13.0-0.0-1.0-0.1-0.62","1067","","f","","","","","","","","","","","","","key","f","16.660150375939324","768","428","f","true","img/C_ambi40.png","方形","image_first",""
"","","","","","html-keyboard-response","286","900536","0.0-13.0-0.0-1.0-0.1-1.62","null","<span style='color:GreenYellow; font-size: 70px;'>正确! </span>","null","","","","","","","","","","","","","","","","","","","","","","","feedback_test"
"","","","","","psychophysics","287","902365","0.0-13.0-0.0-1.0-0.1-0.63","665","","j","","","","","","","","","","","","","key","j","16.660373831776006","768","428","j","true","img/S_ambi40.png","方形","image_first",""
"","","","","","html-keyboard-response","288","902679","0.0-13.0-0.0-1.0-0.1-1.63","null","<span style='color:GreenYellow; font-size: 70px;'>正确! </span>","null","","","","","","","","","","","","","","","","","","","","","","","feedback_test"
"","","","","","psychophysics","289","904413","0.0-13.0-0.0-1.0-0.1-0.64","566","","f","","","","","","","","","","","","","key","f","16.660582524272208","768","428","f","true","img/C_ambi40.png","三角","image_first",""
"","","","","","html-keyboard-response","290","904718","0.0-13.0-0.0-1.0-0.1-1.64","null","<span style='color:GreenYellow; font-size: 70px;'>正确! </span>","null","","","","","","","","","","","","","","","","","","","","","","","feedback_test"
"","","","","","psychophysics","291","906553","0.0-13.0-0.0-1.0-0.1-0.65","670","","j","","","","","","","","","","","","","key","j","16.660555555556332","768","428","j","true","img/C_ambi40.png","圆形","image_first",""
"","","","","","html-keyboard-response","292","906867","0.0-13.0-0.0-1.0-0.1-1.65","null","<span style='color:GreenYellow; font-size: 70px;'>正确! </span>","null","","","","","","","","","","","","","","","","","","","","","","","feedback_test"
"","","","","","psychophysics","293","908690","0.0-13.0-0.0-1.0-0.1-0.66","672","","f","","","","","","","","","","","","","key","f","16.660555555555252","768","428","f","true","img/S_ambi40.png","三角","image_first",""
"","","","","","html-keyboard-response","294","908999","0.0-13.0-0.0-1.0-0.1-1.66","null","<span style='color:GreenYellow; font-size: 70px;'>正确! </span>","null","","","","","","","","","","","","","","","","","","","","","","","feedback_test"
"","","","","","psychophysics","295","910800","0.0-13.0-0.0-1.0-0.1-0.67","648","","f","","","","","","","","","","","","","key","f","16.65981308411302","768","428","f","true","img/T_ambi40.png","圆形","image_first",""
"","","","","","html-keyboard-response","296","911102","0.0-13.0-0.0-1.0-0.1-1.67","null","<span style='color:GreenYellow; font-size: 70px;'>正确! </span>","null","","","","","","","","","","","","","","","","","","","","","","","feedback_test"
"","","","","","psychophysics","297","913146","0.0-13.0-0.0-1.0-0.1-0.68","888","","j","","","","","","","","","","","","","key","j","16.66049586776894","768","428","j","true","img/T_ambi40.png","三角","image_first",""
"","","","","","html-keyboard-response","298","913455","0.0-13.0-0.0-1.0-0.1-1.68","null","<span style='color:GreenYellow; font-size: 70px;'>正确! </span>","null","","","","","","","","","","","","","","","","","","","","","","","feedback_test"
"","","","","","psychophysics","299","915683","0.0-13.0-0.0-1.0-0.1-0.69","1063","","j","","","","","","","","","","","","","key","j","16.660454545454932","768","428","j","true","img/S_ambi40.png","方形","image_first",""
"","","","","","html-keyboard-response","300","915993","0.0-13.0-0.0-1.0-0.1-1.69","null","<span style='color:GreenYellow; font-size: 70px;'>正确! </span>","null","","","","","","","","","","","","","","","","","","","","","","","feedback_test"
"","","","","","psychophysics","301","917992","0.0-13.0-0.0-1.0-0.1-0.70","837","","j","","","","","","","","","","","","","key","j","16.660168067226383","768","428","j","true","img/T_ambi40.png","三角","image_first",""
"","","","","","html-keyboard-response","302","918298","0.0-13.0-0.0-1.0-0.1-1.70","null","<span style='color:GreenYellow; font-size: 70px;'>正确! </span>","null","","","","","","","","","","","","","","","","","","","","","","","feedback_test"
"","","","","","psychophysics","303","920286","0.0-13.0-0.0-1.0-0.1-0.71","833","","f","","","","","","","","","","","","","key","f","16.66034188034196","768","428","f","true","img/T_ambi40.png","方形","image_first",""
"","","","","","html-keyboard-response","304","920593","0.0-13.0-0.0-1.0-0.1-1.71","null","<span style='color:GreenYellow; font-size: 70px;'>正确! </span>","null","","","","","","","","","","","","","","","","","","","","","","","feedback_test"
"","","","","","psychophysics","305","922341","0.0-13.0-0.0-1.0-0.1-0.72","583","","f","","","","","","","","","","","","","key","f","16.660000000000135","768","428","f","true","img/T_ambi40.png","方形","image_first",""
"","","","","","html-keyboard-response","306","922642","0.0-13.0-0.0-1.0-0.1-1.72","null","<span style='color:GreenYellow; font-size: 70px;'>正确! </span>","null","","","","","","","","","","","","","","","","","","","","","","","feedback_test"
"","","","","","psychophysics","307","924424","0.0-13.0-0.0-1.0-0.1-0.73","617","","f","","","","","","","","","","","","","key","f","16.660377358490567","768","428","j","false","img/T_ambi40.png","三角","image_first",""
"","","","","","html-keyboard-response","308","924729","0.0-13.0-0.0-1.0-0.1-1.73","null","<span style='color:red; font-size: 70px;'>错误! </span>","null","","","","","","","","","","","","","","","","","","","","","","","feedback_test"
"","","","","","psychophysics","309","926382","0.0-13.0-0.0-1.0-0.1-0.74","488","","j","","","","","","","","","","","","","key","j","16.660612244897862","768","428","j","true","img/T_ambi40.png","三角","image_first",""
"","","","","","html-keyboard-response","310","926684","0.0-13.0-0.0-1.0-0.1-1.74","null","<span style='color:GreenYellow; font-size: 70px;'>正确! </span>","null","","","","","","","","","","","","","","","","","","","","","","","feedback_test"
"","","","","","psychophysics","311","928386","0.0-13.0-0.0-1.0-0.1-0.75","537","","j","","","","","","","","","","","","","key","j","16.660396039604652","768","428","j","true","img/C_ambi40.png","圆形","image_first",""
"","","","","","html-keyboard-response","312","928702","0.0-13.0-0.0-1.0-0.1-1.75","null","<span style='color:GreenYellow; font-size: 70px;'>正确! </span>","null","","","","","","","","","","","","","","","","","","","","","","","feedback_test"
"","","","","","psychophysics","313","930437","0.0-13.0-0.0-1.0-0.1-0.76","580","","f","","","","","","","","","","","","","key","f","16.660388349514744","768","428","f","true","img/S_ambi40.png","三角","image_first",""
"","","","","","html-keyboard-response","314","930741","0.0-13.0-0.0-1.0-0.1-1.76","null","<span style='color:GreenYellow; font-size: 70px;'>正确! </span>","null","","","","","","","","","","","","","","","","","","","","","","","feedback_test"
"","","","","","psychophysics","315","932613","0.0-13.0-0.0-1.0-0.1-0.77","720","","j","","","","","","","","","","","","","key","j","16.66036036036078","768","428","j","true","img/C_ambi40.png","圆形","image_first",""
"","","","","","html-keyboard-response","316","932916","0.0-13.0-0.0-1.0-0.1-1.77","null","<span style='color:GreenYellow; font-size: 70px;'>正确! </span>","null","","","","","","","","","","","","","","","","","","","","","","","feedback_test"
"","","","","","psychophysics","317","934733","0.0-13.0-0.0-1.0-0.1-0.78","651","","j","","","","","","","","","","","","","key","j","16.625","768","428","j","true","img/S_ambi40.png","方形","image_first",""
"","","","","","html-keyboard-response","318","935050","0.0-13.0-0.0-1.0-0.1-1.78","null","<span style='color:GreenYellow; font-size: 70px;'>正确! </span>","null","","","","","","","","","","","","","","","","","","","","","","","feedback_test"
"","","","","","psychophysics","319","936827","0.0-13.0-0.0-1.0-0.1-0.79","616","","f","","","","","","","","","","","","","key","f","16.660571428571295","768","428","f","true","img/C_ambi40.png","方形","image_first",""
"","","","","","html-keyboard-response","320","937144","0.0-13.0-0.0-1.0-0.1-1.79","null","<span style='color:GreenYellow; font-size: 70px;'>正确! </span>","null","","","","","","","","","","","","","","","","","","","","","","","feedback_test"
"","","","","","psychophysics","321","938914","0.0-13.0-0.0-1.0-0.1-0.80","617","","f","","","","","","","","","","","","","key","f","16.660571428571295","768","428","f","true","img/C_ambi40.png","三角","image_first",""
"","","","","","html-keyboard-response","322","939226","0.0-13.0-0.0-1.0-0.1-1.80","null","<span style='color:GreenYellow; font-size: 70px;'>正确! </span>","null","","","","","","","","","","","","","","","","","","","","","","","feedback_test"
"","","","","","psychophysics","323","940972","0.0-13.0-0.0-1.0-0.1-0.81","583","","f","","","","","","","","","","","","","key","f","16.660576923077596","768","428","f","true","img/S_ambi40.png","圆形","image_first",""
"","","","","","html-keyboard-response","324","941277","0.0-13.0-0.0-1.0-0.1-1.81","null","<span style='color:GreenYellow; font-size: 70px;'>正确! </span>","null","","","","","","","","","","","","","","","","","","","","","","","feedback_test"
"","","","","","psychophysics","325","943016","0.0-13.0-0.0-1.0-0.1-0.82","574","","f","","","","","","","","","","","","","key","f","16.660582524271074","768","428","f","true","img/T_ambi40.png","圆形","image_first",""
"","","","","","html-keyboard-response","326","943326","0.0-13.0-0.0-1.0-0.1-1.82","null","<span style='color:GreenYellow; font-size: 70px;'>正确! </span>","null","","","","","","","","","","","","","","","","","","","","","","","feedback_test"
"","","","","","psychophysics","327","945152","0.0-13.0-0.0-1.0-0.1-0.83","660","","j","","","","","","","","","","","","","key","j","16.660550458715598","768","428","j","true","img/S_ambi40.png","方形","image_first",""
"","","","","","html-keyboard-response","328","945471","0.0-13.0-0.0-1.0-0.1-1.83","null","<span style='color:GreenYellow; font-size: 70px;'>正确! </span>","null","","","","","","","","","","","","","","","","","","","","","","","feedback_test"
"","","","","","psychophysics","329","947364","0.0-13.0-0.0-1.0-0.1-0.84","726","","j","","","","","","","","","","","","","key","j","16.963454545454375","768","428","j","true","img/S_ambi40.png","方形","image_first",""
"","","","","","html-keyboard-response","330","947678","0.0-13.0-0.0-1.0-0.1-1.84","null","<span style='color:GreenYellow; font-size: 70px;'>正确! </span>","null","","","","","","","","","","","","","","","","","","","","","","","feedback_test"
"","","","","","psychophysics","331","949558","0.0-13.0-0.0-1.0-0.1-0.85","716","","j","","","","","","","","","","","","","key","j","16.660540540541128","768","428","j","true","img/T_ambi40.png","三角","image_first",""
"","","","","","html-keyboard-response","332","949861","0.0-13.0-0.0-1.0-0.1-1.85","null","<span style='color:GreenYellow; font-size: 70px;'>正确! </span>","null","","","","","","","","","","","","","","","","","","","","","","","feedback_test"
"","","","","","psychophysics","333","951728","0.0-13.0-0.0-1.0-0.1-0.86","712","","f","","","","","","","","","","","","","key","f","16.660363636363762","768","428","f","true","img/C_ambi40.png","三角","image_first",""
"","","","","","html-keyboard-response","334","952044","0.0-13.0-0.0-1.0-0.1-1.86","null","<span style='color:GreenYellow; font-size: 70px;'>正确! </span>","null","","","","","","","","","","","","","","","","","","","","","","","feedback_test"
"","","","","","psychophysics","335","953841","0.0-13.0-0.0-1.0-0.1-0.87","632","","f","","","","","","","","","","","","","key","f","16.660566037736025","768","428","f","true","img/C_ambi40.png","方形","image_first",""
"","","","","","html-keyboard-response","336","954158","0.0-13.0-0.0-1.0-0.1-1.87","null","<span style='color:GreenYellow; font-size: 70px;'>正确! </span>","null","","","","","","","","","","","","","","","","","","","","","","","feedback_test"
"","","","","","psychophysics","337","955944","0.0-13.0-0.0-1.0-0.1-0.88","620","","f","","","","","","","","","","","","","key","f","16.595283018867704","768","428","f","true","img/T_ambi40.png","圆形","image_first",""
"","","","","","html-keyboard-response","338","956257","0.0-13.0-0.0-1.0-0.1-1.88","null","<span style='color:GreenYellow; font-size: 70px;'>正确! </span>","null","","","","","","","","","","","","","","","","","","","","","","","feedback_test"
"","","","","","psychophysics","339","957991","0.0-13.0-0.0-1.0-0.1-0.89","582","","f","","","","","","","","","","","","","key","f","16.660582524271074","768","428","f","true","img/S_ambi40.png","三角","image_first",""
"","","","","","html-keyboard-response","340","958294","0.0-13.0-0.0-1.0-0.1-1.89","null","<span style='color:GreenYellow; font-size: 70px;'>正确! </span>","null","","","","","","","","","","","","","","","","","","","","","","","feedback_test"
"","","","","","psychophysics","341","960069","0.0-13.0-0.0-1.0-0.1-0.90","613","","f","","","","","","","","","","","","","key","f","16.660571428571295","768","428","f","true","img/T_ambi40.png","方形","image_first",""
"","","","","","html-keyboard-response","342","960375","0.0-13.0-0.0-1.0-0.1-1.90","null","<span style='color:GreenYellow; font-size: 70px;'>正确! </span>","null","","","","","","","","","","","","","","","","","","","","","","","feedback_test"
"","","","","","psychophysics","343","962098","0.0-13.0-0.0-1.0-0.1-0.91","563","","j","","","","","","","","","","","","","key","j","16.62039215686302","768","428","j","true","img/C_ambi40.png","圆形","image_first",""
"","","","","","html-keyboard-response","344","962409","0.0-13.0-0.0-1.0-0.1-1.91","null","<span style='color:GreenYellow; font-size: 70px;'>正确! </span>","null","","","","","","","","","","","","","","","","","","","","","","","feedback_test"
"","","","","","psychophysics","345","964193","0.0-13.0-0.0-1.0-0.1-0.92","631","","j","","","","","","","","","","","","","key","j","16.65942857142848","768","428","j","true","img/T_ambi40.png","三角","image_first",""
"","","","","","html-keyboard-response","346","964498","0.0-13.0-0.0-1.0-0.1-1.92","null","<span style='color:GreenYellow; font-size: 70px;'>正确! </span>","null","","","","","","","","","","","","","","","","","","","","","","","feedback_test"
"","","","","","psychophysics","347","966208","0.0-13.0-0.0-1.0-0.1-0.93","544","","j","","","","","","","","","","","","","key","j","16.660594059406815","768","428","j","true","img/S_ambi40.png","方形","image_first",""
"","","","","","html-keyboard-response","348","966520","0.0-13.0-0.0-1.0-0.1-1.93","null","<span style='color:GreenYellow; font-size: 70px;'>正确! </span>","null","","","","","","","","","","","","","","","","","","","","","","","feedback_test"
"","","","","","psychophysics","349","968238","0.0-13.0-0.0-1.0-0.1-0.94","554","","f","","","","","","","","","","","","","key","f","16.660588235294163","768","428","f","true","img/S_ambi40.png","圆形","image_first",""
"","","","","","html-keyboard-response","350","968553","0.0-13.0-0.0-1.0-0.1-1.94","null","<span style='color:GreenYellow; font-size: 70px;'>正确! </span>","null","","","","","","","","","","","","","","","","","","","","","","","feedback_test"
"","","","","","psychophysics","351","970394","0.0-13.0-0.0-1.0-0.1-0.95","689","","j","","","","","","","","","","","","","key","j","16.660363636363762","768","428","j","true","img/C_ambi40.png","圆形","image_first",""
"","","","","","html-keyboard-response","352","970704","0.0-13.0-0.0-1.0-0.1-1.95","null","<span style='color:GreenYellow; font-size: 70px;'>正确! </span>","null","","","","","","","","","","","","","","","","","","","","","","","feedback_test"
"","","","","","psychophysics","353","972371","0.0-13.0-0.0-1.0-0.1-0.96","515","","j","","","","","","","","","","","","","key","j","16.660606060606295","768","428","j","true","img/T_ambi40.png","三角","image_first",""
"","","","","","html-keyboard-response","354","972680","0.0-13.0-0.0-1.0-0.1-1.96","null","<span style='color:GreenYellow; font-size: 70px;'>正确! </span>","null","","","","","","","","","","","","","","","","","","","","","","","feedback_test"
"","","","","","psychophysics","355","974661","0.0-13.0-0.0-1.0-0.1-0.97","816","","f","","","","","","","","","","","","","key","f","16.660508474576783","768","428","f","true","img/S_ambi40.png","三角","image_first",""
"","","","","","html-keyboard-response","356","974977","0.0-13.0-0.0-1.0-0.1-1.97","null","<span style='color:GreenYellow; font-size: 70px;'>正确! </span>","null","","","","","","","","","","","","","","","","","","","","","","","feedback_test"
"","","","","","psychophysics","357","976974","0.0-13.0-0.0-1.0-0.1-0.98","830","","j","","","","","","","","","","","","","key","j","16.660508474576783","768","428","j","true","img/C_ambi40.png","圆形","image_first",""
"","","","","","html-keyboard-response","358","977284","0.0-13.0-0.0-1.0-0.1-1.98","null","<span style='color:GreenYellow; font-size: 70px;'>正确! </span>","null","","","","","","","","","","","","","","","","","","","","","","","feedback_test"
"","","","","","psychophysics","359","979388","0.0-13.0-0.0-1.0-0.1-0.99","948","","f","","","","","","","","","","","","","key","f","16.660480000000447","768","428","f","true","img/C_ambi40.png","三角","image_first",""
"","","","","","html-keyboard-response","360","979703","0.0-13.0-0.0-1.0-0.1-1.99","null","<span style='color:GreenYellow; font-size: 70px;'>正确! </span>","null","","","","","","","","","","","","","","","","","","","","","","","feedback_test"
"","","","","","psychophysics","361","981521","0.0-13.0-0.0-1.0-0.1-0.100","666","","f","","","","","","","","","","","","","key","f","16.66056074766294","768","428","j","false","img/C_ambi40.png","圆形","image_first",""
"","","","","","html-keyboard-response","362","981834","0.0-13.0-0.0-1.0-0.1-1.100","null","<span style='color:red; font-size: 70px;'>错误! </span>","null","","","","","","","","","","","","","","","","","","","","","","","feedback_test"
"","","","","","psychophysics","363","983526","0.0-13.0-0.0-1.0-0.1-0.101","525","","j","","","","","","","","","","","","","key","j","16.660594059405664","768","428","j","true","img/T_ambi40.png","三角","image_first",""
"","","","","","html-keyboard-response","364","983840","0.0-13.0-0.0-1.0-0.1-1.101","null","<span style='color:GreenYellow; font-size: 70px;'>正确! </span>","null","","","","","","","","","","","","","","","","","","","","","","","feedback_test"
"","","","","","psychophysics","365","985653","0.0-13.0-0.0-1.0-0.1-0.102","647","","f","","","","","","","","","","","","","key","f","16.66056074766403","768","428","f","true","img/C_ambi40.png","方形","image_first",""
"","","","","","html-keyboard-response","366","985956","0.0-13.0-0.0-1.0-0.1-1.102","null","<span style='color:GreenYellow; font-size: 70px;'>正确! </span>","null","","","","","","","","","","","","","","","","","","","","","","","feedback_test"
"","","","","","psychophysics","367","987696","0.0-13.0-0.0-1.0-0.1-0.103","572","","f","","","","","","","","","","","","","key","f","16.660582524271074","768","428","f","true","img/T_ambi40.png","圆形","image_first",""
"","","","","","html-keyboard-response","368","988011","0.0-13.0-0.0-1.0-0.1-1.103","null","<span style='color:GreenYellow; font-size: 70px;'>正确! </span>","null","","","","","","","","","","","","","","","","","","","","","","","feedback_test"
"","","","","","psychophysics","369","989730","0.0-13.0-0.0-1.0-0.1-0.104","565","","j","","","","","","","","","","","","","key","j","16.659803921569083","768","428","j","true","img/S_ambi40.png","方形","image_first",""
"","","","","","html-keyboard-response","370","990036","0.0-13.0-0.0-1.0-0.1-1.104","null","<span style='color:GreenYellow; font-size: 70px;'>正确! </span>","null","","","","","","","","","","","","","","","","","","","","","","","feedback_test"
"","","","","","psychophysics","371","991833","0.0-13.0-0.0-1.0-0.1-0.105","638","","j","","","","","","","","","","","","","key","j","16.66056074766294","768","428","j","true","img/S_ambi40.png","方形","image_first",""
"","","","","","html-keyboard-response","372","992146","0.0-13.0-0.0-1.0-0.1-1.105","null","<span style='color:GreenYellow; font-size: 70px;'>正确! </span>","null","","","","","","","","","","","","","","","","","","","","","","","feedback_test"
"","","","","","psychophysics","373","993990","0.0-13.0-0.0-1.0-0.1-0.106","691","","f","","","","","","","","","","","","","key","f","16.660363636363762","768","428","f","true","img/T_ambi40.png","方形","image_first",""
"","","","","","html-keyboard-response","374","994299","0.0-13.0-0.0-1.0-0.1-1.106","null","<span style='color:GreenYellow; font-size: 70px;'>正确! </span>","null","","","","","","","","","","","","","","","","","","","","","","","feedback_test"
"","","","","","psychophysics","375","996208","0.0-13.0-0.0-1.0-0.1-0.107","756","","f","","","","","","","","","","","","","key","f","16.66052631578886","768","428","f","true","img/S_ambi40.png","圆形","image_first",""
"","","","","","html-keyboard-response","376","996524","0.0-13.0-0.0-1.0-0.1-1.107","null","<span style='color:GreenYellow; font-size: 70px;'>正确! </span>","null","","","","","","","","","","","","","","","","","","","","","","","feedback_test"
"","","","","","psychophysics","377","998919","0.0-13.0-0.0-1.0-0.1-0.108","1235","","f","","","","","","","","","","","","","key","f","16.660140845070355","768","428","f","true","img/T_ambi40.png","方形","image_first",""
"","","","","","html-keyboard-response","378","999233","0.0-13.0-0.0-1.0-0.1-1.108","null","<span style='color:GreenYellow; font-size: 70px;'>正确! </span>","null","","","","","","","","","","","","","","","","","","","","","","","feedback_test"
"","","","","","psychophysics","379","1000927","0.0-13.0-0.0-1.0-0.1-0.109","540","","j","","","","","","","","","","","","","key","j","16.61920000000042","768","428","j","true","img/C_ambi40.png","圆形","image_first",""
"","","","","","html-keyboard-response","380","1001229","0.0-13.0-0.0-1.0-0.1-1.109","null","<span style='color:GreenYellow; font-size: 70px;'>正确! </span>","null","","","","","","","","","","","","","","","","","","","","","","","feedback_test"
"","","","","","psychophysics","381","1003281","0.0-13.0-0.0-1.0-0.1-0.110","899","","j","","","","","","","","","","","","","key","j","16.65983606557377","768","428","j","true","img/C_ambi40.png","圆形","image_first",""
"","","","","","html-keyboard-response","382","1003584","0.0-13.0-0.0-1.0-0.1-1.110","null","<span style='color:GreenYellow; font-size: 70px;'>正确! </span>","null","","","","","","","","","","","","","","","","","","","","","","","feedback_test"
"","","","","","psychophysics","383","1005444","0.0-13.0-0.0-1.0-0.1-0.111","704","","f","","","","","","","","","","","","","key","f","16.660363636363762","768","428","f","true","img/S_ambi40.png","圆形","image_first",""
"","","","","","html-keyboard-response","384","1005750","0.0-13.0-0.0-1.0-0.1-1.111","null","<span style='color:GreenYellow; font-size: 70px;'>正确! </span>","null","","","","","","","","","","","","","","","","","","","","","","","feedback_test"
"","","","","","psychophysics","385","1008197","0.0-13.0-0.0-1.0-0.1-0.112","1281","","j","","","","","","","","","","","","","key","j","16.66055172413732","768","428","j","true","img/S_ambi40.png","方形","image_first",""
"","","","","","html-keyboard-response","386","1008499","0.0-13.0-0.0-1.0-0.1-1.112","null","<span style='color:GreenYellow; font-size: 70px;'>正确! </span>","null","","","","","","","","","","","","","","","","","","","","","","","feedback_test"
"","","","","","psychophysics","387","1010778","0.0-13.0-0.0-1.0-0.1-0.113","1114","","f","","","","","","","","","","","","","key","f","16.628740740740774","768","428","f","true","img/T_ambi40.png","圆形","image_first",""
"","","","","","html-keyboard-response","388","1011081","0.0-13.0-0.0-1.0-0.1-1.113","null","<span style='color:GreenYellow; font-size: 70px;'>正确! </span>","null","","","","","","","","","","","","","","","","","","","","","","","feedback_test"
"","","","","","psychophysics","389","1012806","0.0-13.0-0.0-1.0-0.1-0.114","570","","j","","","","","","","","","","","","","key","j","16.660582524272208","768","428","j","true","img/S_ambi40.png","方形","image_first",""
"","","","","","html-keyboard-response","390","1013107","0.0-13.0-0.0-1.0-0.1-1.114","null","<span style='color:GreenYellow; font-size: 70px;'>正确! </span>","null","","","","","","","","","","","","","","","","","","","","","","","feedback_test"
"","","","","","psychophysics","391","1015772","0.0-13.0-0.0-1.0-0.1-0.115","null","","null","","","","","","","","","","","","","key","null","16.660377358490567","768","428","f","false","img/C_ambi40.png","方形","image_first",""
"","","","","","html-keyboard-response","392","1016083","0.0-13.0-0.0-1.0-0.1-1.115","null","<span class='add_' style='color:yellow; font-size: 70px;'> 太慢! </span>","null","","","","","","","","","","","","","","","","","","","","","","","feedback_test"
"","","","","","psychophysics","393","1018741","0.0-13.0-0.0-1.0-0.1-0.116","null","","null","","","","","","","","","","","","","key","null","16.660506329113836","768","428","j","false","img/T_ambi40.png","三角","image_first",""
"","","","","","html-keyboard-response","394","1019053","0.0-13.0-0.0-1.0-0.1-1.116","null","<span class='add_' style='color:yellow; font-size: 70px;'> 太慢! </span>","null","","","","","","","","","","","","","","","","","","","","","","","feedback_test"
"","","","","","psychophysics","395","1020889","0.0-13.0-0.0-1.0-0.1-0.117","683","","j","","","","","","","","","","","","","key","j","16.660366972476893","768","428","f","false","img/S_ambi40.png","三角","image_first",""
"","","","","","html-keyboard-response","396","1021204","0.0-13.0-0.0-1.0-0.1-1.117","null","<span style='color:red; font-size: 70px;'>错误! </span>","null","","","","","","","","","","","","","","","","","","","","","","","feedback_test"
"","","","","","psychophysics","397","1023103","0.0-13.0-0.0-1.0-0.1-0.118","747","","f","","","","","","","","","","","","","key","f","16.66000000000066","768","428","f","true","img/C_ambi40.png","三角","image_first",""
"","","","","","html-keyboard-response","398","1023415","0.0-13.0-0.0-1.0-0.1-1.118","null","<span style='color:GreenYellow; font-size: 70px;'>正确! </span>","null","","","","","","","","","","","","","","","","","","","","","","","feedback_test"
"","","","","","psychophysics","399","1025370","0.0-13.0-0.0-1.0-0.1-0.119","802","","j","","","","","","","","","","","","","key","j","16.66051724137927","768","428","j","true","img/T_ambi40.png","三角","image_first",""
"","","","","","html-keyboard-response","400","1025673","0.0-13.0-0.0-1.0-0.1-1.119","null","<span style='color:GreenYellow; font-size: 70px;'>正确! </span>","null","","","","","","","","","","","","","","","","","","","","","","","feedback_test"
"","","","","","html-keyboard-response","401","1035655","0.0-13.0-0.0-1.0-1.1","9977","<style>.context{color:white; font-size: 35px; line-height:40px}</style>                            <div><p class='context'>您正确回答了92% 的试次。</p><p class='context'>您的平均反应时为718毫秒。</p><p class='context'>请按任意键进入休息</p></div>"," ","","","","","","","","","","","","","","","","","","","","","","",""
"","","","","","html-button-response","402","1072095","0.0-13.0-0.0-1.0-2.1","36434","
                    <p>您当前还剩余2组实验</p>
                    <p>现在是休息时间，当您结束休息后，您可以点击 结束休息 按钮 继续</p>
                    <p>建议休息时间还剩余<span id=""iii"">60</span>秒</p>","0","","","","","","","","","","","","","","","","","","","","","","",""
"","","","","","psychophysics","403","1073846","0.0-13.0-0.0-1.0-0.2-0.120","597","","f","","","","","","","","","","","","","key","f","16.660576923076476","768","428","f","true","img/T_ambi40.png","圆形","image_first",""
"","","","","","html-keyboard-response","404","1074150","0.0-13.0-0.0-1.0-0.2-1.120","null","<span style='color:GreenYellow; font-size: 70px;'>正确! </span>","null","","","","","","","","","","","","","","","","","","","","","","","feedback_test"
"","","","","","psychophysics","405","1075947","0.0-13.0-0.0-1.0-0.2-0.121","632","","j","","","","","","","","","","","","","key","j","16.659626168224996","768","428","j","true","img/S_ambi40.png","方形","image_first",""
"","","","","","html-keyboard-response","406","1076249","0.0-13.0-0.0-1.0-0.2-1.121","null","<span style='color:GreenYellow; font-size: 70px;'>正确! </span>","null","","","","","","","","","","","","","","","","","","","","","","","feedback_test"
"","","","","","psychophysics","407","1078063","0.0-13.0-0.0-1.0-0.2-0.122","661","","f","","","","","","","","","","","","","key","f","16.659259259258828","768","428","f","true","img/S_ambi40.png","圆形","image_first",""
"","","","","","html-keyboard-response","408","1078367","0.0-13.0-0.0-1.0-0.2-1.122","null","<span style='color:GreenYellow; font-size: 70px;'>正确! </span>","null","","","","","","","","","","","","","","","","","","","","","","","feedback_test"
"","","","","","psychophysics","409","1080054","0.0-13.0-0.0-1.0-0.2-0.123","535","","j","","","","","","","","","","","","","key","j","16.66060606060512","768","428","f","false","img/T_ambi40.png","方形","image_first",""
"","","","","","html-keyboard-response","410","1080359","0.0-13.0-0.0-1.0-0.2-1.123","null","<span style='color:red; font-size: 70px;'>错误! </span>","null","","","","","","","","","","","","","","","","","","","","","","","feedback_test"
"","","","","","psychophysics","411","1082068","0.0-13.0-0.0-1.0-0.2-0.124","556","","j","","","","","","","","","","","","","key","j","16.660594059405664","768","428","j","true","img/S_ambi40.png","方形","image_first",""
"","","","","","html-keyboard-response","412","1082369","0.0-13.0-0.0-1.0-0.2-1.124","null","<span style='color:GreenYellow; font-size: 70px;'>正确! </span>","null","","","","","","","","","","","","","","","","","","","","","","","feedback_test"
"","","","","","psychophysics","413","1084030","0.0-13.0-0.0-1.0-0.2-0.125","503","","j","","","","","","","","","","","","","key","j","16.660612244897862","768","428","j","true","img/C_ambi40.png","圆形","image_first",""
"","","","","","html-keyboard-response","414","1084335","0.0-13.0-0.0-1.0-0.2-1.125","null","<span style='color:GreenYellow; font-size: 70px;'>正确! </span>","null","","","","","","","","","","","","","","","","","","","","","","","feedback_test"
"","","","","","psychophysics","415","1085942","0.0-13.0-0.0-1.0-0.2-0.126","445","","j","","","","","","","","","","","","","key","j","16.66042105263148","768","428","j","true","img/T_ambi40.png","三角","image_first",""
"","","","","","html-keyboard-response","416","1086243","0.0-13.0-0.0-1.0-0.2-1.126","null","<span style='color:GreenYellow; font-size: 70px;'>正确! </span>","null","","","","","","","","","","","","","","","","","","","","","","","feedback_test"
"","","","","","psychophysics","417","1087943","0.0-13.0-0.0-1.0-0.2-0.127","543","","f","","","","","","","","","","","","","key","f","16.660594059405664","768","428","f","true","img/C_ambi40.png","方形","image_first",""
"","","","","","html-keyboard-response","418","1088254","0.0-13.0-0.0-1.0-0.2-1.127","null","<span style='color:GreenYellow; font-size: 70px;'>正确! </span>","null","","","","","","","","","","","","","","","","","","","","","","","feedback_test"
"","","","","","psychophysics","419","1089990","0.0-13.0-0.0-1.0-0.2-0.128","571","","j","","","","","","","","","","","","","key","j","16.660388349514744","768","428","j","true","img/C_ambi40.png","圆形","image_first",""
"","","","","","html-keyboard-response","420","1090304","0.0-13.0-0.0-1.0-0.2-1.128","null","<span style='color:GreenYellow; font-size: 70px;'>正确! </span>","null","","","","","","","","","","","","","","","","","","","","","","","feedback_test"
"","","","","","psychophysics","421","1092003","0.0-13.0-0.0-1.0-0.2-0.129","545","","f","","","","","","","","","","","","","key","f","16.66059999999823","768","428","f","true","img/S_ambi40.png","三角","image_first",""
"","","","","","html-keyboard-response","422","1092315","0.0-13.0-0.0-1.0-0.2-1.129","null","<span style='color:GreenYellow; font-size: 70px;'>正确! </span>","null","","","","","","","","","","","","","","","","","","","","","","","feedback_test"
"","","","","","psychophysics","423","1094128","0.0-13.0-0.0-1.0-0.2-0.130","648","","f","","","","","","","","","","","","","key","f","16.66056074766512","768","428","f","true","img/C_ambi40.png","三角","image_first",""
"","","","","","html-keyboard-response","424","1094429","0.0-13.0-0.0-1.0-0.2-1.130","null","<span style='color:GreenYellow; font-size: 70px;'>正确! </span>","null","","","","","","","","","","","","","","","","","","","","","","","feedback_test"
"","","","","","psychophysics","425","1096068","0.0-13.0-0.0-1.0-0.2-0.131","479","","j","","","","","","","","","","","","","key","j","16.660416666668123","768","428","j","true","img/T_ambi40.png","三角","image_first",""
"","","","","","html-keyboard-response","426","1096381","0.0-13.0-0.0-1.0-0.2-1.131","null","<span style='color:GreenYellow; font-size: 70px;'>正确! </span>","null","","","","","","","","","","","","","","","","","","","","","","","feedback_test"
"","","","","","psychophysics","427","1098045","0.0-13.0-0.0-1.0-0.2-0.132","505","","f","","","","","","","","","","","","","key","f","16.660000000000846","768","428","f","true","img/T_ambi40.png","圆形","image_first",""
"","","","","","html-keyboard-response","428","1098348","0.0-13.0-0.0-1.0-0.2-1.132","null","<span style='color:GreenYellow; font-size: 70px;'>正确! </span>","null","","","","","","","","","","","","","","","","","","","","","","","feedback_test"
"","","","","","psychophysics","429","1100055","0.0-13.0-0.0-1.0-0.2-0.133","555","","f","","","","","","","","","","","","","key","f","16.660392156861466","768","428","f","true","img/C_ambi40.png","方形","image_first",""
"","","","","","html-keyboard-response","430","1100359","0.0-13.0-0.0-1.0-0.2-1.133","null","<span style='color:GreenYellow; font-size: 70px;'>正确! </span>","null","","","","","","","","","","","","","","","","","","","","","","","feedback_test"
"","","","","","psychophysics","431","1102085","0.0-13.0-0.0-1.0-0.2-0.134","560","","f","","","","","","","","","","","","","key","f","16.66039215686375","768","428","f","true","img/S_ambi40.png","圆形","image_first",""
