"success","timeout","failed_images","failed_audio","failed_video","trial_type","trial_index","time_elapsed","internal_node_id","rt","stimulus","response","value","item_width_mm","item_height_mm","item_width_px","px2mm","view_dist_mm","item_width_deg","px2deg","scale_factor","win_width_deg","win_height_deg","view_history","response_type","key_press","avg_frame_time","center_x","center_y","correct_response","correct","Image","word","condition","screen_id"
"true","false","[]","[]","[]","preload","0","25560","0.0-0.0","","","","","","","","","","","","","","","","","","","","","","","","","",""
"","","","","","html-keyboard-response","1","67070","0.0-1.0","41507","
   <p>您好，欢迎参加本次实验。</p>
   <p>为充分保障您的权利，请确保您已经知晓并同意《参与实验同意书》以及《数据公开知情同意书》。</p>
   <p>如果您未见过上述内容，请咨询实验员。</p>
   <p>如果您选择继续实验，则表示您已经清楚两份知情同意书的内容并同意。</p>
   <p> <div style = ""color: green""><按任意键至下页></div> </p>
   "," ","","","","","","","","","","","","","","","","","","","","","","",""
"","","","","","html-keyboard-response","2","70071","0.0-2.0","2999","
   <p>本实验首先需要您填写一些基本个人信息。</p>
   <p> <div style = ""color: green""><按任意键至下页></div></p>
   "," ","","","","","","","","","","","","","","","","","","","","","","",""
"","","","","","call-function","3","70076","0.0-3.0-0.0","","","","","","","","","","","","","","","","","","","","","","","","","",""
"","","","","","survey-html-form","4","76125","0.0-3.0-1.0","6040","","{""Q0"":""31""}","","","","","","","","","","","","","","","","","","","","","","",""
"","","","","","html-button-response","5","77464","0.0-3.0-2.0","1335","<p style = 'color : white'>您的性别</p>","1","","","","","","","","","","","","","","","","","","","","","","",""
"","","","","","survey-html-form","6","85800","0.0-3.0-3.0","8333","","{""Q0"":""1999""}","","","","","","","","","","","","","","","","","","","","","","",""
"","","","","","survey-html-form","7","91679","0.0-3.0-4.0","5876","","{""Q0"":""5""}","","","","","","","","","","","","","","","","","","","","","","",""
"","","","","","virtual-chinrest","8","366532","0.0-4.0","274845","","","","85.6","53.98","568.8543604820009","6.64537236784273","429.67","11.377087209640019","50","0.7629369310490364","29.14","17.84","","","","","","","","","","","",""
"true","","","","","fullscreen","9","373036","0.0-5.0","","","","","","","","","","","","","","","","","","","","","","","","","",""
"","","","","","instructions","10","418916","0.0-6.0","45880","","","","","","","","","","","","","","[{""page_index"":0,""viewing_time"":6764},{""page_index"":1,""viewing_time"":20772},{""page_index"":2,""viewing_time"":12572},{""page_index"":3,""viewing_time"":5771}]","","","","","","","","","","",""
"","","","","","psychophysics","11","421597","0.0-7.0-0.0-0.0","null","","null","","","","","","","","","","","","","key","null","16.66757861635232","752","497.3333333333333","j","false","img/T_ambi40.png","三角","prac_image_first",""
"","","","","","html-keyboard-response","12","421925","0.0-7.0-0.0-1.0","null","<span class='add_' style='color:yellow; font-size: 70px;'> 太慢! </span>","null","","","","","","","","","","","","","","","","","","","","","","","feedback_test"
"","","","","","psychophysics","13","423617","0.0-7.0-0.0-0.1","528","","f","","","","","","","","","","","","","key","f","16.66875","752","497.3333333333333","j","false","img/C_ambi40.png","圆形","prac_image_first",""
"","","","","","html-keyboard-response","14","423922","0.0-7.0-0.0-1.1","null","<span style='color:red; font-size: 70px;'>错误! </span>","null","","","","","","","","","","","","","","","","","","","","","","","feedback_test"
"","","","","","psychophysics","15","426590","0.0-7.0-0.0-0.2","null","","null","","","","","","","","","","","","","key","null","16.666822784809806","752","497.3333333333333","j","false","img/C_ambi40.png","圆形","prac_image_first",""
"","","","","","html-keyboard-response","16","426898","0.0-7.0-0.0-1.2","null","<span class='add_' style='color:yellow; font-size: 70px;'> 太慢! </span>","null","","","","","","","","","","","","","","","","","","","","","","","feedback_test"
"","","","","","psychophysics","17","428613","0.0-7.0-0.0-0.3","562","","f","","","","","","","","","","","","","key","f","16.66576470588231","752","497.3333333333333","j","false","img/S_ambi40.png","方形","prac_image_first",""
"","","","","","html-keyboard-response","18","428925","0.0-7.0-0.0-1.3","null","<span style='color:red; font-size: 70px;'>错误! </span>","null","","","","","","","","","","","","","","","","","","","","","","","feedback_test"
"","","","","","psychophysics","19","430603","0.0-7.0-0.0-0.4","523","","f","","","","","","","","","","","","","key","f","16.666707070707226","752","497.3333333333333","f","true","img/T_ambi40.png","圆形","prac_image_first",""
"","","","","","html-keyboard-response","20","430917","0.0-7.0-0.0-1.4","null","<span style='color:GreenYellow; font-size: 70px;'>正确! </span>","null","","","","","","","","","","","","","","","","","","","","","","","feedback_test"
"","","","","","psychophysics","21","432531","0.0-7.0-0.0-0.5","458","","f","","","","","","","","","","","","","key","f","16.666291666667046","752","497.3333333333333","f","true","img/T_ambi40.png","方形","prac_image_first",""
"","","","","","html-keyboard-response","22","432844","0.0-7.0-0.0-1.5","null","<span style='color:GreenYellow; font-size: 70px;'>正确! </span>","null","","","","","","","","","","","","","","","","","","","","","","","feedback_test"
"","","","","","psychophysics","23","434453","0.0-7.0-0.0-0.6","452","","f","","","","","","","","","","","","","key","f","16.666063157894868","752","497.3333333333333","f","true","img/S_ambi40.png","圆形","prac_image_first",""
"","","","","","html-keyboard-response","24","434757","0.0-7.0-0.0-1.6","null","<span style='color:GreenYellow; font-size: 70px;'>正确! </span>","null","","","","","","","","","","","","","","","","","","","","","","","feedback_test"
"","","","","","psychophysics","25","436270","0.0-7.0-0.0-0.7","356","","f","","","","","","","","","","","","","key","f","16.63473033707908","752","497.3333333333333","f","true","img/S_ambi40.png","三角","prac_image_first",""
"","","","","","html-keyboard-response","26","436578","0.0-7.0-0.0-1.7","null","<span style='color:GreenYellow; font-size: 70px;'>正确! </span>","null","","","","","","","","","","","","","","","","","","","","","","","feedback_test"
"","","","","","psychophysics","27","438119","0.0-7.0-0.0-0.8","386","","f","","","","","","","","","","","","","key","f","16.6667252747255","752","497.3333333333333","f","true","img/C_ambi40.png","方形","prac_image_first",""
"","","","","","html-keyboard-response","28","438427","0.0-7.0-0.0-1.8","null","<span style='color:GreenYellow; font-size: 70px;'>正确! </span>","null","","","","","","","","","","","","","","","","","","","","","","","feedback_test"
"","","","","","psychophysics","29","439902","0.0-7.0-0.0-0.9","319","","f","","","","","","","","","","","","","key","f","16.666908045977102","752","497.3333333333333","f","true","img/C_ambi40.png","三角","prac_image_first",""
"","","","","","html-keyboard-response","30","440214","0.0-7.0-0.0-1.9","null","<span style='color:GreenYellow; font-size: 70px;'>正确! </span>","null","","","","","","","","","","","","","","","","","","","","","","","feedback_test"
"","","","","","psychophysics","31","442886","0.0-7.0-0.0-0.10","null","","null","","","","","","","","","","","","","key","null","16.666220125786186","752","497.3333333333333","j","false","img/T_ambi40.png","三角","prac_image_first",""
"","","","","","html-keyboard-response","32","443200","0.0-7.0-0.0-1.10","null","<span class='add_' style='color:yellow; font-size: 70px;'> 太慢! </span>","null","","","","","","","","","","","","","","","","","","","","","","","feedback_test"
"","","","","","psychophysics","33","445094","0.0-7.0-0.0-0.11","742","","f","","","","","","","","","","","","","key","f","16.666734513274466","752","497.3333333333333","j","false","img/S_ambi40.png","方形","prac_image_first",""
"","","","","","html-keyboard-response","34","445399","0.0-7.0-0.0-1.11","null","<span style='color:red; font-size: 70px;'>错误! </span>","null","","","","","","","","","","","","","","","","","","","","","","","feedback_test"
"","","","","","psychophysics","35","447286","0.0-7.0-0.0-0.12","728","","j","","","","","","","","","","","","","key","j","16.666705357142614","752","497.3333333333333","j","true","img/C_ambi40.png","圆形","prac_image_first",""
"","","","","","html-keyboard-response","36","447597","0.0-7.0-0.0-1.12","null","<span style='color:GreenYellow; font-size: 70px;'>正确! </span>","null","","","","","","","","","","","","","","","","","","","","","","","feedback_test"
"","","","","","psychophysics","37","449393","0.0-7.0-0.0-0.13","640","","f","","","","","","","","","","","","","key","f","16.666299065420507","752","497.3333333333333","f","true","img/C_ambi40.png","三角","prac_image_first",""
"","","","","","html-keyboard-response","38","449704","0.0-7.0-0.0-1.13","null","<span style='color:GreenYellow; font-size: 70px;'>正确! </span>","null","","","","","","","","","","","","","","","","","","","","","","","feedback_test"
"","","","","","psychophysics","39","451723","0.0-7.0-0.0-0.14","864","","f","","","","","","","","","","","","","key","f","16.666833333333003","752","497.3333333333333","f","true","img/T_ambi40.png","方形","prac_image_first",""
"","","","","","html-keyboard-response","40","452031","0.0-7.0-0.0-1.14","null","<span style='color:GreenYellow; font-size: 70px;'>正确! </span>","null","","","","","","","","","","","","","","","","","","","","","","","feedback_test"
"","","","","","psychophysics","41","453777","0.0-7.0-0.0-0.15","589","","f","","","","","","","","","","","","","key","f","16.666932038835125","752","497.3333333333333","j","false","img/C_ambi40.png","圆形","prac_image_first",""
"","","","","","html-keyboard-response","42","454089","0.0-7.0-0.0-1.15","null","<span style='color:red; font-size: 70px;'>错误! </span>","null","","","","","","","","","","","","","","","","","","","","","","","feedback_test"
"","","","","","psychophysics","43","456106","0.0-7.0-0.0-0.16","861","","j","","","","","","","","","","","","","key","j","16.6673583333332","752","497.3333333333333","f","false","img/T_ambi40.png","圆形","prac_image_first",""
"","","","","","html-keyboard-response","44","456415","0.0-7.0-0.0-1.16","null","<span style='color:red; font-size: 70px;'>错误! </span>","null","","","","","","","","","","","","","","","","","","","","","","","feedback_test"
"","","","","","psychophysics","45","458413","0.0-7.0-0.0-0.17","844","","j","","","","","","","","","","","","","key","j","16.666386554621752","752","497.3333333333333","j","true","img/S_ambi40.png","方形","prac_image_first",""
"","","","","","html-keyboard-response","46","458726","0.0-7.0-0.0-1.17","null","<span style='color:GreenYellow; font-size: 70px;'>正确! </span>","null","","","","","","","","","","","","","","","","","","","","","","","feedback_test"
"","","","","","psychophysics","47","460535","0.0-7.0-0.0-0.18","654","","j","","","","","","","","","","","","","key","j","16.666130841121614","752","497.3333333333333","j","true","img/S_ambi40.png","方形","prac_image_first",""
"","","","","","html-keyboard-response","48","460848","0.0-7.0-0.0-1.18","null","<span style='color:GreenYellow; font-size: 70px;'>正确! </span>","null","","","","","","","","","","","","","","","","","","","","","","","feedback_test"
"","","","","","psychophysics","49","462566","0.0-7.0-0.0-0.19","565","","f","","","","","","","","","","","","","key","f","16.665803921568166","752","497.3333333333333","f","true","img/S_ambi40.png","三角","prac_image_first",""
"","","","","","html-keyboard-response","50","462879","0.0-7.0-0.0-1.19","null","<span style='color:GreenYellow; font-size: 70px;'>正确! </span>","null","","","","","","","","","","","","","","","","","","","","","","","feedback_test"
"","","","","","psychophysics","51","464628","0.0-7.0-0.0-0.20","597","","j","","","","","","","","","","","","","key","j","16.667134615384455","752","497.3333333333333","f","false","img/C_ambi40.png","方形","prac_image_first",""
"","","","","","html-keyboard-response","52","464937","0.0-7.0-0.0-1.20","null","<span style='color:red; font-size: 70px;'>错误! </span>","null","","","","","","","","","","","","","","","","","","","","","","","feedback_test"
"","","","","","psychophysics","53","466799","0.0-7.0-0.0-0.21","705","","j","","","","","","","","","","","","","key","j","16.666990909090963","752","497.3333333333333","j","true","img/T_ambi40.png","三角","prac_image_first",""
"","","","","","html-keyboard-response","54","467106","0.0-7.0-0.0-1.21","null","<span style='color:GreenYellow; font-size: 70px;'>正确! </span>","null","","","","","","","","","","","","","","","","","","","","","","","feedback_test"
"","","","","","psychophysics","55","468842","0.0-7.0-0.0-0.22","576","","j","","","","","","","","","","","","","key","j","16.666689320388294","752","497.3333333333333","j","true","img/T_ambi40.png","三角","prac_image_first",""
"","","","","","html-keyboard-response","56","469150","0.0-7.0-0.0-1.22","null","<span style='color:GreenYellow; font-size: 70px;'>正确! </span>","null","","","","","","","","","","","","","","","","","","","","","","","feedback_test"
"","","","","","psychophysics","57","470976","0.0-7.0-0.0-0.23","671","","j","","","","","","","","","","","","","key","j","16.66597247706382","752","497.3333333333333","f","false","img/S_ambi40.png","圆形","prac_image_first",""
"","","","","","html-keyboard-response","58","471286","0.0-7.0-0.0-1.23","null","<span style='color:red; font-size: 70px;'>错误! </span>","null","","","","","","","","","","","","","","","","","","","","","","","feedback_test"
"","","","","","html-keyboard-response","59","486862","0.0-7.0-1.0-0.0","15567","<style>.context{color:white; font-size: 35px; line-height:40px}</style>                            <div><p class='context'>您正确回答了58% 的试次。</p><p class='context'>您的平均反应时为576毫秒。</p>"," ","","","","","","","","","","","","","","","","","","","","","","",""
"","","","","","instructions","60","498348","0.0-7.0-1.0-1.0","11476","","","","","","","","","","","","","","[{""page_index"":0,""viewing_time"":4971},{""page_index"":1,""viewing_time"":2921},{""page_index"":2,""viewing_time"":3583}]","","","","","","","","","","",""
"","","","","","psychophysics","61","500243","0.0-7.1-0.1-0.24","727","","f","","","","","","","","","","","","","key","f","16.666017857143224","752","497.3333333333333","j","false","img/S_ambi40.png","方形","prac_image_first",""
"","","","","","html-keyboard-response","62","500557","0.0-7.1-0.1-1.24","null","<span style='color:red; font-size: 70px;'>错误! </span>","null","","","","","","","","","","","","","","","","","","","","","","","feedback_test"
"","","","","","psychophysics","63","502245","0.0-7.1-0.1-0.25","525","","j","","","","","","","","","","","","","key","j","16.666909999999916","752","497.3333333333333","j","true","img/T_ambi40.png","三角","prac_image_first",""
"","","","","","html-keyboard-response","64","502553","0.0-7.1-0.1-1.25","null","<span style='color:GreenYellow; font-size: 70px;'>正确! </span>","null","","","","","","","","","","","","","","","","","","","","","","","feedback_test"
"","","","","","psychophysics","65","504329","0.0-7.1-0.1-0.26","625","","f","","","","","","","","","","","","","key","f","16.665352380952044","752","497.3333333333333","f","true","img/T_ambi40.png","圆形","prac_image_first",""
"","","","","","html-keyboard-response","66","504641","0.0-7.1-0.1-1.26","null","<span style='color:GreenYellow; font-size: 70px;'>正确! </span>","null","","","","","","","","","","","","","","","","","","","","","","","feedback_test"
"","","","","","psychophysics","67","506533","0.0-7.1-0.1-0.27","735","","f","","","","","","","","","","","","","key","f","16.667214285714312","752","497.3333333333333","f","true","img/S_ambi40.png","圆形","prac_image_first",""
"","","","","","html-keyboard-response","68","506842","0.0-7.1-0.1-1.27","null","<span style='color:GreenYellow; font-size: 70px;'>正确! </span>","null","","","","","","","","","","","","","","","","","","","","","","","feedback_test"
"","","","","","psychophysics","69","508805","0.0-7.1-0.1-0.28","805","","f","","","","","","","","","","","","","key","f","16.66642735042693","752","497.3333333333333","f","true","img/C_ambi40.png","方形","prac_image_first",""
"","","","","","html-keyboard-response","70","509112","0.0-7.1-0.1-1.28","null","<span style='color:GreenYellow; font-size: 70px;'>正确! </span>","null","","","","","","","","","","","","","","","","","","","","","","","feedback_test"
"","","","","","psychophysics","71","510857","0.0-7.1-0.1-0.29","592","","j","","","","","","","","","","","","","key","j","16.665737864077634","752","497.3333333333333","j","true","img/C_ambi40.png","圆形","prac_image_first",""
"","","","","","html-keyboard-response","72","511172","0.0-7.1-0.1-1.29","null","<span style='color:GreenYellow; font-size: 70px;'>正确! </span>","null","","","","","","","","","","","","","","","","","","","","","","","feedback_test"
"","","","","","psychophysics","73","513179","0.0-7.1-0.1-0.30","847","","j","","","","","","","","","","","","","key","j","16.666529411764056","752","497.3333333333333","j","true","img/S_ambi40.png","方形","prac_image_first",""
"","","","","","html-keyboard-response","74","513495","0.0-7.1-0.1-1.30","null","<span style='color:GreenYellow; font-size: 70px;'>正确! </span>","null","","","","","","","","","","","","","","","","","","","","","","","feedback_test"
"","","","","","psychophysics","75","515441","0.0-7.1-0.1-0.31","792","","f","","","","","","","","","","","","","key","f","16.568008695652143","752","497.3333333333333","f","true","img/T_ambi40.png","方形","prac_image_first",""
"","","","","","html-keyboard-response","76","515754","0.0-7.1-0.1-1.31","null","<span style='color:GreenYellow; font-size: 70px;'>正确! </span>","null","","","","","","","","","","","","","","","","","","","","","","","feedback_test"
"","","","","","psychophysics","77","517499","0.0-7.1-0.1-0.32","583","","j","","","","","","","","","","","","","key","j","16.665834951456365","752","497.3333333333333","j","true","img/T_ambi40.png","三角","prac_image_first",""
"","","","","","html-keyboard-response","78","517806","0.0-7.1-0.1-1.32","null","<span style='color:GreenYellow; font-size: 70px;'>正确! </span>","null","","","","","","","","","","","","","","","","","","","","","","","feedback_test"
"","","","","","psychophysics","79","519540","0.0-7.1-0.1-0.33","581","","f","","","","","","","","","","","","","key","f","16.665970873787266","752","497.3333333333333","f","true","img/S_ambi40.png","三角","prac_image_first",""
"","","","","","html-keyboard-response","80","519848","0.0-7.1-0.1-1.33","null","<span style='color:GreenYellow; font-size: 70px;'>正确! </span>","null","","","","","","","","","","","","","","","","","","","","","","","feedback_test"
"","","","","","psychophysics","81","521705","0.0-7.1-0.1-0.34","701","","j","","","","","","","","","","","","","key","j","16.66706363636344","752","497.3333333333333","f","false","img/C_ambi40.png","三角","prac_image_first",""
"","","","","","html-keyboard-response","82","522014","0.0-7.1-0.1-1.34","null","<span style='color:red; font-size: 70px;'>错误! </span>","null","","","","","","","","","","","","","","","","","","","","","","","feedback_test"
"","","","","","psychophysics","83","523743","0.0-7.1-0.1-0.35","575","","j","","","","","","","","","","","","","key","j","16.667000000000996","752","497.3333333333333","j","true","img/C_ambi40.png","圆形","prac_image_first",""
"","","","","","html-keyboard-response","84","524055","0.0-7.1-0.1-1.35","null","<span style='color:GreenYellow; font-size: 70px;'>正确! </span>","null","","","","","","","","","","","","","","","","","","","","","","","feedback_test"
"","","","","","psychophysics","85","525897","0.0-7.1-0.1-0.36","686","","f","","","","","","","","","","","","","key","f","16.666697247705738","752","497.3333333333333","f","true","img/C_ambi40.png","方形","prac_image_first",""
"","","","","","html-keyboard-response","86","526209","0.0-7.1-0.1-1.36","null","<span style='color:GreenYellow; font-size: 70px;'>正确! </span>","null","","","","","","","","","","","","","","","","","","","","","","","feedback_test"
"","","","","","psychophysics","87","528278","0.0-7.1-0.1-0.37","912","","f","","","","","","","","","","","","","key","f","16.666682926829093","752","497.3333333333333","f","true","img/S_ambi40.png","圆形","prac_image_first",""
"","","","","","html-keyboard-response","88","528585","0.0-7.1-0.1-1.37","null","<span style='color:GreenYellow; font-size: 70px;'>正确! </span>","null","","","","","","","","","","","","","","","","","","","","","","","feedback_test"
"","","","","","psychophysics","89","530415","0.0-7.1-0.1-0.38","673","","f","","","","","","","","","","","","","key","f","16.666925925925305","752","497.3333333333333","f","true","img/C_ambi40.png","三角","prac_image_first",""
"","","","","","html-keyboard-response","90","530722","0.0-7.1-0.1-1.38","null","<span style='color:GreenYellow; font-size: 70px;'>正确! </span>","null","","","","","","","","","","","","","","","","","","","","","","","feedback_test"
"","","","","","psychophysics","91","532469","0.0-7.1-0.1-0.39","593","","j","","","","","","","","","","","","","key","j","16.666105769229873","752","497.3333333333333","j","true","img/C_ambi40.png","圆形","prac_image_first",""
"","","","","","html-keyboard-response","92","532777","0.0-7.1-0.1-1.39","null","<span style='color:GreenYellow; font-size: 70px;'>正确! </span>","null","","","","","","","","","","","","","","","","","","","","","","","feedback_test"
"","","","","","psychophysics","93","534591","0.0-7.1-0.1-0.40","658","","j","","","","","","","","","","","","","key","j","16.665728971962686","752","497.3333333333333","j","true","img/T_ambi40.png","三角","prac_image_first",""
"","","","","","html-keyboard-response","94","534903","0.0-7.1-0.1-1.40","null","<span style='color:GreenYellow; font-size: 70px;'>正确! </span>","null","","","","","","","","","","","","","","","","","","","","","","","feedback_test"
"","","","","","psychophysics","95","536565","0.0-7.1-0.1-0.41","508","","j","","","","","","","","","","","","","key","j","16.665306122449692","752","497.3333333333333","j","true","img/T_ambi40.png","三角","prac_image_first",""
"","","","","","html-keyboard-response","96","536878","0.0-7.1-0.1-1.41","null","<span style='color:GreenYellow; font-size: 70px;'>正确! </span>","null","","","","","","","","","","","","","","","","","","","","","","","feedback_test"
"","","","","","psychophysics","97","538640","0.0-7.1-0.1-0.42","608","","f","","","","","","","","","","","","","key","f","16.66605769230787","752","497.3333333333333","f","true","img/S_ambi40.png","三角","prac_image_first",""
"","","","","","html-keyboard-response","98","538951","0.0-7.1-0.1-1.42","null","<span style='color:GreenYellow; font-size: 70px;'>正确! </span>","null","","","","","","","","","","","","","","","","","","","","","","","feedback_test"
"","","","","","psychophysics","99","540790","0.0-7.1-0.1-0.43","682","","j","","","","","","","","","","","","","key","j","16.66552293577996","752","497.3333333333333","j","true","img/S_ambi40.png","方形","prac_image_first",""
"","","","","","html-keyboard-response","100","541103","0.0-7.1-0.1-1.43","null","<span style='color:GreenYellow; font-size: 70px;'>正确! </span>","null","","","","","","","","","","","","","","","","","","","","","","","feedback_test"
"","","","","","psychophysics","101","542907","0.0-7.1-0.1-0.44","650","","f","","","","","","","","","","","","","key","f","16.6662523364485","752","497.3333333333333","f","true","img/T_ambi40.png","方形","prac_image_first",""
"","","","","","html-keyboard-response","102","543218","0.0-7.1-0.1-1.44","null","<span style='color:GreenYellow; font-size: 70px;'>正确! </span>","null","","","","","","","","","","","","","","","","","","","","","","","feedback_test"
"","","","","","psychophysics","103","545404","0.0-7.1-0.1-0.45","1033","","j","","","","","","","","","","","","","key","j","16.666861538460942","752","497.3333333333333","j","true","img/S_ambi40.png","方形","prac_image_first",""
"","","","","","html-keyboard-response","104","545716","0.0-7.1-0.1-1.45","null","<span style='color:GreenYellow; font-size: 70px;'>正确! </span>","null","","","","","","","","","","","","","","","","","","","","","","","feedback_test"
"","","","","","psychophysics","105","547536","0.0-7.1-0.1-0.46","654","","f","","","","","","","","","","","","","key","f","16.666101851851973","752","497.3333333333333","f","true","img/T_ambi40.png","圆形","prac_image_first",""
"","","","","","html-keyboard-response","106","547849","0.0-7.1-0.1-1.46","null","<span style='color:GreenYellow; font-size: 70px;'>正确! </span>","null","","","","","","","","","","","","","","","","","","","","","","","feedback_test"
"","","","","","psychophysics","107","549519","0.0-7.1-0.1-0.47","514","","j","","","","","","","","","","","","","key","j","16.66721212121216","752","497.3333333333333","j","true","img/C_ambi40.png","圆形","prac_image_first",""
"","","","","","html-keyboard-response","108","549830","0.0-7.1-0.1-1.47","null","<span style='color:GreenYellow; font-size: 70px;'>正确! </span>","null","","","","","","","","","","","","","","","","","","","","","","","feedback_test"
"","","","","","html-keyboard-response","109","553115","0.0-8.0","3276","<style>.context{color:white; font-size: 35px; line-height:40px}</style>                            <div><p class='context'>您正确回答了92% 的试次。</p><p class='context'>您的平均反应时为674毫秒。</p><p class='context'>恭喜您完成这一阶段的练习。按任意键进入<span style='color: yellow;'>先文字后图形条件</span>的练习。</p></div>"," ","","","","","","","","","","","","","","","","","","","","","","",""
"","","","","","psychophysics","110","555799","0.0-9.0-0.0-0.0","null","","null","","","","","","","","","","","","","key","null","16.666639240506502","752","497.3333333333333","f","false","img/S_ambi40.png","三角","prac_word_first",""
"","","","","","html-keyboard-response","111","556111","0.0-9.0-0.0-1.0","null","<span class='add_' style='color:yellow; font-size: 70px;'> 太慢! </span>","null","","","","","","","","","","","","","","","","","","","","","","","feedback_test"
"","","","","","psychophysics","112","557981","0.0-9.0-0.0-0.1","715","","f","","","","","","","","","","","","","key","f","16.66627027027032","752","497.3333333333333","f","true","img/T_ambi40.png","圆形","prac_word_first",""
"","","","","","html-keyboard-response","113","558290","0.0-9.0-0.0-1.1","null","<span style='color:GreenYellow; font-size: 70px;'>正确! </span>","null","","","","","","","","","","","","","","","","","","","","","","","feedback_test"
"","","","","","psychophysics","114","560065","0.0-9.0-0.0-0.2","616","","j","","","","","","","","","","","","","key","j","16.667161904762143","752","497.3333333333333","j","true","img/S_ambi40.png","方形","prac_word_first",""
"","","","","","html-keyboard-response","115","560377","0.0-9.0-0.0-1.2","null","<span style='color:GreenYellow; font-size: 70px;'>正确! </span>","null","","","","","","","","","","","","","","","","","","","","","","","feedback_test"
"","","","","","psychophysics","116","562137","0.0-9.0-0.0-0.3","605","","f","","","","","","","","","","","","","key","f","16.666855769230796","752","497.3333333333333","f","true","img/C_ambi40.png","三角","prac_word_first",""
"","","","","","html-keyboard-response","117","562441","0.0-9.0-0.0-1.3","null","<span style='color:GreenYellow; font-size: 70px;'>正确! </span>","null","","","","","","","","","","","","","","","","","","","","","","","feedback_test"
"","","","","","psychophysics","118","564224","0.0-9.0-0.0-0.4","628","","f","","","","","","","","","","","","","key","f","16.666867924529075","752","497.3333333333333","f","true","img/T_ambi40.png","方形","prac_word_first",""
"","","","","","html-keyboard-response","119","564542","0.0-9.0-0.0-1.4","null","<span style='color:GreenYellow; font-size: 70px;'>正确! </span>","null","","","","","","","","","","","","","","","","","","","","","","","feedback_test"
"","","","","","psychophysics","120","566222","0.0-9.0-0.0-0.5","528","","j","","","","","","","","","","","","","key","j","16.666329999999142","752","497.3333333333333","j","true","img/T_ambi40.png","三角","prac_word_first",""
"","","","","","html-keyboard-response","121","566534","0.0-9.0-0.0-1.5","null","<span style='color:GreenYellow; font-size: 70px;'>正确! </span>","null","","","","","","","","","","","","","","","","","","","","","","","feedback_test"
"","","","","","psychophysics","122","568267","0.0-9.0-0.0-0.6","577","","j","","","","","","","","","","","","","key","j","16.667117647058557","752","497.3333333333333","j","true","img/C_ambi40.png","圆形","prac_word_first",""
"","","","","","html-keyboard-response","123","568574","0.0-9.0-0.0-1.6","null","<span style='color:GreenYellow; font-size: 70px;'>正确! </span>","null","","","","","","","","","","","","","","","","","","","","","","","feedback_test"
"","","","","","psychophysics","124","570314","0.0-9.0-0.0-0.7","588","","f","","","","","","","","","","","","","key","f","16.666355769230556","752","497.3333333333333","f","true","img/S_ambi40.png","圆形","prac_word_first",""
"","","","","","html-keyboard-response","125","570628","0.0-9.0-0.0-1.7","null","<span style='color:GreenYellow; font-size: 70px;'>正确! </span>","null","","","","","","","","","","","","","","","","","","","","","","","feedback_test"
"","","","","","psychophysics","126","572420","0.0-9.0-0.0-0.8","640","","j","","","","","","","","","","","","","key","j","16.667084905660474","752","497.3333333333333","j","true","img/T_ambi40.png","三角","prac_word_first",""
"","","","","","html-keyboard-response","127","572728","0.0-9.0-0.0-1.8","null","<span style='color:GreenYellow; font-size: 70px;'>正确! </span>","null","","","","","","","","","","","","","","","","","","","","","","","feedback_test"
"","","","","","psychophysics","128","574630","0.0-9.0-0.0-0.9","750","","f","","","","","","","","","","","","","key","f","16.66637168141531","752","497.3333333333333","f","true","img/C_ambi40.png","方形","prac_word_first",""
"","","","","","html-keyboard-response","129","574942","0.0-9.0-0.0-1.9","null","<span style='color:GreenYellow; font-size: 70px;'>正确! </span>","null","","","","","","","","","","","","","","","","","","","","","","","feedback_test"
"","","","","","psychophysics","130","576715","0.0-9.0-0.0-0.10","619","","j","","","","","","","","","","","","","key","j","16.66671428571433","752","497.3333333333333","j","true","img/S_ambi40.png","方形","prac_word_first",""
"","","","","","html-keyboard-response","131","577027","0.0-9.0-0.0-1.10","null","<span style='color:GreenYellow; font-size: 70px;'>正确! </span>","null","","","","","","","","","","","","","","","","","","","","","","","feedback_test"
"","","","","","psychophysics","132","578753","0.0-9.0-0.0-0.11","574","","j","","","","","","","","","","","","","key","j","16.6671176470597","752","497.3333333333333","j","true","img/C_ambi40.png","圆形","prac_word_first",""
"","","","","","html-keyboard-response","133","579066","0.0-9.0-0.0-1.11","null","<span style='color:GreenYellow; font-size: 70px;'>正确! </span>","null","","","","","","","","","","","","","","","","","","","","","","","feedback_test"
"","","","","","psychophysics","134","580809","0.0-9.0-0.0-0.12","578","","f","","","","","","","","","","","","","key","f","16.666961165048967","752","497.3333333333333","f","true","img/S_ambi40.png","圆形","prac_word_first",""
"","","","","","html-keyboard-response","135","581122","0.0-9.0-0.0-1.12","null","<span style='color:GreenYellow; font-size: 70px;'>正确! </span>","null","","","","","","","","","","","","","","","","","","","","","","","feedback_test"
"","","","","","psychophysics","136","582755","0.0-9.0-0.0-0.13","477","","j","","","","","","","","","","","","","key","j","16.66608247422786","752","497.3333333333333","j","true","img/C_ambi40.png","圆形","prac_word_first",""
"","","","","","html-keyboard-response","137","583067","0.0-9.0-0.0-1.13","null","<span style='color:GreenYellow; font-size: 70px;'>正确! </span>","null","","","","","","","","","","","","","","","","","","","","","","","feedback_test"
"","","","","","psychophysics","138","584955","0.0-9.0-0.0-0.14","736","","f","","","","","","","","","","","","","key","f","16.66650892857121","752","497.3333333333333","f","true","img/T_ambi40.png","方形","prac_word_first",""
"","","","","","html-keyboard-response","139","585261","0.0-9.0-0.0-1.14","null","<span style='color:GreenYellow; font-size: 70px;'>正确! </span>","null","","","","","","","","","","","","","","","","","","","","","","","feedback_test"
"","","","","","psychophysics","140","587213","0.0-9.0-0.0-0.15","800","","f","","","","","","","","","","","","","key","f","16.66731304347758","752","497.3333333333333","f","true","img/C_ambi40.png","方形","prac_word_first",""
"","","","","","html-keyboard-response","141","587524","0.0-9.0-0.0-1.15","null","<span style='color:GreenYellow; font-size: 70px;'>正确! </span>","null","","","","","","","","","","","","","","","","","","","","","","","feedback_test"
"","","","","","psychophysics","142","589315","0.0-9.0-0.0-0.16","636","","f","","","","","","","","","","","","","key","f","16.66799065420539","752","497.3333333333333","f","true","img/S_ambi40.png","三角","prac_word_first",""
"","","","","","html-keyboard-response","143","589631","0.0-9.0-0.0-1.16","null","<span style='color:GreenYellow; font-size: 70px;'>正确! </span>","null","","","","","","","","","","","","","","","","","","","","","","","feedback_test"
"","","","","","psychophysics","144","591328","0.0-9.0-0.0-0.17","540","","f","","","","","","","","","","","","","key","f","16.665770000000485","752","497.3333333333333","j","false","img/T_ambi40.png","三角","prac_word_first",""
"","","","","","html-keyboard-response","145","591640","0.0-9.0-0.0-1.17","null","<span style='color:red; font-size: 70px;'>错误! </span>","null","","","","","","","","","","","","","","","","","","","","","","","feedback_test"
"","","","","","psychophysics","146","593378","0.0-9.0-0.0-0.18","581","","j","","","","","","","","","","","","","key","j","16.666019607843218","752","497.3333333333333","j","true","img/T_ambi40.png","三角","prac_word_first",""
"","","","","","html-keyboard-response","147","593681","0.0-9.0-0.0-1.18","null","<span style='color:GreenYellow; font-size: 70px;'>正确! </span>","null","","","","","","","","","","","","","","","","","","","","","","","feedback_test"
"","","","","","psychophysics","148","595476","0.0-9.0-0.0-0.19","629","","f","","","","","","","","","","","","","key","f","16.666716981132268","752","497.3333333333333","f","true","img/T_ambi40.png","圆形","prac_word_first",""
"","","","","","html-keyboard-response","149","595785","0.0-9.0-0.0-1.19","null","<span style='color:GreenYellow; font-size: 70px;'>正确! </span>","null","","","","","","","","","","","","","","","","","","","","","","","feedback_test"
"","","","","","psychophysics","150","597836","0.0-9.0-0.0-0.20","895","","f","","","","","","","","","","","","","key","f","16.666885245901526","752","497.3333333333333","f","true","img/C_ambi40.png","三角","prac_word_first",""
"","","","","","html-keyboard-response","151","598146","0.0-9.0-0.0-1.20","null","<span style='color:GreenYellow; font-size: 70px;'>正确! </span>","null","","","","","","","","","","","","","","","","","","","","","","","feedback_test"
"","","","","","psychophysics","152","599890","0.0-9.0-0.0-0.21","579","","j","","","","","","","","","","","","","key","j","16.665854368931885","752","497.3333333333333","j","true","img/C_ambi40.png","圆形","prac_word_first",""
"","","","","","html-keyboard-response","153","600203","0.0-9.0-0.0-1.21","null","<span style='color:GreenYellow; font-size: 70px;'>正确! </span>","null","","","","","","","","","","","","","","","","","","","","","","","feedback_test"
"","","","","","psychophysics","154","602213","0.0-9.0-0.0-0.22","857","","j","","","","","","","","","","","","","key","j","16.667151260504717","752","497.3333333333333","j","true","img/S_ambi40.png","方形","prac_word_first",""
"","","","","","html-keyboard-response","155","602524","0.0-9.0-0.0-1.22","null","<span style='color:GreenYellow; font-size: 70px;'>正确! </span>","null","","","","","","","","","","","","","","","","","","","","","","","feedback_test"
"","","","","","psychophysics","156","604648","0.0-9.0-0.0-0.23","968","","j","","","","","","","","","","","","","key","j","16.665968253967417","752","497.3333333333333","j","true","img/S_ambi40.png","方形","prac_word_first",""
"","","","","","html-keyboard-response","157","604957","0.0-9.0-0.0-1.23","null","<span style='color:GreenYellow; font-size: 70px;'>正确! </span>","null","","","","","","","","","","","","","","","","","","","","","","","feedback_test"
"","","","","","html-keyboard-response","158","608940","0.0-10.0","3979","<style>.context{color:white; font-size: 35px; line-height:40px}</style>                            <div><p class='context'>您正确回答了92% 的试次。</p><p class='context'>您的平均反应时为663毫秒。</p><p class='context'>恭喜您完成练习。按任意键进入<span style='color: yellow;'>图形和文字同时呈现条件</span>的练习。</p></div>"," ","","","","","","","","","","","","","","","","","","","","","","",""
"","","","","","psychophysics","159","611464","0.0-11.0-0.0-0.0","null","","null","","","","","","","","","","","","","key","null","16.667506666666206","752","497.3333333333333","f","false","img/T_ambi40.png","方形","prac_simultaneous",""
"","","","","","html-keyboard-response","160","611775","0.0-11.0-0.0-1.0","null","<span class='add_' style='color:yellow; font-size: 70px;'> 太慢! </span>","null","","","","","","","","","","","","","","","","","","","","","","","feedback_test"
"","","","","","psychophysics","161","613728","0.0-11.0-0.0-0.1","949","","f","","","","","","","","","","","","","key","f","16.550573913043404","752","497.3333333333333","f","true","img/C_ambi40.png","三角","prac_simultaneous",""
"","","","","","html-keyboard-response","162","614038","0.0-11.0-0.0-1.1","null","<span style='color:GreenYellow; font-size: 70px;'>正确! </span>","null","","","","","","","","","","","","","","","","","","","","","","","feedback_test"
"","","","","","psychophysics","163","615841","0.0-11.0-0.0-0.2","797","","j","","","","","","","","","","","","","key","j","16.66567289719693","752","497.3333333333333","f","false","img/S_ambi40.png","圆形","prac_simultaneous",""
"","","","","","html-keyboard-response","164","616153","0.0-11.0-0.0-1.2","null","<span style='color:red; font-size: 70px;'>错误! </span>","null","","","","","","","","","","","","","","","","","","","","","","","feedback_test"
"","","","","","psychophysics","165","618121","0.0-11.0-0.0-0.3","958","","f","","","","","","","","","","","","","key","f","16.66677777777808","752","497.3333333333333","f","true","img/S_ambi40.png","三角","prac_simultaneous",""
"","","","","","html-keyboard-response","166","618431","0.0-11.0-0.0-1.3","null","<span style='color:GreenYellow; font-size: 70px;'>正确! </span>","null","","","","","","","","","","","","","","","","","","","","","","","feedback_test"
"","","","","","psychophysics","167","620619","0.0-11.0-0.0-0.4","1177","","f","","","","","","","","","","","","","key","f","16.666776923076785","752","497.3333333333333","j","false","img/S_ambi40.png","方形","prac_simultaneous",""
"","","","","","html-keyboard-response","168","620926","0.0-11.0-0.0-1.4","null","<span style='color:red; font-size: 70px;'>错误! </span>","null","","","","","","","","","","","","","","","","","","","","","","","feedback_test"
"","","","","","psychophysics","169","622698","0.0-11.0-0.0-0.5","770","","j","","","","","","","","","","","","","key","j","16.667152380953276","752","497.3333333333333","j","true","img/T_ambi40.png","三角","prac_simultaneous",""
"","","","","","html-keyboard-response","170","623010","0.0-11.0-0.0-1.5","null","<span style='color:GreenYellow; font-size: 70px;'>正确! </span>","null","","","","","","","","","","","","","","","","","","","","","","","feedback_test"
"","","","","","psychophysics","171","624737","0.0-11.0-0.0-0.6","718","","j","","","","","","","","","","","","","key","j","16.66670588235252","752","497.3333333333333","j","true","img/C_ambi40.png","圆形","prac_simultaneous",""
"","","","","","html-keyboard-response","172","625043","0.0-11.0-0.0-1.6","null","<span style='color:GreenYellow; font-size: 70px;'>正确! </span>","null","","","","","","","","","","","","","","","","","","","","","","","feedback_test"
"","","","","","psychophysics","173","626633","0.0-11.0-0.0-0.7","588","","j","","","","","","","","","","","","","key","j","16.666851063829878","752","497.3333333333333","j","true","img/T_ambi40.png","三角","prac_simultaneous",""
"","","","","","html-keyboard-response","174","626946","0.0-11.0-0.0-1.7","null","<span style='color:GreenYellow; font-size: 70px;'>正确! </span>","null","","","","","","","","","","","","","","","","","","","","","","","feedback_test"
"","","","","","psychophysics","175","628736","0.0-11.0-0.0-0.8","789","","f","","","","","","","","","","","","","key","f","16.66742452830164","752","497.3333333333333","f","true","img/C_ambi40.png","方形","prac_simultaneous",""
"","","","","","html-keyboard-response","176","629045","0.0-11.0-0.0-1.8","null","<span style='color:GreenYellow; font-size: 70px;'>正确! </span>","null","","","","","","","","","","","","","","","","","","","","","","","feedback_test"
"","","","","","psychophysics","177","630933","0.0-11.0-0.0-0.9","876","","f","","","","","","","","","","","","","key","f","16.66583035714263","752","497.3333333333333","f","true","img/T_ambi40.png","圆形","prac_simultaneous",""
"","","","","","html-keyboard-response","178","631238","0.0-11.0-0.0-1.9","null","<span style='color:GreenYellow; font-size: 70px;'>正确! </span>","null","","","","","","","","","","","","","","","","","","","","","","","feedback_test"
"","","","","","psychophysics","179","632996","0.0-11.0-0.0-0.10","755","","j","","","","","","","","","","","","","key","j","16.666278846153336","752","497.3333333333333","j","true","img/S_ambi40.png","方形","prac_simultaneous",""
"","","","","","html-keyboard-response","180","633309","0.0-11.0-0.0-1.10","null","<span style='color:GreenYellow; font-size: 70px;'>正确! </span>","null","","","","","","","","","","","","","","","","","","","","","","","feedback_test"
"","","","","","psychophysics","181","635196","0.0-11.0-0.0-0.11","875","","f","","","","","","","","","","","","","key","f","16.665687500000267","752","497.3333333333333","j","false","img/C_ambi40.png","圆形","prac_simultaneous",""
"","","","","","html-keyboard-response","182","635508","0.0-11.0-0.0-1.11","null","<span style='color:red; font-size: 70px;'>错误! </span>","null","","","","","","","","","","","","","","","","","","","","","","","feedback_test"
"","","","","","psychophysics","183","637506","0.0-11.0-0.0-0.12","990","","f","","","","","","","","","","","","","key","f","16.66643220339053","752","497.3333333333333","j","false","img/C_ambi40.png","圆形","prac_simultaneous",""
"","","","","","html-keyboard-response","184","637815","0.0-11.0-0.0-1.12","null","<span style='color:red; font-size: 70px;'>错误! </span>","null","","","","","","","","","","","","","","","","","","","","","","","feedback_test"
"","","","","","psychophysics","185","639835","0.0-11.0-0.0-0.13","1007","","j","","","","","","","","","","","","","key","j","16.666299999999076","752","497.3333333333333","j","true","img/S_ambi40.png","方形","prac_simultaneous",""
"","","","","","html-keyboard-response","186","640142","0.0-11.0-0.0-1.13","null","<span style='color:GreenYellow; font-size: 70px;'>正确! </span>","null","","","","","","","","","","","","","","","","","","","","","","","feedback_test"
"","","","","","psychophysics","187","642022","0.0-11.0-0.0-0.14","866","","j","","","","","","","","","","","","","key","j","16.666441441441233","752","497.3333333333333","f","false","img/T_ambi40.png","方形","prac_simultaneous",""
"","","","","","html-keyboard-response","188","642329","0.0-11.0-0.0-1.14","null","<span style='color:red; font-size: 70px;'>错误! </span>","null","","","","","","","","","","","","","","","","","","","","","","","feedback_test"
"","","","","","psychophysics","189","644228","0.0-11.0-0.0-0.15","887","","f","","","","","","","","","","","","","key","f","16.66580530973481","752","497.3333333333333","f","true","img/T_ambi40.png","圆形","prac_simultaneous",""
"","","","","","html-keyboard-response","190","644536","0.0-11.0-0.0-1.15","null","<span style='color:GreenYellow; font-size: 70px;'>正确! </span>","null","","","","","","","","","","","","","","","","","","","","","","","feedback_test"
"","","","","","psychophysics","191","646371","0.0-11.0-0.0-0.16","828","","f","","","","","","","","","","","","","key","f","16.667669724770224","752","497.3333333333333","f","true","img/S_ambi40.png","圆形","prac_simultaneous",""
"","","","","","html-keyboard-response","192","646683","0.0-11.0-0.0-1.16","null","<span style='color:GreenYellow; font-size: 70px;'>正确! </span>","null","","","","","","","","","","","","","","","","","","","","","","","feedback_test"
"","","","","","psychophysics","193","648632","0.0-11.0-0.0-0.17","941","","j","","","","","","","","","","","","","key","j","16.667025862068964","752","497.3333333333333","j","true","img/C_ambi40.png","圆形","prac_simultaneous",""
"","","","","","html-keyboard-response","194","648945","0.0-11.0-0.0-1.17","null","<span style='color:GreenYellow; font-size: 70px;'>正确! </span>","null","","","","","","","","","","","","","","","","","","","","","","","feedback_test"
"","","","","","psychophysics","195","650876","0.0-11.0-0.0-0.18","923","","j","","","","","","","","","","","","","key","j","16.666652173912354","752","497.3333333333333","j","true","img/S_ambi40.png","方形","prac_simultaneous",""
"","","","","","html-keyboard-response","196","651184","0.0-11.0-0.0-1.18","null","<span style='color:GreenYellow; font-size: 70px;'>正确! </span>","null","","","","","","","","","","","","","","","","","","","","","","","feedback_test"
"","","","","","psychophysics","197","653481","0.0-11.0-0.0-0.19","1291","","f","","","","","","","","","","","","","key","f","16.666394160583746","752","497.3333333333333","f","true","img/C_ambi40.png","方形","prac_simultaneous",""
"","","","","","html-keyboard-response","198","653788","0.0-11.0-0.0-1.19","null","<span style='color:GreenYellow; font-size: 70px;'>正确! </span>","null","","","","","","","","","","","","","","","","","","","","","","","feedback_test"
"","","","","","psychophysics","199","655761","0.0-11.0-0.0-0.20","967","","f","","","","","","","","","","","","","key","f","16.666435897435882","752","497.3333333333333","f","true","img/S_ambi40.png","三角","prac_simultaneous",""
"","","","","","html-keyboard-response","200","656066","0.0-11.0-0.0-1.20","null","<span style='color:GreenYellow; font-size: 70px;'>正确! </span>","null","","","","","","","","","","","","","","","","","","","","","","","feedback_test"
"","","","","","psychophysics","201","657894","0.0-11.0-0.0-0.21","820","","f","","","","","","","","","","","","","key","f","16.667321100916475","752","497.3333333333333","f","true","img/C_ambi40.png","三角","prac_simultaneous",""
"","","","","","html-keyboard-response","202","658202","0.0-11.0-0.0-1.21","null","<span style='color:GreenYellow; font-size: 70px;'>正确! </span>","null","","","","","","","","","","","","","","","","","","","","","","","feedback_test"
"","","","","","psychophysics","203","659931","0.0-11.0-0.0-0.22","723","","j","","","","","","","","","","","","","key","j","16.652912621359224","752","497.3333333333333","j","true","img/T_ambi40.png","三角","prac_simultaneous",""
"","","","","","html-keyboard-response","204","660242","0.0-11.0-0.0-1.22","null","<span style='color:GreenYellow; font-size: 70px;'>正确! </span>","null","","","","","","","","","","","","","","","","","","","","","","","feedback_test"
"","","","","","psychophysics","205","661997","0.0-11.0-0.0-0.23","753","","j","","","","","","","","","","","","","key","j","16.666115384616067","752","497.3333333333333","j","true","img/T_ambi40.png","三角","prac_simultaneous",""
"","","","","","html-keyboard-response","206","662311","0.0-11.0-0.0-1.23","null","<span style='color:GreenYellow; font-size: 70px;'>正确! </span>","null","","","","","","","","","","","","","","","","","","","","","","","feedback_test"
"","","","","","html-keyboard-response","207","672311","0.0-12.0","9993","<style>.context{color:white; font-size: 35px; line-height:40px}</style>                            <div><p class='context'>您正确回答了75% 的试次。</p><p class='context'>您的平均反应时为864毫秒。</p><p class='context'>恭喜您完成练习。按任意键进入正式实验。</p><p class='footer' style='font-size: 35px; line-height:40px;'>请在进入正式实验实验之前将您的<span style='color: lightgreen;'>食指</span>放在电脑键盘的相应键位上进行按键。</p>"," ","","","","","","","","","","","","","","","","","","","","","","",""
"","","","","","html-keyboard-response","208","678981","0.0-13.0-2.0-0.0","6664","
    <p>请您将手指放在按键上，准备进入呈现顺序为<span style='color: yellow;'>图形和文字同时呈现条件</span>的正式匹配任务</p>
    <p> <div style = ""color: green""><按任意键进入下一阶段的匹配任务></div></p>
    "," ","","","","","","","","","","","","","","","","","","","","","","",""
"","","","","","psychophysics","209","681491","0.0-13.0-2.0-1.0-0.0-0.0","null","","null","","","","","","","","","","","","","key","null","16.667704697986657","752","497.3333333333333","j","false","img/S_ambi40.png","方形","simultaneous",""
"","","","","","html-keyboard-response","210","681800","0.0-13.0-2.0-1.0-0.0-1.0","null","<span class='add_' style='color:yellow; font-size: 70px;'> 太慢! </span>","null","","","","","","","","","","","","","","","","","","","","","","","feedback_test"
"","","","","","psychophysics","211","684307","0.0-13.0-2.0-1.0-0.0-0.1","null","","null","","","","","","","","","","","","","key","null","16.66559060402652","752","497.3333333333333","j","false","img/C_ambi40.png","圆形","simultaneous",""
"","","","","","html-keyboard-response","212","684618","0.0-13.0-2.0-1.0-0.0-1.1","null","<span class='add_' style='color:yellow; font-size: 70px;'> 太慢! </span>","null","","","","","","","","","","","","","","","","","","","","","","","feedback_test"
"","","","","","psychophysics","213","686635","0.0-13.0-2.0-1.0-0.0-0.2","1011","","f","","","","","","","","","","","","","key","f","16.666366666666","752","497.3333333333333","f","true","img/S_ambi40.png","圆形","simultaneous",""
"","","","","","html-keyboard-response","214","686946","0.0-13.0-2.0-1.0-0.0-1.2","null","<span style='color:GreenYellow; font-size: 70px;'>正确! </span>","null","","","","","","","","","","","","","","","","","","","","","","","feedback_test"
"","","","","","psychophysics","215","688627","0.0-13.0-2.0-1.0-0.0-0.3","670","","j","","","","","","","","","","","","","key","j","16.667140000000362","752","497.3333333333333","j","true","img/S_ambi40.png","方形","simultaneous",""
"","","","","","html-keyboard-response","216","688937","0.0-13.0-2.0-1.0-0.0-1.3","null","<span style='color:GreenYellow; font-size: 70px;'>正确! </span>","null","","","","","","","","","","","","","","","","","","","","","","","feedback_test"
"","","","","","psychophysics","217","690770","0.0-13.0-2.0-1.0-0.0-0.4","832","","f","","","","","","","","","","","","","key","f","16.665851851851954","752","497.3333333333333","f","true","img/S_ambi40.png","三角","simultaneous",""
"","","","","","html-keyboard-response","218","691078","0.0-13.0-2.0-1.0-0.0-1.4","null","<span style='color:GreenYellow; font-size: 70px;'>正确! </span>","null","","","","","","","","","","","","","","","","","","","","","","","feedback_test"
"","","","","","psychophysics","219","692866","0.0-13.0-2.0-1.0-0.0-0.5","785","","f","","","","","","","","","","","","","key","f","16.666415094339754","752","497.3333333333333","f","true","img/C_ambi40.png","三角","simultaneous",""
"","","","","","html-keyboard-response","220","693178","0.0-13.0-2.0-1.0-0.0-1.5","null","<span style='color:GreenYellow; font-size: 70px;'>正确! </span>","null","","","","","","","","","","","","","","","","","","","","","","","feedback_test"
"","","","","","psychophysics","221","695299","0.0-13.0-2.0-1.0-0.0-0.6","1113","","f","","","","","","","","","","","","","key","f","16.664031746031323","752","497.3333333333333","f","true","img/C_ambi40.png","方形","simultaneous",""
"","","","","","html-keyboard-response","222","695604","0.0-13.0-2.0-1.0-0.0-1.6","null","<span style='color:GreenYellow; font-size: 70px;'>正确! </span>","null","","","","","","","","","","","","","","","","","","","","","","","feedback_test"
"","","","","","psychophysics","223","697271","0.0-13.0-2.0-1.0-0.0-0.7","663","","j","","","","","","","","","","","","","key","j","16.66632653061153","752","497.3333333333333","j","true","img/T_ambi40.png","三角","simultaneous",""
"","","","","","html-keyboard-response","224","697577","0.0-13.0-2.0-1.0-0.0-1.7","null","<span style='color:GreenYellow; font-size: 70px;'>正确! </span>","null","","","","","","","","","","","","","","","","","","","","","","","feedback_test"
"","","","","","psychophysics","225","699351","0.0-13.0-2.0-1.0-0.0-0.8","767","","f","","","","","","","","","","","","","key","f","16.66645714285717","752","497.3333333333333","f","true","img/T_ambi40.png","方形","simultaneous",""
"","","","","","html-keyboard-response","226","699656","0.0-13.0-2.0-1.0-0.0-1.8","null","<span style='color:GreenYellow; font-size: 70px;'>正确! </span>","null","","","","","","","","","","","","","","","","","","","","","","","feedback_test"
"","","","","","psychophysics","227","701430","0.0-13.0-2.0-1.0-0.0-0.9","763","","f","","","","","","","","","","","","","key","f","16.666428571428348","752","497.3333333333333","f","true","img/T_ambi40.png","圆形","simultaneous",""
"","","","","","html-keyboard-response","228","701741","0.0-13.0-2.0-1.0-0.0-1.9","null","<span style='color:GreenYellow; font-size: 70px;'>正确! </span>","null","","","","","","","","","","","","","","","","","","","","","","","feedback_test"
"","","","","","psychophysics","229","703392","0.0-13.0-2.0-1.0-0.0-0.10","649","","j","","","","","","","","","","","","","key","j","16.666816326530594","752","497.3333333333333","j","true","img/C_ambi40.png","圆形","simultaneous",""
"","","","","","html-keyboard-response","230","703702","0.0-13.0-2.0-1.0-0.0-1.10","null","<span style='color:GreenYellow; font-size: 70px;'>正确! </span>","null","","","","","","","","","","","","","","","","","","","","","","","feedback_test"
"","","","","","psychophysics","231","705370","0.0-13.0-2.0-1.0-0.0-0.11","665","","j","","","","","","","","","","","","","key","j","16.666535353534996","752","497.3333333333333","j","true","img/T_ambi40.png","三角","simultaneous",""
"","","","","","html-keyboard-response","232","705680","0.0-13.0-2.0-1.0-0.0-1.11","null","<span style='color:GreenYellow; font-size: 70px;'>正确! </span>","null","","","","","","","","","","","","","","","","","","","","","","","feedback_test"
"","","","","","psychophysics","233","707333","0.0-13.0-2.0-1.0-0.0-0.12","643","","j","","","","","","","","","","","","","key","j","16.666742268041226","752","497.3333333333333","j","true","img/T_ambi40.png","三角","simultaneous",""
"","","","","","html-keyboard-response","234","707640","0.0-13.0-2.0-1.0-0.0-1.12","null","<span style='color:GreenYellow; font-size: 70px;'>正确! </span>","null","","","","","","","","","","","","","","","","","","","","","","","feedback_test"
"","","","","","psychophysics","235","709451","0.0-13.0-2.0-1.0-0.0-0.13","795","","j","","","","","","","","","","","","","key","j","16.66698130841093","752","497.3333333333333","j","true","img/C_ambi40.png","圆形","simultaneous",""
"","","","","","html-keyboard-response","236","709759","0.0-13.0-2.0-1.0-0.0-1.13","null","<span style='color:GreenYellow; font-size: 70px;'>正确! </span>","null","","","","","","","","","","","","","","","","","","","","","","","feedback_test"
"","","","","","psychophysics","237","711550","0.0-13.0-2.0-1.0-0.0-0.14","778","","f","","","","","","","","","","","","","key","f","16.665716981131997","752","497.3333333333333","f","true","img/C_ambi40.png","方形","simultaneous",""
"","","","","","html-keyboard-response","238","711865","0.0-13.0-2.0-1.0-0.0-1.14","null","<span style='color:GreenYellow; font-size: 70px;'>正确! </span>","null","","","","","","","","","","","","","","","","","","","","","","","feedback_test"
"","","","","","psychophysics","239","713584","0.0-13.0-2.0-1.0-0.0-0.15","711","","j","","","","","","","","","","","","","key","j","16.66628431372559","752","497.3333333333333","j","true","img/T_ambi40.png","三角","simultaneous",""
"","","","","","html-keyboard-response","240","713893","0.0-13.0-2.0-1.0-0.0-1.15","null","<span style='color:GreenYellow; font-size: 70px;'>正确! </span>","null","","","","","","","","","","","","","","","","","","","","","","","feedback_test"
"","","","","","psychophysics","241","715636","0.0-13.0-2.0-1.0-0.0-0.16","734","","j","","","","","","","","","","","","","key","j","16.666708737863814","752","497.3333333333333","j","true","img/S_ambi40.png","方形","simultaneous",""
"","","","","","html-keyboard-response","242","715950","0.0-13.0-2.0-1.0-0.0-1.16","null","<span style='color:GreenYellow; font-size: 70px;'>正确! </span>","null","","","","","","","","","","","","","","","","","","","","","","","feedback_test"
"","","","","","psychophysics","243","717710","0.0-13.0-2.0-1.0-0.0-0.17","755","","f","","","","","","","","","","","","","key","f","16.666342857143","752","497.3333333333333","f","true","img/C_ambi40.png","三角","simultaneous",""
"","","","","","html-keyboard-response","244","718022","0.0-13.0-2.0-1.0-0.0-1.17","null","<span style='color:GreenYellow; font-size: 70px;'>正确! </span>","null","","","","","","","","","","","","","","","","","","","","","","","feedback_test"
"","","","","","psychophysics","245","719895","0.0-13.0-2.0-1.0-0.0-0.18","870","","f","","","","","","","","","","","","","key","f","16.665315315315105","752","497.3333333333333","f","true","img/T_ambi40.png","方形","simultaneous",""
"","","","","","html-keyboard-response","246","720204","0.0-13.0-2.0-1.0-0.0-1.18","null","<span style='color:GreenYellow; font-size: 70px;'>正确! </span>","null","","","","","","","","","","","","","","","","","","","","","","","feedback_test"
"","","","","","psychophysics","247","721770","0.0-13.0-2.0-1.0-0.0-0.19","564","","j","","","","","","","","","","","","","key","j","16.666597826086218","752","497.3333333333333","j","true","img/C_ambi40.png","圆形","simultaneous",""
"","","","","","html-keyboard-response","248","722083","0.0-13.0-2.0-1.0-0.0-1.19","null","<span style='color:GreenYellow; font-size: 70px;'>正确! </span>","null","","","","","","","","","","","","","","","","","","","","","","","feedback_test"
"","","","","","psychophysics","249","723779","0.0-13.0-2.0-1.0-0.0-0.20","689","","j","","","","","","","","","","","","","key","j","16.565059999999356","752","497.3333333333333","j","true","img/S_ambi40.png","方形","simultaneous",""
"","","","","","html-keyboard-response","250","724088","0.0-13.0-2.0-1.0-0.0-1.20","null","<span style='color:GreenYellow; font-size: 70px;'>正确! </span>","null","","","","","","","","","","","","","","","","","","","","","","","feedback_test"
"","","","","","psychophysics","251","725801","0.0-13.0-2.0-1.0-0.0-0.21","709","","f","","","","","","","","","","","","","key","f","16.667000000000847","752","497.3333333333333","f","true","img/S_ambi40.png","圆形","simultaneous",""
"","","","","","html-keyboard-response","252","726111","0.0-13.0-2.0-1.0-0.0-1.21","null","<span style='color:GreenYellow; font-size: 70px;'>正确! </span>","null","","","","","","","","","","","","","","","","","","","","","","","feedback_test"
"","","","","","psychophysics","253","728017","0.0-13.0-2.0-1.0-0.0-0.22","895","","f","","","","","","","","","","","","","key","f","16.66648672566341","752","497.3333333333333","f","true","img/S_ambi40.png","三角","simultaneous",""
"","","","","","html-keyboard-response","254","728324","0.0-13.0-2.0-1.0-0.0-1.22","null","<span style='color:GreenYellow; font-size: 70px;'>正确! </span>","null","","","","","","","","","","","","","","","","","","","","","","","feedback_test"
"","","","","","psychophysics","255","730056","0.0-13.0-2.0-1.0-0.0-0.23","729","","f","","","","","","","","","","","","","key","f","16.666786407767027","752","497.3333333333333","f","true","img/T_ambi40.png","圆形","simultaneous",""
"","","","","","html-keyboard-response","256","730367","0.0-13.0-2.0-1.0-0.0-1.23","null","<span style='color:GreenYellow; font-size: 70px;'>正确! </span>","null","","","","","","","","","","","","","","","","","","","","","","","feedback_test"
"","","","","","psychophysics","257","732136","0.0-13.0-2.0-1.0-0.0-0.24","761","","j","","","","","","","","","","","","","key","j","16.666419047618373","752","497.3333333333333","j","true","img/C_ambi40.png","圆形","simultaneous",""
"","","","","","html-keyboard-response","258","732451","0.0-13.0-2.0-1.0-0.0-1.24","null","<span style='color:GreenYellow; font-size: 70px;'>正确! </span>","null","","","","","","","","","","","","","","","","","","","","","","","feedback_test"
"","","","","","psychophysics","259","734385","0.0-13.0-2.0-1.0-0.0-0.25","930","","f","","","","","","","","","","","","","key","f","16.66691304347883","752","497.3333333333333","f","true","img/T_ambi40.png","方形","simultaneous",""
"","","","","","html-keyboard-response","260","734696","0.0-13.0-2.0-1.0-0.0-1.25","null","<span style='color:GreenYellow; font-size: 70px;'>正确! </span>","null","","","","","","","","","","","","","","","","","","","","","","","feedback_test"
"","","","","","psychophysics","261","736614","0.0-13.0-2.0-1.0-0.0-0.26","908","","f","","","","","","","","","","","","","key","f","16.66646491228031","752","497.3333333333333","f","true","img/S_ambi40.png","三角","simultaneous",""
"","","","","","html-keyboard-response","262","736925","0.0-13.0-2.0-1.0-0.0-1.26","null","<span style='color:GreenYellow; font-size: 70px;'>正确! </span>","null","","","","","","","","","","","","","","","","","","","","","","","feedback_test"
"","","","","","psychophysics","263","738748","0.0-13.0-2.0-1.0-0.0-0.27","813","","f","","","","","","","","","","","","","key","f","16.66643518518497","752","497.3333333333333","f","true","img/S_ambi40.png","圆形","simultaneous",""
"","","","","","html-keyboard-response","264","739058","0.0-13.0-2.0-1.0-0.0-1.27","null","<span style='color:GreenYellow; font-size: 70px;'>正确! </span>","null","","","","","","","","","","","","","","","","","","","","","","","feedback_test"
"","","","","","psychophysics","265","740718","0.0-13.0-2.0-1.0-0.0-0.28","654","","j","","","","","","","","","","","","","key","j","16.666030612244384","752","497.3333333333333","j","true","img/T_ambi40.png","三角","simultaneous",""
"","","","","","html-keyboard-response","266","741029","0.0-13.0-2.0-1.0-0.0-1.28","null","<span style='color:GreenYellow; font-size: 70px;'>正确! </span>","null","","","","","","","","","","","","","","","","","","","","","","","feedback_test"
"","","","","","psychophysics","267","742713","0.0-13.0-2.0-1.0-0.0-0.29","674","","f","","","","","","","","","","","","","key","f","16.66682999999961","752","497.3333333333333","f","true","img/C_ambi40.png","三角","simultaneous",""
"","","","","","html-keyboard-response","268","743026","0.0-13.0-2.0-1.0-0.0-1.29","null","<span style='color:GreenYellow; font-size: 70px;'>正确! </span>","null","","","","","","","","","","","","","","","","","","","","","","","feedback_test"
"","","","","","psychophysics","269","744986","0.0-13.0-2.0-1.0-0.0-0.30","948","","f","","","","","","","","","","","","","key","f","16.66500000000012","752","497.3333333333333","f","true","img/C_ambi40.png","方形","simultaneous",""
"","","","","","html-keyboard-response","270","745300","0.0-13.0-2.0-1.0-0.0-1.30","null","<span style='color:GreenYellow; font-size: 70px;'>正确! </span>","null","","","","","","","","","","","","","","","","","","","","","","","feedback_test"
"","","","","","psychophysics","271","747125","0.0-13.0-2.0-1.0-0.0-0.31","820","","f","","","","","","","","","","","","","key","f","16.666862385320783","752","497.3333333333333","f","true","img/T_ambi40.png","圆形","simultaneous",""
"","","","","","html-keyboard-response","272","747434","0.0-13.0-2.0-1.0-0.0-1.31","null","<span style='color:GreenYellow; font-size: 70px;'>正确! </span>","null","","","","","","","","","","","","","","","","","","","","","","","feedback_test"
"","","","","","psychophysics","273","749176","0.0-13.0-2.0-1.0-0.0-0.32","737","","j","","","","","","","","","","","","","key","j","16.555349514563115","752","497.3333333333333","j","true","img/S_ambi40.png","方形","simultaneous",""
"","","","","","html-keyboard-response","274","749486","0.0-13.0-2.0-1.0-0.0-1.32","null","<span style='color:GreenYellow; font-size: 70px;'>正确! </span>","null","","","","","","","","","","","","","","","","","","","","","","","feedback_test"
"","","","","","psychophysics","275","751147","0.0-13.0-2.0-1.0-0.0-0.33","659","","j","","","","","","","","","","","","","key","j","16.666316326530602","752","497.3333333333333","j","true","img/C_ambi40.png","圆形","simultaneous",""
"","","","","","html-keyboard-response","276","751458","0.0-13.0-2.0-1.0-0.0-1.33","null","<span style='color:GreenYellow; font-size: 70px;'>正确! </span>","null","","","","","","","","","","","","","","","","","","","","","","","feedback_test"
"","","","","","psychophysics","277","753184","0.0-13.0-2.0-1.0-0.0-0.34","715","","j","","","","","","","","","","","","","key","j","16.66727450980426","752","497.3333333333333","j","true","img/T_ambi40.png","三角","simultaneous",""
"","","","","","html-keyboard-response","278","753495","0.0-13.0-2.0-1.0-0.0-1.34","null","<span style='color:GreenYellow; font-size: 70px;'>正确! </span>","null","","","","","","","","","","","","","","","","","","","","","","","feedback_test"
"","","","","","psychophysics","279","755155","0.0-13.0-2.0-1.0-0.0-0.35","649","","f","","","","","","","","","","","","","key","f","16.665755102041473","752","497.3333333333333","j","false","img/S_ambi40.png","方形","simultaneous",""
"","","","","","html-keyboard-response","280","755466","0.0-13.0-2.0-1.0-0.0-1.35","null","<span style='color:red; font-size: 70px;'>错误! </span>","null","","","","","","","","","","","","","","","","","","","","","","","feedback_test"
"","","","","","psychophysics","281","757175","0.0-13.0-2.0-1.0-0.0-0.36","699","","f","","","","","","","","","","","","","key","f","16.665529411764332","752","497.3333333333333","j","false","img/C_ambi40.png","圆形","simultaneous",""
"","","","","","html-keyboard-response","282","757485","0.0-13.0-2.0-1.0-0.0-1.36","null","<span style='color:red; font-size: 70px;'>错误! </span>","null","","","","","","","","","","","","","","","","","","","","","","","feedback_test"
"","","","","","psychophysics","283","759331","0.0-13.0-2.0-1.0-0.0-0.37","842","","f","","","","","","","","","","","","","key","f","16.547091743119548","752","497.3333333333333","f","true","img/C_ambi40.png","三角","simultaneous",""
"","","","","","html-keyboard-response","284","759650","0.0-13.0-2.0-1.0-0.0-1.37","null","<span style='color:GreenYellow; font-size: 70px;'>正确! </span>","null","","","","","","","","","","","","","","","","","","","","","","","feedback_test"
"","","","","","psychophysics","285","761603","0.0-13.0-2.0-1.0-0.0-0.38","948","","f","","","","","","","","","","","","","key","f","16.66608620689608","752","497.3333333333333","f","true","img/S_ambi40.png","圆形","simultaneous",""
"","","","","","html-keyboard-response","286","761913","0.0-13.0-2.0-1.0-0.0-1.38","null","<span style='color:GreenYellow; font-size: 70px;'>正确! </span>","null","","","","","","","","","","","","","","","","","","","","","","","feedback_test"
"","","","","","psychophysics","287","763708","0.0-13.0-2.0-1.0-0.0-0.39","787","","j","","","","","","","","","","","","","key","j","16.666570093457707","752","497.3333333333333","j","true","img/S_ambi40.png","方形","simultaneous",""
"","","","","","html-keyboard-response","288","764020","0.0-13.0-2.0-1.0-0.0-1.39","null","<span style='color:GreenYellow; font-size: 70px;'>正确! </span>","null","","","","","","","","","","","","","","","","","","","","","","","feedback_test"
"","","","","","psychophysics","289","765864","0.0-13.0-2.0-1.0-0.0-0.40","842","","f","","","","","","","","","","","","","key","f","16.667697247706244","752","497.3333333333333","f","true","img/S_ambi40.png","三角","simultaneous",""
"","","","","","html-keyboard-response","290","766170","0.0-13.0-2.0-1.0-0.0-1.40","null","<span style='color:GreenYellow; font-size: 70px;'>正确! </span>","null","","","","","","","","","","","","","","","","","","","","","","","feedback_test"
"","","","","","psychophysics","291","768019","0.0-13.0-2.0-1.0-0.0-0.41","845","","f","","","","","","","","","","","","","key","f","16.66543119266061","752","497.3333333333333","f","true","img/T_ambi40.png","方形","simultaneous",""
"","","","","","html-keyboard-response","292","768332","0.0-13.0-2.0-1.0-0.0-1.41","null","<span style='color:GreenYellow; font-size: 70px;'>正确! </span>","null","","","","","","","","","","","","","","","","","","","","","","","feedback_test"
"","","","","","psychophysics","293","770237","0.0-13.0-2.0-1.0-0.0-0.42","897","","f","","","","","","","","","","","","","key","f","16.581875000000373","752","497.3333333333333","f","true","img/T_ambi40.png","圆形","simultaneous",""
"","","","","","html-keyboard-response","294","770546","0.0-13.0-2.0-1.0-0.0-1.42","null","<span style='color:GreenYellow; font-size: 70px;'>正确! </span>","null","","","","","","","","","","","","","","","","","","","","","","","feedback_test"
"","","","","","psychophysics","295","772181","0.0-13.0-2.0-1.0-0.0-0.43","626","","j","","","","","","","","","","","","","key","j","16.666773195876548","752","497.3333333333333","j","true","img/C_ambi40.png","圆形","simultaneous",""
"","","","","","html-keyboard-response","296","772489","0.0-13.0-2.0-1.0-0.0-1.43","null","<span style='color:GreenYellow; font-size: 70px;'>正确! </span>","null","","","","","","","","","","","","","","","","","","","","","","","feedback_test"
"","","","","","psychophysics","297","774459","0.0-13.0-2.0-1.0-0.0-0.44","959","","j","","","","","","","","","","","","","key","j","16.66672649572635","752","497.3333333333333","j","true","img/T_ambi40.png","三角","simultaneous",""
"","","","","","html-keyboard-response","298","774768","0.0-13.0-2.0-1.0-0.0-1.44","null","<span style='color:GreenYellow; font-size: 70px;'>正确! </span>","null","","","","","","","","","","","","","","","","","","","","","","","feedback_test"
"","","","","","psychophysics","299","776392","0.0-13.0-2.0-1.0-0.0-0.45","622","","j","","","","","","","","","","","","","key","j","16.666670103092947","752","497.3333333333333","j","true","img/T_ambi40.png","三角","simultaneous",""
"","","","","","html-keyboard-response","300","776699","0.0-13.0-2.0-1.0-0.0-1.45","null","<span style='color:GreenYellow; font-size: 70px;'>正确! </span>","null","","","","","","","","","","","","","","","","","","","","","","","feedback_test"
"","","","","","psychophysics","301","778411","0.0-13.0-2.0-1.0-0.0-0.46","706","","j","","","","","","","","","","","","","key","j","16.666901960784077","752","497.3333333333333","f","false","img/C_ambi40.png","方形","simultaneous",""
"","","","","","html-keyboard-response","302","778722","0.0-13.0-2.0-1.0-0.0-1.46","null","<span style='color:red; font-size: 70px;'>错误! </span>","null","","","","","","","","","","","","","","","","","","","","","","","feedback_test"
"","","","","","psychophysics","303","780798","0.0-13.0-2.0-1.0-0.0-0.47","1063","","j","","","","","","","","","","","","","key","j","16.66644715447153","752","497.3333333333333","j","true","img/S_ambi40.png","方形","simultaneous",""
"","","","","","html-keyboard-response","304","781111","0.0-13.0-2.0-1.0-0.0-1.47","null","<span style='color:GreenYellow; font-size: 70px;'>正确! </span>","null","","","","","","","","","","","","","","","","","","","","","","","feedback_test"
"","","","","","psychophysics","305","782885","0.0-13.0-2.0-1.0-0.0-0.48","764","","j","","","","","","","","","","","","","key","j","16.664076190476216","752","497.3333333333333","f","false","img/S_ambi40.png","圆形","simultaneous",""
"","","","","","html-keyboard-response","306","783197","0.0-13.0-2.0-1.0-0.0-1.48","null","<span style='color:red; font-size: 70px;'>错误! </span>","null","","","","","","","","","","","","","","","","","","","","","","","feedback_test"
"","","","","","psychophysics","307","785231","0.0-13.0-2.0-1.0-0.0-0.49","1026","","f","","","","","","","","","","","","","key","f","16.666942148759947","752","497.3333333333333","f","true","img/T_ambi40.png","圆形","simultaneous",""
"","","","","","html-keyboard-response","308","785535","0.0-13.0-2.0-1.0-0.0-1.49","null","<span style='color:GreenYellow; font-size: 70px;'>正确! </span>","null","","","","","","","","","","","","","","","","","","","","","","","feedback_test"
"","","","","","psychophysics","309","787784","0.0-13.0-2.0-1.0-0.0-0.50","1245","","f","","","","","","","","","","","","","key","f","16.666586466165107","752","497.3333333333333","f","true","img/C_ambi40.png","方形","simultaneous",""
"","","","","","html-keyboard-response","310","788099","0.0-13.0-2.0-1.0-0.0-1.50","null","<span style='color:GreenYellow; font-size: 70px;'>正确! </span>","null","","","","","","","","","","","","","","","","","","","","","","","feedback_test"
"","","","","","psychophysics","311","790215","0.0-13.0-2.0-1.0-0.0-0.51","1114","","j","","","","","","","","","","","","","key","j","16.666785714284902","752","497.3333333333333","j","true","img/S_ambi40.png","方形","simultaneous",""
"","","","","","html-keyboard-response","312","790521","0.0-13.0-2.0-1.0-0.0-1.51","null","<span style='color:GreenYellow; font-size: 70px;'>正确! </span>","null","","","","","","","","","","","","","","","","","","","","","","","feedback_test"
"","","","","","psychophysics","313","792252","0.0-13.0-2.0-1.0-0.0-0.52","729","","j","","","","","","","","","","","","","key","j","16.666294117647624","752","497.3333333333333","j","true","img/T_ambi40.png","三角","simultaneous",""
"","","","","","html-keyboard-response","314","792564","0.0-13.0-2.0-1.0-0.0-1.52","null","<span style='color:GreenYellow; font-size: 70px;'>正确! </span>","null","","","","","","","","","","","","","","","","","","","","","","","feedback_test"
"","","","","","psychophysics","315","794350","0.0-13.0-2.0-1.0-0.0-0.53","778","","f","","","","","","","","","","","","","key","f","16.666716981132268","752","497.3333333333333","f","true","img/C_ambi40.png","三角","simultaneous",""
"","","","","","html-keyboard-response","316","794657","0.0-13.0-2.0-1.0-0.0-1.53","null","<span style='color:GreenYellow; font-size: 70px;'>正确! </span>","null","","","","","","","","","","","","","","","","","","","","","","","feedback_test"
"","","","","","psychophysics","317","796417","0.0-13.0-2.0-1.0-0.0-0.54","747","","j","","","","","","","","","","","","","key","j","16.665778846153096","752","497.3333333333333","j","true","img/S_ambi40.png","方形","simultaneous",""
"","","","","","html-keyboard-response","318","796731","0.0-13.0-2.0-1.0-0.0-1.54","null","<span style='color:GreenYellow; font-size: 70px;'>正确! </span>","null","","","","","","","","","","","","","","","","","","","","","","","feedback_test"
"","","","","","psychophysics","319","798481","0.0-13.0-2.0-1.0-0.0-0.55","743","","j","","","","","","","","","","","","","key","j","16.666490384614846","752","497.3333333333333","j","true","img/T_ambi40.png","三角","simultaneous",""
"","","","","","html-keyboard-response","320","798793","0.0-13.0-2.0-1.0-0.0-1.55","null","<span style='color:GreenYellow; font-size: 70px;'>正确! </span>","null","","","","","","","","","","","","","","","","","","","","","","","feedback_test"
"","","","","","psychophysics","321","800568","0.0-13.0-2.0-1.0-0.0-0.56","764","","f","","","","","","","","","","","","","key","f","16.66610476190468","752","497.3333333333333","f","true","img/S_ambi40.png","三角","simultaneous",""
"","","","","","html-keyboard-response","322","800878","0.0-13.0-2.0-1.0-0.0-1.56","null","<span style='color:GreenYellow; font-size: 70px;'>正确! </span>","null","","","","","","","","","","","","","","","","","","","","","","","feedback_test"
"","","","","","psychophysics","323","802750","0.0-13.0-2.0-1.0-0.0-0.57","862","","f","","","","","","","","","","","","","key","f","16.66637837837832","752","497.3333333333333","f","true","img/T_ambi40.png","方形","simultaneous",""
"","","","","","html-keyboard-response","324","803057","0.0-13.0-2.0-1.0-0.0-1.57","null","<span style='color:GreenYellow; font-size: 70px;'>正确! </span>","null","","","","","","","","","","","","","","","","","","","","","","","feedback_test"
"","","","","","psychophysics","325","804662","0.0-13.0-2.0-1.0-0.0-0.58","589","","j","","","","","","","","","","","","","key","j","16.667536842106156","752","497.3333333333333","j","true","img/C_ambi40.png","圆形","simultaneous",""
"","","","","","html-keyboard-response","326","804969","0.0-13.0-2.0-1.0-0.0-1.58","null","<span style='color:GreenYellow; font-size: 70px;'>正确! </span>","null","","","","","","","","","","","","","","","","","","","","","","","feedback_test"
"","","","","","psychophysics","327","806621","0.0-13.0-2.0-1.0-0.0-0.59","649","","j","","","","","","","","","","","","","key","j","16.665835051546498","752","497.3333333333333","j","true","img/C_ambi40.png","圆形","simultaneous",""
"","","","","","html-keyboard-response","328","806931","0.0-13.0-2.0-1.0-0.0-1.59","null","<span style='color:GreenYellow; font-size: 70px;'>正确! </span>","null","","","","","","","","","","","","","","","","","","","","","","","feedback_test"
"","","","","","html-keyboard-response","329","811531","0.0-13.0-2.0-1.0-1.0","4595","<style>.context{color:white; font-size: 35px; line-height:40px}</style>                            <div><p class='context'>您正确回答了90% 的试次。</p><p class='context'>您的平均反应时为798毫秒。</p><p class='context'>请按任意键进入休息</p></div>"," ","","","","","","","","","","","","","","","","","","","","","","",""
"","","","","","html-button-response","330","866317","0.0-13.0-2.0-1.0-2.0","54773","
                    <p>您当前还剩余3组实验</p>
                    <p>现在是休息时间，当您结束休息后，您可以点击 结束休息 按钮 继续</p>
                    <p>建议休息时间还剩余<span id=""iii"">60</span>秒</p>","0","","","","","","","","","","","","","","","","","","","","","","",""
"","","","","","psychophysics","331","868855","0.0-13.0-2.0-1.0-0.1-0.60","null","","null","","","","","","","","","","","","","key","null","16.666526666667004","752","497.3333333333333","f","false","img/C_ambi40.png","方形","simultaneous",""
"","","","","","html-keyboard-response","332","869170","0.0-13.0-2.0-1.0-0.1-1.60","null","<span class='add_' style='color:yellow; font-size: 70px;'> 太慢! </span>","null","","","","","","","","","","","","","","","","","","","","","","","feedback_test"
"","","","","","psychophysics","333","871674","0.0-13.0-2.0-1.0-0.1-0.61","null","","null","","","","","","","","","","","","","key","null","16.66634228187863","752","497.3333333333333","j","false","img/T_ambi40.png","三角","simultaneous",""
"","","","","","html-keyboard-response","334","871984","0.0-13.0-2.0-1.0-0.1-1.61","null","<span class='add_' style='color:yellow; font-size: 70px;'> 太慢! </span>","null","","","","","","","","","","","","","","","","","","","","","","","feedback_test"
"","","","","","psychophysics","335","873899","0.0-13.0-2.0-1.0-0.1-0.62","912","","f","","","","","","","","","","","","","key","f","16.556911504424622","752","497.3333333333333","f","true","img/C_ambi40.png","三角","simultaneous",""
"","","","","","html-keyboard-response","336","874208","0.0-13.0-2.0-1.0-0.1-1.62","null","<span style='color:GreenYellow; font-size: 70px;'>正确! </span>","null","","","","","","","","","","","","","","","","","","","","","","","feedback_test"
"","","","","","psychophysics","337","875940","0.0-13.0-2.0-1.0-0.1-0.63","725","","j","","","","","","","","","","","","","key","j","16.66633980582554","752","497.3333333333333","j","true","img/S_ambi40.png","方形","simultaneous",""
"","","","","","html-keyboard-response","338","876244","0.0-13.0-2.0-1.0-0.1-1.63","null","<span style='color:GreenYellow; font-size: 70px;'>正确! </span>","null","","","","","","","","","","","","","","","","","","","","","","","feedback_test"
"","","","","","psychophysics","339","877982","0.0-13.0-2.0-1.0-0.1-0.64","729","","j","","","","","","","","","","","","","key","j","16.666786407767027","752","497.3333333333333","j","true","img/T_ambi40.png","三角","simultaneous",""
"","","","","","html-keyboard-response","340","878290","0.0-13.0-2.0-1.0-0.1-1.64","null","<span style='color:GreenYellow; font-size: 70px;'>正确! </span>","null","","","","","","","","","","","","","","","","","","","","","","","feedback_test"
"","","","","","psychophysics","341","879849","0.0-13.0-2.0-1.0-0.1-0.65","549","","j","","","","","","","","","","","","","key","j","16.666793478260566","752","497.3333333333333","j","true","img/C_ambi40.png","圆形","simultaneous",""
"","","","","","html-keyboard-response","342","880152","0.0-13.0-2.0-1.0-0.1-1.65","null","<span style='color:GreenYellow; font-size: 70px;'>正确! </span>","null","","","","","","","","","","","","","","","","","","","","","","","feedback_test"
"","","","","","psychophysics","343","881882","0.0-13.0-2.0-1.0-0.1-0.66","726","","f","","","","","","","","","","","","","key","f","16.666088235294037","752","497.3333333333333","f","true","img/T_ambi40.png","圆形","simultaneous",""
"","","","","","html-keyboard-response","344","882184","0.0-13.0-2.0-1.0-0.1-1.66","null","<span style='color:GreenYellow; font-size: 70px;'>正确! </span>","null","","","","","","","","","","","","","","","","","","","","","","","feedback_test"
"","","","","","psychophysics","345","883826","0.0-13.0-2.0-1.0-0.1-0.67","639","","j","","","","","","","","","","","","","key","j","16.66701020408132","752","497.3333333333333","f","false","img/S_ambi40.png","三角","simultaneous",""
"","","","","","html-keyboard-response","346","884135","0.0-13.0-2.0-1.0-0.1-1.67","null","<span style='color:red; font-size: 70px;'>错误! </span>","null","","","","","","","","","","","","","","","","","","","","","","","feedback_test"
"","","","","","psychophysics","347","885989","0.0-13.0-2.0-1.0-0.1-0.68","850","","j","","","","","","","","","","","","","key","j","16.666339449540693","752","497.3333333333333","j","true","img/S_ambi40.png","方形","simultaneous",""
"","","","","","html-keyboard-response","348","886300","0.0-13.0-2.0-1.0-0.1-1.68","null","<span style='color:GreenYellow; font-size: 70px;'>正确! </span>","null","","","","","","","","","","","","","","","","","","","","","","","feedback_test"
"","","","","","psychophysics","349","887961","0.0-13.0-2.0-1.0-0.1-0.69","657","","f","","","","","","","","","","","","","key","f","16.666525252524416","752","497.3333333333333","f","true","img/T_ambi40.png","方形","simultaneous",""
"","","","","","html-keyboard-response","350","888274","0.0-13.0-2.0-1.0-0.1-1.69","null","<span style='color:GreenYellow; font-size: 70px;'>正确! </span>","null","","","","","","","","","","","","","","","","","","","","","","","feedback_test"
"","","","","","psychophysics","351","890128","0.0-13.0-2.0-1.0-0.1-0.70","846","","f","","","","","","","","","","","","","key","f","16.666272727273064","752","497.3333333333333","f","true","img/S_ambi40.png","圆形","simultaneous",""
"","","","","","html-keyboard-response","352","890446","0.0-13.0-2.0-1.0-0.1-1.70","null","<span style='color:GreenYellow; font-size: 70px;'>正确! </span>","null","","","","","","","","","","","","","","","","","","","","","","","feedback_test"
"","","","","","psychophysics","353","892120","0.0-13.0-2.0-1.0-0.1-0.71","671","","j","","","","","","","","","","","","","key","j","16.66849494949477","752","497.3333333333333","j","true","img/C_ambi40.png","圆形","simultaneous",""
"","","","","","html-keyboard-response","354","892429","0.0-13.0-2.0-1.0-0.1-1.71","null","<span style='color:GreenYellow; font-size: 70px;'>正确! </span>","null","","","","","","","","","","","","","","","","","","","","","","","feedback_test"
"","","","","","psychophysics","355","894153","0.0-13.0-2.0-1.0-0.1-0.72","714","","f","","","","","","","","","","","","","key","f","16.666627450980812","752","497.3333333333333","f","true","img/S_ambi40.png","三角","simultaneous",""
"","","","","","html-keyboard-response","356","894465","0.0-13.0-2.0-1.0-0.1-1.72","null","<span style='color:GreenYellow; font-size: 70px;'>正确! </span>","null","","","","","","","","","","","","","","","","","","","","","","","feedback_test"
"","","","","","psychophysics","357","896156","0.0-13.0-2.0-1.0-0.1-0.73","685","","f","","","","","","","","","","","","","key","f","16.666376237623798","752","497.3333333333333","f","true","img/T_ambi40.png","方形","simultaneous",""
"","","","","","html-keyboard-response","358","896465","0.0-13.0-2.0-1.0-0.1-1.73","null","<span style='color:GreenYellow; font-size: 70px;'>正确! </span>","null","","","","","","","","","","","","","","","","","","","","","","","feedback_test"
"","","","","","psychophysics","359","898136","0.0-13.0-2.0-1.0-0.1-0.74","665","","f","","","","","","","","","","","","","key","f","16.667030303029936","752","497.3333333333333","f","true","img/S_ambi40.png","圆形","simultaneous",""
"","","","","","html-keyboard-response","360","898453","0.0-13.0-2.0-1.0-0.1-1.74","null","<span style='color:GreenYellow; font-size: 70px;'>正确! </span>","null","","","","","","","","","","","","","","","","","","","","","","","feedback_test"
"","","","","","psychophysics","361","900088","0.0-13.0-2.0-1.0-0.1-0.75","632","","j","","","","","","","","","","","","","key","j","16.666802083332488","752","497.3333333333333","j","true","img/T_ambi40.png","三角","simultaneous",""
"","","","","","html-keyboard-response","362","900398","0.0-13.0-2.0-1.0-0.1-1.75","null","<span style='color:GreenYellow; font-size: 70px;'>正确! </span>","null","","","","","","","","","","","","","","","","","","","","","","","feedback_test"
"","","","","","psychophysics","363","902053","0.0-13.0-2.0-1.0-0.1-0.76","649","","f","","","","","","","","","","","","","key","f","16.667438775510053","752","497.3333333333333","f","true","img/T_ambi40.png","圆形","simultaneous",""
"","","","","","html-keyboard-response","364","902361","0.0-13.0-2.0-1.0-0.1-1.76","null","<span style='color:GreenYellow; font-size: 70px;'>正确! </span>","null","","","","","","","","","","","","","","","","","","","","","","","feedback_test"
"","","","","","psychophysics","365","904007","0.0-13.0-2.0-1.0-0.1-0.77","642","","j","","","","","","","","","","","","","key","j","16.668448979590963","752","497.3333333333333","j","true","img/T_ambi40.png","三角","simultaneous",""
"","","","","","html-keyboard-response","366","904312","0.0-13.0-2.0-1.0-0.1-1.77","null","<span style='color:GreenYellow; font-size: 70px;'>正确! </span>","null","","","","","","","","","","","","","","","","","","","","","","","feedback_test"
"","","","","","psychophysics","367","906017","0.0-13.0-2.0-1.0-0.1-0.78","699","","j","","","","","","","","","","","","","key","j","16.66670297029645","752","497.3333333333333","j","true","img/S_ambi40.png","方形","simultaneous",""
"","","","","","html-keyboard-response","368","906326","0.0-13.0-2.0-1.0-0.1-1.78","null","<span style='color:GreenYellow; font-size: 70px;'>正确! </span>","null","","","","","","","","","","","","","","","","","","","","","","","feedback_test"
"","","","","","psychophysics","369","907964","0.0-13.0-2.0-1.0-0.1-0.79","633","","f","","","","","","","","","","","","","key","f","16.66670103092707","752","497.3333333333333","f","true","img/C_ambi40.png","三角","simultaneous",""
"","","","","","html-keyboard-response","370","908278","0.0-13.0-2.0-1.0-0.1-1.79","null","<span style='color:GreenYellow; font-size: 70px;'>正确! </span>","null","","","","","","","","","","","","","","","","","","","","","","","feedback_test"
"","","","","","psychophysics","371","909916","0.0-13.0-2.0-1.0-0.1-0.80","634","","j","","","","","","","","","","","","","key","j","16.665814432990018","752","497.3333333333333","j","true","img/C_ambi40.png","圆形","simultaneous",""
"","","","","","html-keyboard-response","372","910228","0.0-13.0-2.0-1.0-0.1-1.80","null","<span style='color:GreenYellow; font-size: 70px;'>正确! </span>","null","","","","","","","","","","","","","","","","","","","","","","","feedback_test"
"","","","","","psychophysics","373","911917","0.0-13.0-2.0-1.0-0.1-0.81","681","","j","","","","","","","","","","","","","key","j","16.665590000000083","752","497.3333333333333","j","true","img/S_ambi40.png","方形","simultaneous",""
"","","","","","html-keyboard-response","374","912227","0.0-13.0-2.0-1.0-0.1-1.81","null","<span style='color:GreenYellow; font-size: 70px;'>正确! </span>","null","","","","","","","","","","","","","","","","","","","","","","","feedback_test"
"","","","","","psychophysics","375","913854","0.0-13.0-2.0-1.0-0.1-0.82","618","","j","","","","","","","","","","","","","key","j","16.664906250000058","752","497.3333333333333","j","true","img/C_ambi40.png","圆形","simultaneous",""
"","","","","","html-keyboard-response","376","914158","0.0-13.0-2.0-1.0-0.1-1.82","null","<span style='color:GreenYellow; font-size: 70px;'>正确! </span>","null","","","","","","","","","","","","","","","","","","","","","","","feedback_test"
"","","","","","psychophysics","377","915765","0.0-13.0-2.0-1.0-0.1-0.83","602","","j","","","","","","","","","","","","","key","j","16.66642105263094","752","497.3333333333333","f","false","img/C_ambi40.png","方形","simultaneous",""
"","","","","","html-keyboard-response","378","916077","0.0-13.0-2.0-1.0-0.1-1.83","null","<span style='color:red; font-size: 70px;'>错误! </span>","null","","","","","","","","","","","","","","","","","","","","","","","feedback_test"
"","","","","","psychophysics","379","917718","0.0-13.0-2.0-1.0-0.1-0.84","631","","f","","","","","","","","","","","","","key","f","16.666855670102468","752","497.3333333333333","f","true","img/C_ambi40.png","三角","simultaneous",""
"","","","","","html-keyboard-response","380","918033","0.0-13.0-2.0-1.0-0.1-1.84","null","<span style='color:GreenYellow; font-size: 70px;'>正确! </span>","null","","","","","","","","","","","","","","","","","","","","","","","feedback_test"
"","","","","","psychophysics","381","919869","0.0-13.0-2.0-1.0-0.1-0.85","832","","f","","","","","","","","","","","","","key","f","16.55241666666741","752","497.3333333333333","f","true","img/T_ambi40.png","方形","simultaneous",""
"","","","","","html-keyboard-response","382","920181","0.0-13.0-2.0-1.0-0.1-1.85","null","<span style='color:GreenYellow; font-size: 70px;'>正确! </span>","null","","","","","","","","","","","","","","","","","","","","","","","feedback_test"
"","","","","","psychophysics","383","922041","0.0-13.0-2.0-1.0-0.1-0.86","856","","j","","","","","","","","","","","","","key","j","16.665963636363053","752","497.3333333333333","j","true","img/S_ambi40.png","方形","simultaneous",""
"","","","","","html-keyboard-response","384","922352","0.0-13.0-2.0-1.0-0.1-1.86","null","<span style='color:GreenYellow; font-size: 70px;'>正确! </span>","null","","","","","","","","","","","","","","","","","","","","","","","feedback_test"
"","","","","","psychophysics","385","924014","0.0-13.0-2.0-1.0-0.1-0.87","659","","j","","","","","","","","","","","","","key","j","16.650030612244688","752","497.3333333333333","j","true","img/C_ambi40.png","圆形","simultaneous",""
"","","","","","html-keyboard-response","386","924320","0.0-13.0-2.0-1.0-0.1-1.87","null","<span style='color:GreenYellow; font-size: 70px;'>正确! </span>","null","","","","","","","","","","","","","","","","","","","","","","","feedback_test"
"","","","","","psychophysics","387","925944","0.0-13.0-2.0-1.0-0.1-0.88","622","","f","","","","","","","","","","","","","key","f","16.666406249999756","752","497.3333333333333","f","true","img/T_ambi40.png","圆形","simultaneous",""
"","","","","","html-keyboard-response","388","926248","0.0-13.0-2.0-1.0-0.1-1.88","null","<span style='color:GreenYellow; font-size: 70px;'>正确! </span>","null","","","","","","","","","","","","","","","","","","","","","","","feedback_test"
"","","","","","psychophysics","389","927853","0.0-13.0-2.0-1.0-0.1-0.89","600","","j","","","","","","","","","","","","","key","j","16.666399999999587","752","497.3333333333333","j","true","img/T_ambi40.png","三角","simultaneous",""
"","","","","","html-keyboard-response","390","928160","0.0-13.0-2.0-1.0-0.1-1.89","null","<span style='color:GreenYellow; font-size: 70px;'>正确! </span>","null","","","","","","","","","","","","","","","","","","","","","","","feedback_test"
"","","","","","psychophysics","391","929875","0.0-13.0-2.0-1.0-0.1-0.90","705","","f","","","","","","","","","","","","","key","f","16.6657941176467","752","497.3333333333333","f","true","img/S_ambi40.png","圆形","simultaneous",""
"","","","","","html-keyboard-response","392","930185","0.0-13.0-2.0-1.0-0.1-1.90","null","<span style='color:GreenYellow; font-size: 70px;'>正确! </span>","null","","","","","","","","","","","","","","","","","","","","","","","feedback_test"
"","","","","","psychophysics","393","931797","0.0-13.0-2.0-1.0-0.1-0.91","608","","j","","","","","","","","","","","","","key","j","16.668168421052886","752","497.3333333333333","j","true","img/T_ambi40.png","三角","simultaneous",""
"","","","","","html-keyboard-response","394","932106","0.0-13.0-2.0-1.0-0.1-1.91","null","<span style='color:GreenYellow; font-size: 70px;'>正确! </span>","null","","","","","","","","","","","","","","","","","","","","","","","feedback_test"
"","","","","","psychophysics","395","934217","0.0-13.0-2.0-1.0-0.1-0.92","1107","","f","","","","","","","","","","","","","key","f","16.667336000000127","752","497.3333333333333","f","true","img/C_ambi40.png","方形","simultaneous",""
"","","","","","html-keyboard-response","396","934528","0.0-13.0-2.0-1.0-0.1-1.92","null","<span style='color:GreenYellow; font-size: 70px;'>正确! </span>","null","","","","","","","","","","","","","","","","","","","","","","","feedback_test"
"","","","","","psychophysics","397","936358","0.0-13.0-2.0-1.0-0.1-0.93","822","","j","","","","","","","","","","","","","key","j","16.665467889908992","752","497.3333333333333","j","true","img/C_ambi40.png","圆形","simultaneous",""
"","","","","","html-keyboard-response","398","936664","0.0-13.0-2.0-1.0-0.1-1.93","null","<span style='color:GreenYellow; font-size: 70px;'>正确! </span>","null","","","","","","","","","","","","","","","","","","","","","","","feedback_test"
"","","","","","psychophysics","399","938469","0.0-13.0-2.0-1.0-0.1-0.94","803","","j","","","","","","","","","","","","","key","j","16.666140186915904","752","497.3333333333333","j","true","img/S_ambi40.png","方形","simultaneous",""
"","","","","","html-keyboard-response","400","938780","0.0-13.0-2.0-1.0-0.1-1.94","null","<span style='color:GreenYellow; font-size: 70px;'>正确! </span>","null","","","","","","","","","","","","","","","","","","","","","","","feedback_test"
"","","","","","psychophysics","401","940412","0.0-13.0-2.0-1.0-0.1-0.95","625","","f","","","","","","","","","","","","","key","f","16.667041237113192","752","497.3333333333333","f","true","img/S_ambi40.png","三角","simultaneous",""
"","","","","","html-keyboard-response","402","940723","0.0-13.0-2.0-1.0-0.1-1.95","null","<span style='color:GreenYellow; font-size: 70px;'>正确! </span>","null","","","","","","","","","","","","","","","","","","","","","","","feedback_test"
"","","","","","psychophysics","403","942349","0.0-13.0-2.0-1.0-0.1-0.96","618","","f","","","","","","","","","","","","","key","f","16.668343750000833","752","497.3333333333333","f","true","img/C_ambi40.png","三角","simultaneous",""
"","","","","","html-keyboard-response","404","942659","0.0-13.0-2.0-1.0-0.1-1.96","null","<span style='color:GreenYellow; font-size: 70px;'>正确! </span>","null","","","","","","","","","","","","","","","","","","","","","","","feedback_test"
"","","","","","psychophysics","405","944273","0.0-13.0-2.0-1.0-0.1-0.97","605","","j","","","","","","","","","","","","","key","j","16.666406249999756","752","497.3333333333333","f","false","img/S_ambi40.png","三角","simultaneous",""
"","","","","","html-keyboard-response","406","944583","0.0-13.0-2.0-1.0-0.1-1.97","null","<span style='color:red; font-size: 70px;'>错误! </span>","null","","","","","","","","","","","","","","","","","","","","","","","feedback_test"
"","","","","","psychophysics","407","946413","0.0-13.0-2.0-1.0-0.1-0.98","826","","f","","","","","","","","","","","","","key","f","16.66639814814833","752","497.3333333333333","f","true","img/T_ambi40.png","圆形","simultaneous",""
"","","","","","html-keyboard-response","408","946718","0.0-13.0-2.0-1.0-0.1-1.98","null","<span style='color:GreenYellow; font-size: 70px;'>正确! </span>","null","","","","","","","","","","","","","","","","","","","","","","","feedback_test"
"","","","","","psychophysics","409","948502","0.0-13.0-2.0-1.0-0.1-0.99","782","","j","","","","","","","","","","","","","key","j","16.66464761904818","752","497.3333333333333","j","true","img/T_ambi40.png","三角","simultaneous",""
"","","","","","html-keyboard-response","410","948808","0.0-13.0-2.0-1.0-0.1-1.99","null","<span style='color:GreenYellow; font-size: 70px;'>正确! </span>","null","","","","","","","","","","","","","","","","","","","","","","","feedback_test"
"","","","","","psychophysics","411","950461","0.0-13.0-2.0-1.0-0.1-0.100","642","","f","","","","","","","","","","","","","key","f","16.666295918367556","752","497.3333333333333","f","true","img/S_ambi40.png","圆形","simultaneous",""
"","","","","","html-keyboard-response","412","950770","0.0-13.0-2.0-1.0-0.1-1.100","null","<span style='color:GreenYellow; font-size: 70px;'>正确! </span>","null","","","","","","","","","","","","","","","","","","","","","","","feedback_test"
"","","","","","psychophysics","413","952541","0.0-13.0-2.0-1.0-0.1-0.101","768","","j","","","","","","","","","","","","","key","j","16.66702857142802","752","497.3333333333333","j","true","img/S_ambi40.png","方形","simultaneous",""
"","","","","","html-keyboard-response","414","952851","0.0-13.0-2.0-1.0-0.1-1.101","null","<span style='color:GreenYellow; font-size: 70px;'>正确! </span>","null","","","","","","","","","","","","","","","","","","","","","","","feedback_test"
"","","","","","psychophysics","415","955068","0.0-13.0-2.0-1.0-0.1-0.102","1214","","j","","","","","","","","","","","","","key","j","16.666146153846505","752","497.3333333333333","j","true","img/T_ambi40.png","三角","simultaneous",""
"","","","","","html-keyboard-response","416","955378","0.0-13.0-2.0-1.0-0.1-1.102","null","<span style='color:GreenYellow; font-size: 70px;'>正确! </span>","null","","","","","","","","","","","","","","","","","","","","","","","feedback_test"
"","","","","","psychophysics","417","957100","0.0-13.0-2.0-1.0-0.1-0.103","718","","j","","","","","","","","","","","","","key","j","16.666539215685926","752","497.3333333333333","j","true","img/C_ambi40.png","圆形","simultaneous",""
"","","","","","html-keyboard-response","418","957409","0.0-13.0-2.0-1.0-0.1-1.103","null","<span style='color:GreenYellow; font-size: 70px;'>正确! </span>","null","","","","","","","","","","","","","","","","","","","","","","","feedback_test"
"","","","","","psychophysics","419","959148","0.0-13.0-2.0-1.0-0.1-0.104","730","","f","","","","","","","","","","","","","key","f","16.665873786407406","752","497.3333333333333","f","true","img/C_ambi40.png","方形","simultaneous",""
"","","","","","html-keyboard-response","420","959457","0.0-13.0-2.0-1.0-0.1-1.104","null","<span style='color:GreenYellow; font-size: 70px;'>正确! </span>","null","","","","","","","","","","","","","","","","","","","","","","","feedback_test"
