"success","timeout","failed_images","failed_audio","failed_video","trial_type","trial_index","time_elapsed","internal_node_id","rt","stimulus","response","value","item_width_mm","item_height_mm","item_width_px","px2mm","view_dist_mm","item_width_deg","px2deg","scale_factor","win_width_deg","win_height_deg","view_history","response_type","key_press","avg_frame_time","center_x","center_y","correct_response","correct","Image","word","condition","screen_id"
"true","false","[]","[]","[]","preload","0","14978","0.0-0.0","","","","","","","","","","","","","","","","","","","","","","","","","",""
"","","","","","html-keyboard-response","1","25532","0.0-1.0","10553","
   <p>您好，欢迎参加本次实验。</p>
   <p>为充分保障您的权利，请确保您已经知晓并同意《参与实验同意书》以及《数据公开知情同意书》。</p>
   <p>如果您未见过上述内容，请咨询实验员。</p>
   <p>如果您选择继续实验，则表示您已经清楚两份知情同意书的内容并同意。</p>
   <p> <div style = ""color: green""><按任意键至下页></div> </p>
   "," ","","","","","","","","","","","","","","","","","","","","","","",""
"","","","","","html-keyboard-response","2","26824","0.0-2.0","1292","
   <p>本实验首先需要您填写一些基本个人信息。</p>
   <p> <div style = ""color: green""><按任意键至下页></div></p>
   "," ","","","","","","","","","","","","","","","","","","","","","","",""
"","","","","","call-function","3","26826","0.0-3.0-0.0","","","","","","","","","","","","","","","","","","","","","","","","","",""
"","","","","","survey-html-form","4","32880","0.0-3.0-1.0","6050","","{""Q0"":""40""}","","","","","","","","","","","","","","","","","","","","","","",""
"","","","","","html-button-response","5","34233","0.0-3.0-2.0","1351","<p style = 'color : white'>您的性别</p>","0","","","","","","","","","","","","","","","","","","","","","","",""
"","","","","","survey-html-form","6","41344","0.0-3.0-3.0","7108","","{""Q0"":""2001""}","","","","","","","","","","","","","","","","","","","","","","",""
"","","","","","survey-html-form","7","45800","0.0-3.0-4.0","4455","","{""Q0"":""5""}","","","","","","","","","","","","","","","","","","","","","","",""
"","","","","","virtual-chinrest","8","203513","0.0-4.0","157710","","","","85.6","53.98","580.668122992362","6.778614998022424","420.87","11.61336245984724","50","0.8025238196279111","30.72","14.28","","","","","","","","","","","",""
"true","","","","","fullscreen","9","208011","0.0-5.0","","","","","","","","","","","","","","","","","","","","","","","","","",""
"","","","","","instructions","10","252864","0.0-6.0","44852","","","","","","","","","","","","","","[{""page_index"":0,""viewing_time"":4877},{""page_index"":1,""viewing_time"":32664},{""page_index"":2,""viewing_time"":4992},{""page_index"":3,""viewing_time"":2320}]","","","","","","","","","","",""
"","","","","","psychophysics","11","255532","0.0-7.0-0.0-0.0","null","","null","","","","","","","","","","","","","key","null","16.657289308176228","768","428","j","false","img/C_ambi40.png","方形","prac_image_first",""
"","","","","","html-keyboard-response","12","255834","0.0-7.0-0.0-1.0","null","<span class='add_' style='color:yellow; font-size: 70px;'> 太慢! </span>","null","","","","","","","","","","","","","","","","","","","","","","","feedback_test"
"","","","","","psychophysics","13","258106","0.0-7.0-0.0-0.1","1120","","j","","","","","","","","","","","","","key","j","16.659838235294206","768","428","f","false","img/T_ambi40.png","三角","prac_image_first",""
"","","","","","html-keyboard-response","14","258417","0.0-7.0-0.0-1.1","null","<span style='color:red; font-size: 70px;'>错误! </span>","null","","","","","","","","","","","","","","","","","","","","","","","feedback_test"
"","","","","","psychophysics","15","260670","0.0-7.0-0.0-0.2","1102","","f","","","","","","","","","","","","","key","f","16.561604477611542","768","428","f","true","img/T_ambi40.png","三角","prac_image_first",""
"","","","","","html-keyboard-response","16","260982","0.0-7.0-0.0-1.2","null","<span style='color:GreenYellow; font-size: 70px;'>正确! </span>","null","","","","","","","","","","","","","","","","","","","","","","","feedback_test"
"","","","","","psychophysics","17","262858","0.0-7.0-0.0-0.3","726","","f","","","","","","","","","","","","","key","f","16.659821428571636","768","428","f","true","img/C_ambi40.png","圆形","prac_image_first",""
"","","","","","html-keyboard-response","18","263171","0.0-7.0-0.0-1.3","null","<span style='color:GreenYellow; font-size: 70px;'>正确! </span>","null","","","","","","","","","","","","","","","","","","","","","","","feedback_test"
"","","","","","psychophysics","19","265381","0.0-7.0-0.0-0.4","1059","","j","","","","","","","","","","","","","key","j","16.65578625954195","768","428","j","true","img/S_ambi40.png","圆形","prac_image_first",""
"","","","","","html-keyboard-response","20","265697","0.0-7.0-0.0-1.4","null","<span style='color:GreenYellow; font-size: 70px;'>正确! </span>","null","","","","","","","","","","","","","","","","","","","","","","","feedback_test"
"","","","","","psychophysics","21","267596","0.0-7.0-0.0-0.5","748","","j","","","","","","","","","","","","","key","j","16.663194690265414","768","428","j","true","img/T_ambi40.png","圆形","prac_image_first",""
"","","","","","html-keyboard-response","22","267909","0.0-7.0-0.0-1.5","null","<span style='color:GreenYellow; font-size: 70px;'>正确! </span>","null","","","","","","","","","","","","","","","","","","","","","","","feedback_test"
"","","","","","psychophysics","23","269852","0.0-7.0-0.0-0.6","791","","f","","","","","","","","","","","","","key","f","16.658913793103018","768","428","f","true","img/S_ambi40.png","方形","prac_image_first",""
"","","","","","html-keyboard-response","24","270165","0.0-7.0-0.0-1.6","null","<span style='color:GreenYellow; font-size: 70px;'>正确! </span>","null","","","","","","","","","","","","","","","","","","","","","","","feedback_test"
"","","","","","psychophysics","25","272057","0.0-7.0-0.0-0.7","741","","f","","","","","","","","","","","","","key","f","16.660473214285698","768","428","f","true","img/S_ambi40.png","方形","prac_image_first",""
"","","","","","html-keyboard-response","26","272361","0.0-7.0-0.0-1.7","null","<span style='color:GreenYellow; font-size: 70px;'>正确! </span>","null","","","","","","","","","","","","","","","","","","","","","","","feedback_test"
"","","","","","psychophysics","27","274228","0.0-7.0-0.0-0.8","716","","j","","","","","","","","","","","","","key","j","16.542445454545405","768","428","j","true","img/S_ambi40.png","三角","prac_image_first",""
"","","","","","html-keyboard-response","28","274539","0.0-7.0-0.0-1.8","null","<span style='color:GreenYellow; font-size: 70px;'>正确! </span>","null","","","","","","","","","","","","","","","","","","","","","","","feedback_test"
"","","","","","psychophysics","29","276521","0.0-7.0-0.0-0.9","831","","j","","","","","","","","","","","","","key","j","16.66312711864416","768","428","f","false","img/C_ambi40.png","圆形","prac_image_first",""
"","","","","","html-keyboard-response","30","276836","0.0-7.0-0.0-1.9","null","<span style='color:red; font-size: 70px;'>错误! </span>","null","","","","","","","","","","","","","","","","","","","","","","","feedback_test"
"","","","","","psychophysics","31","278927","0.0-7.0-0.0-0.10","939","","f","","","","","","","","","","","","","key","f","16.65923999999976","768","428","j","false","img/T_ambi40.png","方形","prac_image_first",""
"","","","","","html-keyboard-response","32","279235","0.0-7.0-0.0-1.10","null","<span style='color:red; font-size: 70px;'>错误! </span>","null","","","","","","","","","","","","","","","","","","","","","","","feedback_test"
"","","","","","psychophysics","33","281074","0.0-7.0-0.0-0.11","688","","j","","","","","","","","","","","","","key","j","16.663045871559607","768","428","j","true","img/C_ambi40.png","三角","prac_image_first",""
"","","","","","html-keyboard-response","34","281378","0.0-7.0-0.0-1.11","null","<span style='color:GreenYellow; font-size: 70px;'>正确! </span>","null","","","","","","","","","","","","","","","","","","","","","","","feedback_test"
"","","","","","psychophysics","35","283182","0.0-7.0-0.0-0.12","652","","j","","","","","","","","","","","","","key","j","16.659607476635323","768","428","j","true","img/T_ambi40.png","圆形","prac_image_first",""
"","","","","","html-keyboard-response","36","283485","0.0-7.0-0.0-1.12","null","<span style='color:GreenYellow; font-size: 70px;'>正确! </span>","null","","","","","","","","","","","","","","","","","","","","","","","feedback_test"
"","","","","","psychophysics","37","285321","0.0-7.0-0.0-0.13","685","","j","","","","","","","","","","","","","key","j","16.657073394495807","768","428","j","true","img/C_ambi40.png","方形","prac_image_first",""
"","","","","","html-keyboard-response","38","285624","0.0-7.0-0.0-1.13","null","<span style='color:GreenYellow; font-size: 70px;'>正确! </span>","null","","","","","","","","","","","","","","","","","","","","","","","feedback_test"
"","","","","","psychophysics","39","287428","0.0-7.0-0.0-0.14","652","","j","","","","","","","","","","","","","key","j","16.65914018691635","768","428","j","true","img/S_ambi40.png","圆形","prac_image_first",""
"","","","","","html-keyboard-response","40","287732","0.0-7.0-0.0-1.14","null","<span style='color:GreenYellow; font-size: 70px;'>正确! </span>","null","","","","","","","","","","","","","","","","","","","","","","","feedback_test"
"","","","","","psychophysics","41","289559","0.0-7.0-0.0-0.15","676","","f","","","","","","","","","","","","","key","f","16.659862385320995","768","428","f","true","img/T_ambi40.png","三角","prac_image_first",""
"","","","","","html-keyboard-response","42","289868","0.0-7.0-0.0-1.15","null","<span style='color:GreenYellow; font-size: 70px;'>正确! </span>","null","","","","","","","","","","","","","","","","","","","","","","","feedback_test"
"","","","","","psychophysics","43","291895","0.0-7.0-0.0-0.16","876","","j","","","","","","","","","","","","","key","j","16.659628099173574","768","428","j","true","img/S_ambi40.png","三角","prac_image_first",""
"","","","","","html-keyboard-response","44","292197","0.0-7.0-0.0-1.16","null","<span style='color:GreenYellow; font-size: 70px;'>正确! </span>","null","","","","","","","","","","","","","","","","","","","","","","","feedback_test"
"","","","","","psychophysics","45","294431","0.0-7.0-0.0-0.17","1081","","j","","","","","","","","","","","","","key","j","16.65984962406022","768","428","f","false","img/C_ambi40.png","圆形","prac_image_first",""
"","","","","","html-keyboard-response","46","294746","0.0-7.0-0.0-1.17","null","<span style='color:red; font-size: 70px;'>错误! </span>","null","","","","","","","","","","","","","","","","","","","","","","","feedback_test"
"","","","","","psychophysics","47","296911","0.0-7.0-0.0-0.18","1012","","f","","","","","","","","","","","","","key","f","16.66256589147302","768","428","f","true","img/T_ambi40.png","三角","prac_image_first",""
"","","","","","html-keyboard-response","48","297222","0.0-7.0-0.0-1.18","null","<span style='color:GreenYellow; font-size: 70px;'>正确! </span>","null","","","","","","","","","","","","","","","","","","","","","","","feedback_test"
"","","","","","psychophysics","49","299042","0.0-7.0-0.0-0.19","668","","j","","","","","","","","","","","","","key","j","16.65802777777814","768","428","j","true","img/C_ambi40.png","三角","prac_image_first",""
"","","","","","html-keyboard-response","50","299354","0.0-7.0-0.0-1.19","null","<span style='color:GreenYellow; font-size: 70px;'>正确! </span>","null","","","","","","","","","","","","","","","","","","","","","","","feedback_test"
"","","","","","psychophysics","51","301188","0.0-7.0-0.0-0.20","683","","f","","","","","","","","","","","","","key","f","16.65408256880719","768","428","f","true","img/C_ambi40.png","圆形","prac_image_first",""
"","","","","","html-keyboard-response","52","301499","0.0-7.0-0.0-1.20","null","<span style='color:GreenYellow; font-size: 70px;'>正确! </span>","null","","","","","","","","","","","","","","","","","","","","","","","feedback_test"
"","","","","","psychophysics","53","303501","0.0-7.0-0.0-0.21","850","","f","","","","","","","","","","","","","key","f","16.661672268907576","768","428","f","true","img/S_ambi40.png","方形","prac_image_first",""
"","","","","","html-keyboard-response","54","303810","0.0-7.0-0.0-1.21","null","<span style='color:GreenYellow; font-size: 70px;'>正确! </span>","null","","","","","","","","","","","","","","","","","","","","","","","feedback_test"
"","","","","","psychophysics","55","305707","0.0-7.0-0.0-0.22","745","","f","","","","","","","","","","","","","key","f","16.661796460176955","768","428","f","true","img/S_ambi40.png","方形","prac_image_first",""
"","","","","","html-keyboard-response","56","306021","0.0-7.0-0.0-1.22","null","<span style='color:GreenYellow; font-size: 70px;'>正确! </span>","null","","","","","","","","","","","","","","","","","","","","","","","feedback_test"
"","","","","","psychophysics","57","308145","0.0-7.0-0.0-0.23","972","","j","","","","","","","","","","","","","key","j","16.654293650794045","768","428","j","true","img/T_ambi40.png","方形","prac_image_first",""
"","","","","","html-keyboard-response","58","308454","0.0-7.0-0.0-1.23","null","<span style='color:GreenYellow; font-size: 70px;'>正确! </span>","null","","","","","","","","","","","","","","","","","","","","","","","feedback_test"
"","","","","","html-keyboard-response","59","312898","0.0-8.0","4442","<style>.context{color:white; font-size: 35px; line-height:40px}</style>                            <div><p class='context'>您正确回答了79% 的试次。</p><p class='context'>您的平均反应时为792毫秒。</p><p class='context'>恭喜您完成这一阶段的练习。按任意键进入<span style='color: yellow;'>先文字后图形条件</span>的练习。</p></div>"," ","","","","","","","","","","","","","","","","","","","","","","",""
"","","","","","psychophysics","60","315257","0.0-9.0-0.0-0.0","1205","","j","","","","","","","","","","","","","key","j","16.659307142857244","768","428","j","true","img/S_ambi40.png","三角","prac_word_first",""
"","","","","","html-keyboard-response","61","315558","0.0-9.0-0.0-1.0","null","<span style='color:GreenYellow; font-size: 70px;'>正确! </span>","null","","","","","","","","","","","","","","","","","","","","","","","feedback_test"
"","","","","","psychophysics","62","317604","0.0-9.0-0.0-0.1","895","","f","","","","","","","","","","","","","key","f","16.54480165289282","768","428","f","true","img/S_ambi40.png","方形","prac_word_first",""
"","","","","","html-keyboard-response","63","317918","0.0-9.0-0.0-1.1","null","<span style='color:GreenYellow; font-size: 70px;'>正确! </span>","null","","","","","","","","","","","","","","","","","","","","","","","feedback_test"
"","","","","","psychophysics","64","319802","0.0-9.0-0.0-0.2","732","","f","","","","","","","","","","","","","key","f","16.65896428571432","768","428","f","true","img/C_ambi40.png","圆形","prac_word_first",""
"","","","","","html-keyboard-response","65","320118","0.0-9.0-0.0-1.2","null","<span style='color:GreenYellow; font-size: 70px;'>正确! </span>","null","","","","","","","","","","","","","","","","","","","","","","","feedback_test"
"","","","","","psychophysics","66","321906","0.0-9.0-0.0-0.3","637","","f","","","","","","","","","","","","","key","f","16.659688679244972","768","428","f","true","img/S_ambi40.png","方形","prac_word_first",""
"","","","","","html-keyboard-response","67","322216","0.0-9.0-0.0-1.3","null","<span style='color:GreenYellow; font-size: 70px;'>正确! </span>","null","","","","","","","","","","","","","","","","","","","","","","","feedback_test"
"","","","","","psychophysics","68","324082","0.0-9.0-0.0-0.4","713","","j","","","","","","","","","","","","","key","j","16.6646216216215","768","428","j","true","img/S_ambi40.png","圆形","prac_word_first",""
"","","","","","html-keyboard-response","69","324392","0.0-9.0-0.0-1.4","null","<span style='color:GreenYellow; font-size: 70px;'>正确! </span>","null","","","","","","","","","","","","","","","","","","","","","","","feedback_test"
"","","","","","psychophysics","70","326212","0.0-9.0-0.0-0.5","669","","j","","","","","","","","","","","","","key","j","16.65428703703704","768","428","j","true","img/C_ambi40.png","方形","prac_word_first",""
"","","","","","html-keyboard-response","71","326514","0.0-9.0-0.0-1.5","null","<span style='color:GreenYellow; font-size: 70px;'>正确! </span>","null","","","","","","","","","","","","","","","","","","","","","","","feedback_test"
"","","","","","psychophysics","72","328411","0.0-9.0-0.0-0.6","745","","f","","","","","","","","","","","","","key","f","16.65852212389381","768","428","f","true","img/C_ambi40.png","圆形","prac_word_first",""
"","","","","","html-keyboard-response","73","328712","0.0-9.0-0.0-1.6","null","<span style='color:GreenYellow; font-size: 70px;'>正确! </span>","null","","","","","","","","","","","","","","","","","","","","","","","feedback_test"
"","","","","","psychophysics","74","330462","0.0-9.0-0.0-0.7","592","","f","","","","","","","","","","","","","key","f","16.664442307692436","768","428","f","true","img/T_ambi40.png","三角","prac_word_first",""
"","","","","","html-keyboard-response","75","330771","0.0-9.0-0.0-1.7","null","<span style='color:GreenYellow; font-size: 70px;'>正确! </span>","null","","","","","","","","","","","","","","","","","","","","","","","feedback_test"
"","","","","","psychophysics","76","332538","0.0-9.0-0.0-0.8","616","","f","","","","","","","","","","","","","key","f","16.661809523809435","768","428","f","true","img/T_ambi40.png","三角","prac_word_first",""
"","","","","","html-keyboard-response","77","332848","0.0-9.0-0.0-1.8","null","<span style='color:GreenYellow; font-size: 70px;'>正确! </span>","null","","","","","","","","","","","","","","","","","","","","","","","feedback_test"
"","","","","","psychophysics","78","334606","0.0-9.0-0.0-0.9","606","","j","","","","","","","","","","","","","key","j","16.659695238095065","768","428","j","true","img/C_ambi40.png","三角","prac_word_first",""
"","","","","","html-keyboard-response","79","334920","0.0-9.0-0.0-1.9","null","<span style='color:GreenYellow; font-size: 70px;'>正确! </span>","null","","","","","","","","","","","","","","","","","","","","","","","feedback_test"
"","","","","","psychophysics","80","336796","0.0-9.0-0.0-0.10","725","","j","","","","","","","","","","","","","key","j","16.65807207207183","768","428","j","true","img/T_ambi40.png","圆形","prac_word_first",""
"","","","","","html-keyboard-response","81","337097","0.0-9.0-0.0-1.10","null","<span style='color:GreenYellow; font-size: 70px;'>正确! </span>","null","","","","","","","","","","","","","","","","","","","","","","","feedback_test"
"","","","","","psychophysics","82","339547","0.0-9.0-0.0-0.11","1298","","j","","","","","","","","","","","","","key","j","16.660095890411032","768","428","j","true","img/T_ambi40.png","方形","prac_word_first",""
"","","","","","html-keyboard-response","83","339850","0.0-9.0-0.0-1.11","null","<span style='color:GreenYellow; font-size: 70px;'>正确! </span>","null","","","","","","","","","","","","","","","","","","","","","","","feedback_test"
"","","","","","psychophysics","84","342083","0.0-9.0-0.0-0.12","1081","","f","","","","","","","","","","","","","key","f","16.656270676692056","768","428","f","true","img/S_ambi40.png","方形","prac_word_first",""
"","","","","","html-keyboard-response","85","342389","0.0-9.0-0.0-1.12","null","<span style='color:GreenYellow; font-size: 70px;'>正确! </span>","null","","","","","","","","","","","","","","","","","","","","","","","feedback_test"
"","","","","","psychophysics","86","344186","0.0-9.0-0.0-0.13","641","","j","","","","","","","","","","","","","key","j","16.655532710280305","768","428","j","true","img/S_ambi40.png","三角","prac_word_first",""
"","","","","","html-keyboard-response","87","344488","0.0-9.0-0.0-1.13","null","<span style='color:GreenYellow; font-size: 70px;'>正确! </span>","null","","","","","","","","","","","","","","","","","","","","","","","feedback_test"
"","","","","","psychophysics","88","346330","0.0-9.0-0.0-0.14","690","","j","","","","","","","","","","","","","key","j","16.655072727272902","768","428","j","true","img/T_ambi40.png","圆形","prac_word_first",""
"","","","","","html-keyboard-response","89","346633","0.0-9.0-0.0-1.14","null","<span style='color:GreenYellow; font-size: 70px;'>正确! </span>","null","","","","","","","","","","","","","","","","","","","","","","","feedback_test"
"","","","","","psychophysics","90","348354","0.0-9.0-0.0-0.15","568","","f","","","","","","","","","","","","","key","f","16.659205882352953","768","428","f","true","img/C_ambi40.png","圆形","prac_word_first",""
"","","","","","html-keyboard-response","91","348657","0.0-9.0-0.0-1.15","null","<span style='color:GreenYellow; font-size: 70px;'>正确! </span>","null","","","","","","","","","","","","","","","","","","","","","","","feedback_test"
"","","","","","psychophysics","92","350484","0.0-9.0-0.0-0.16","674","","j","","","","","","","","","","","","","key","j","16.659990825688194","768","428","j","true","img/S_ambi40.png","圆形","prac_word_first",""
"","","","","","html-keyboard-response","93","350794","0.0-9.0-0.0-1.16","null","<span style='color:GreenYellow; font-size: 70px;'>正确! </span>","null","","","","","","","","","","","","","","","","","","","","","","","feedback_test"
"","","","","","psychophysics","94","352625","0.0-9.0-0.0-0.17","680","","j","","","","","","","","","","","","","key","j","16.658666666666655","768","428","j","true","img/C_ambi40.png","方形","prac_word_first",""
"","","","","","html-keyboard-response","95","352926","0.0-9.0-0.0-1.17","null","<span style='color:GreenYellow; font-size: 70px;'>正确! </span>","null","","","","","","","","","","","","","","","","","","","","","","","feedback_test"
"","","","","","psychophysics","96","354785","0.0-9.0-0.0-0.18","708","","f","","","","","","","","","","","","","key","f","16.659136363636406","768","428","f","true","img/C_ambi40.png","圆形","prac_word_first",""
"","","","","","html-keyboard-response","97","355091","0.0-9.0-0.0-1.18","null","<span style='color:GreenYellow; font-size: 70px;'>正确! </span>","null","","","","","","","","","","","","","","","","","","","","","","","feedback_test"
"","","","","","psychophysics","98","356834","0.0-9.0-0.0-0.19","590","","f","","","","","","","","","","","","","key","f","16.66169902912592","768","428","f","true","img/T_ambi40.png","三角","prac_word_first",""
"","","","","","html-keyboard-response","99","357145","0.0-9.0-0.0-1.19","null","<span style='color:GreenYellow; font-size: 70px;'>正确! </span>","null","","","","","","","","","","","","","","","","","","","","","","","feedback_test"
"","","","","","psychophysics","100","358866","0.0-9.0-0.0-0.20","570","","f","","","","","","","","","","","","","key","f","16.66479411764714","768","428","f","true","img/S_ambi40.png","方形","prac_word_first",""
"","","","","","html-keyboard-response","101","359178","0.0-9.0-0.0-1.20","null","<span style='color:GreenYellow; font-size: 70px;'>正确! </span>","null","","","","","","","","","","","","","","","","","","","","","","","feedback_test"
"","","","","","psychophysics","102","360934","0.0-9.0-0.0-0.21","601","","f","","","","","","","","","","","","","key","f","16.66523076923085","768","428","f","true","img/T_ambi40.png","三角","prac_word_first",""
"","","","","","html-keyboard-response","103","361242","0.0-9.0-0.0-1.21","null","<span style='color:GreenYellow; font-size: 70px;'>正确! </span>","null","","","","","","","","","","","","","","","","","","","","","","","feedback_test"
"","","","","","psychophysics","104","362937","0.0-9.0-0.0-0.22","544","","j","","","","","","","","","","","","","key","j","16.653580000000076","768","428","j","true","img/C_ambi40.png","三角","prac_word_first",""
"","","","","","html-keyboard-response","105","363247","0.0-9.0-0.0-1.22","null","<span style='color:GreenYellow; font-size: 70px;'>正确! </span>","null","","","","","","","","","","","","","","","","","","","","","","","feedback_test"
"","","","","","psychophysics","106","365383","0.0-9.0-0.0-0.23","985","","j","","","","","","","","","","","","","key","j","16.65562204724383","768","428","j","true","img/T_ambi40.png","方形","prac_word_first",""
"","","","","","html-keyboard-response","107","365684","0.0-9.0-0.0-1.23","null","<span style='color:GreenYellow; font-size: 70px;'>正确! </span>","null","","","","","","","","","","","","","","","","","","","","","","","feedback_test"
"","","","","","html-keyboard-response","108","371741","0.0-10.0","6055","<style>.context{color:white; font-size: 35px; line-height:40px}</style>                            <div><p class='context'>您正确回答了100% 的试次。</p><p class='context'>您的平均反应时为740毫秒。</p><p class='context'>恭喜您完成练习。按任意键进入<span style='color: yellow;'>图形和文字同时呈现条件</span>的练习。</p></div>"," ","","","","","","","","","","","","","","","","","","","","","","",""
"","","","","","psychophysics","109","374247","0.0-11.0-0.0-0.0","null","","null","","","","","","","","","","","","","key","null","16.658986577181295","768","428","j","false","img/C_ambi40.png","方形","prac_simultaneous",""
"","","","","","html-keyboard-response","110","374562","0.0-11.0-0.0-1.0","null","<span class='add_' style='color:yellow; font-size: 70px;'> 太慢! </span>","null","","","","","","","","","","","","","","","","","","","","","","","feedback_test"
"","","","","","psychophysics","111","376414","0.0-11.0-0.0-0.1","851","","j","","","","","","","","","","","","","key","j","16.65869090909096","768","428","j","true","img/S_ambi40.png","三角","prac_simultaneous",""
"","","","","","html-keyboard-response","112","376727","0.0-11.0-0.0-1.1","null","<span style='color:GreenYellow; font-size: 70px;'>正确! </span>","null","","","","","","","","","","","","","","","","","","","","","","","feedback_test"
"","","","","","psychophysics","113","378467","0.0-11.0-0.0-0.2","737","","j","","","","","","","","","","","","","key","j","16.666730769230455","768","428","j","true","img/S_ambi40.png","圆形","prac_simultaneous",""
"","","","","","html-keyboard-response","114","378783","0.0-11.0-0.0-1.2","null","<span style='color:GreenYellow; font-size: 70px;'>正确! </span>","null","","","","","","","","","","","","","","","","","","","","","","","feedback_test"
"","","","","","psychophysics","115","380880","0.0-11.0-0.0-0.3","1095","","j","","","","","","","","","","","","","key","j","16.658346774193625","768","428","j","true","img/T_ambi40.png","圆形","prac_simultaneous",""
"","","","","","html-keyboard-response","116","381184","0.0-11.0-0.0-1.3","null","<span style='color:GreenYellow; font-size: 70px;'>正确! </span>","null","","","","","","","","","","","","","","","","","","","","","","","feedback_test"
"","","","","","psychophysics","117","382921","0.0-11.0-0.0-0.4","724","","f","","","","","","","","","","","","","key","f","16.662582524271695","768","428","f","true","img/S_ambi40.png","方形","prac_simultaneous",""
"","","","","","html-keyboard-response","118","383225","0.0-11.0-0.0-1.4","null","<span style='color:GreenYellow; font-size: 70px;'>正确! </span>","null","","","","","","","","","","","","","","","","","","","","","","","feedback_test"
"","","","","","psychophysics","119","385058","0.0-11.0-0.0-0.5","830","","f","","","","","","","","","","","","","key","f","16.656467889908193","768","428","f","true","img/T_ambi40.png","三角","prac_simultaneous",""
"","","","","","html-keyboard-response","120","385373","0.0-11.0-0.0-1.5","null","<span style='color:GreenYellow; font-size: 70px;'>正确! </span>","null","","","","","","","","","","","","","","","","","","","","","","","feedback_test"
"","","","","","psychophysics","121","387094","0.0-11.0-0.0-0.6","720","","f","","","","","","","","","","","","","key","f","16.656166666666703","768","428","f","true","img/C_ambi40.png","圆形","prac_simultaneous",""
"","","","","","html-keyboard-response","122","387409","0.0-11.0-0.0-1.6","null","<span style='color:GreenYellow; font-size: 70px;'>正确! </span>","null","","","","","","","","","","","","","","","","","","","","","","","feedback_test"
"","","","","","psychophysics","123","389294","0.0-11.0-0.0-0.7","882","","j","","","","","","","","","","","","","key","j","16.659345132743823","768","428","j","true","img/T_ambi40.png","方形","prac_simultaneous",""
"","","","","","html-keyboard-response","124","389601","0.0-11.0-0.0-1.7","null","<span style='color:GreenYellow; font-size: 70px;'>正确! </span>","null","","","","","","","","","","","","","","","","","","","","","","","feedback_test"
"","","","","","psychophysics","125","391406","0.0-11.0-0.0-0.8","803","","f","","","","","","","","","","","","","key","f","16.655429906542544","768","428","f","true","img/S_ambi40.png","方形","prac_simultaneous",""
"","","","","","html-keyboard-response","126","391713","0.0-11.0-0.0-1.8","null","<span style='color:GreenYellow; font-size: 70px;'>正确! </span>","null","","","","","","","","","","","","","","","","","","","","","","","feedback_test"
"","","","","","psychophysics","127","393404","0.0-11.0-0.0-0.9","688","","j","","","","","","","","","","","","","key","j","16.65466000000015","768","428","j","true","img/C_ambi40.png","三角","prac_simultaneous",""
"","","","","","html-keyboard-response","128","393710","0.0-11.0-0.0-1.9","null","<span style='color:GreenYellow; font-size: 70px;'>正确! </span>","null","","","","","","","","","","","","","","","","","","","","","","","feedback_test"
"","","","","","psychophysics","129","395940","0.0-11.0-0.0-0.10","1229","","j","","","","","","","","","","","","","key","j","16.655249999999686","768","428","f","false","img/T_ambi40.png","三角","prac_simultaneous",""
"","","","","","html-keyboard-response","130","396242","0.0-11.0-0.0-1.10","null","<span style='color:red; font-size: 70px;'>错误! </span>","null","","","","","","","","","","","","","","","","","","","","","","","feedback_test"
"","","","","","psychophysics","131","397941","0.0-11.0-0.0-0.11","697","","f","","","","","","","","","","","","","key","f","16.65522772277242","768","428","f","true","img/C_ambi40.png","圆形","prac_simultaneous",""
"","","","","","html-keyboard-response","132","398247","0.0-11.0-0.0-1.11","null","<span style='color:GreenYellow; font-size: 70px;'>正确! </span>","null","","","","","","","","","","","","","","","","","","","","","","","feedback_test"
"","","","","","psychophysics","133","399913","0.0-11.0-0.0-0.12","664","","j","","","","","","","","","","","","","key","j","16.658373737373775","768","428","j","true","img/S_ambi40.png","圆形","prac_simultaneous",""
"","","","","","html-keyboard-response","134","400224","0.0-11.0-0.0-1.12","null","<span style='color:GreenYellow; font-size: 70px;'>正确! </span>","null","","","","","","","","","","","","","","","","","","","","","","","feedback_test"
"","","","","","psychophysics","135","401897","0.0-11.0-0.0-0.13","672","","f","","","","","","","","","","","","","key","f","16.65442424242425","768","428","f","true","img/T_ambi40.png","三角","prac_simultaneous",""
"","","","","","html-keyboard-response","136","402199","0.0-11.0-0.0-1.13","null","<span style='color:GreenYellow; font-size: 70px;'>正确! </span>","null","","","","","","","","","","","","","","","","","","","","","","","feedback_test"
"","","","","","psychophysics","137","403906","0.0-11.0-0.0-0.14","705","","f","","","","","","","","","","","","","key","f","16.65706862745049","768","428","f","true","img/S_ambi40.png","方形","prac_simultaneous",""
"","","","","","html-keyboard-response","138","404212","0.0-11.0-0.0-1.14","null","<span style='color:GreenYellow; font-size: 70px;'>正确! </span>","null","","","","","","","","","","","","","","","","","","","","","","","feedback_test"
"","","","","","psychophysics","139","405892","0.0-11.0-0.0-0.15","678","","f","","","","","","","","","","","","","key","f","16.659459999999964","768","428","f","true","img/T_ambi40.png","三角","prac_simultaneous",""
"","","","","","html-keyboard-response","140","406198","0.0-11.0-0.0-1.15","null","<span style='color:GreenYellow; font-size: 70px;'>正确! </span>","null","","","","","","","","","","","","","","","","","","","","","","","feedback_test"
"","","","","","psychophysics","141","407913","0.0-11.0-0.0-0.16","714","","j","","","","","","","","","","","","","key","j","16.659392156862477","768","428","j","true","img/T_ambi40.png","方形","prac_simultaneous",""
"","","","","","html-keyboard-response","142","408228","0.0-11.0-0.0-1.16","null","<span style='color:GreenYellow; font-size: 70px;'>正确! </span>","null","","","","","","","","","","","","","","","","","","","","","","","feedback_test"
"","","","","","psychophysics","143","409864","0.0-11.0-0.0-0.17","634","","f","","","","","","","","","","","","","key","f","16.659061855670142","768","428","f","true","img/C_ambi40.png","圆形","prac_simultaneous",""
"","","","","","html-keyboard-response","144","410166","0.0-11.0-0.0-1.17","null","<span style='color:GreenYellow; font-size: 70px;'>正确! </span>","null","","","","","","","","","","","","","","","","","","","","","","","feedback_test"
"","","","","","psychophysics","145","411929","0.0-11.0-0.0-0.18","761","","j","","","","","","","","","","","","","key","j","16.66478095238064","768","428","j","true","img/T_ambi40.png","圆形","prac_simultaneous",""
"","","","","","html-keyboard-response","146","412230","0.0-11.0-0.0-1.18","null","<span style='color:GreenYellow; font-size: 70px;'>正确! </span>","null","","","","","","","","","","","","","","","","","","","","","","","feedback_test"
"","","","","","psychophysics","147","414157","0.0-11.0-0.0-0.19","926","","j","","","","","","","","","","","","","key","j","16.659878260869554","768","428","j","true","img/C_ambi40.png","方形","prac_simultaneous",""
"","","","","","html-keyboard-response","148","414465","0.0-11.0-0.0-1.19","null","<span style='color:GreenYellow; font-size: 70px;'>正确! </span>","null","","","","","","","","","","","","","","","","","","","","","","","feedback_test"
"","","","","","psychophysics","149","416248","0.0-11.0-0.0-0.20","783","","j","","","","","","","","","","","","","key","j","16.532314285714666","768","428","j","true","img/C_ambi40.png","三角","prac_simultaneous",""
"","","","","","html-keyboard-response","150","416562","0.0-11.0-0.0-1.20","null","<span style='color:GreenYellow; font-size: 70px;'>正确! </span>","null","","","","","","","","","","","","","","","","","","","","","","","feedback_test"
"","","","","","psychophysics","151","418261","0.0-11.0-0.0-0.21","697","","f","","","","","","","","","","","","","key","f","16.663940594059017","768","428","f","true","img/C_ambi40.png","圆形","prac_simultaneous",""
"","","","","","html-keyboard-response","152","418570","0.0-11.0-0.0-1.21","null","<span style='color:GreenYellow; font-size: 70px;'>正确! </span>","null","","","","","","","","","","","","","","","","","","","","","","","feedback_test"
"","","","","","psychophysics","153","420375","0.0-11.0-0.0-0.22","804","","f","","","","","","","","","","","","","key","f","16.659644859813035","768","428","f","true","img/S_ambi40.png","方形","prac_simultaneous",""
"","","","","","html-keyboard-response","154","420681","0.0-11.0-0.0-1.22","null","<span style='color:GreenYellow; font-size: 70px;'>正确! </span>","null","","","","","","","","","","","","","","","","","","","","","","","feedback_test"
"","","","","","psychophysics","155","422408","0.0-11.0-0.0-0.23","725","","j","","","","","","","","","","","","","key","j","16.66206862745058","768","428","j","true","img/S_ambi40.png","三角","prac_simultaneous",""
"","","","","","html-keyboard-response","156","422709","0.0-11.0-0.0-1.23","null","<span style='color:GreenYellow; font-size: 70px;'>正确! </span>","null","","","","","","","","","","","","","","","","","","","","","","","feedback_test"
"","","","","","html-keyboard-response","157","436906","0.0-12.0","14195","<style>.context{color:white; font-size: 35px; line-height:40px}</style>                            <div><p class='context'>您正确回答了92% 的试次。</p><p class='context'>您的平均反应时为763毫秒。</p><p class='context'>恭喜您完成练习。按任意键进入正式实验。</p><p class='footer' style='font-size: 35px; line-height:40px;'>请在进入正式实验实验之前将您的<span style='color: lightgreen;'>食指</span>放在电脑键盘的相应键位上进行按键。</p>"," ","","","","","","","","","","","","","","","","","","","","","","",""
"","","","","","html-keyboard-response","158","439993","0.0-13.0-0.0-0.0","3083","
    <p>请您将手指放在按键上，准备进入呈现顺序为<span style='color: yellow;'>先图形后文字条件</span>的正式匹配任务</p>
    <p> <div style = ""color: green""><按任意键进入下一阶段的匹配任务></div></p>
    "," ","","","","","","","","","","","","","","","","","","","","","","",""
"","","","","","psychophysics","159","441994","0.0-13.0-0.0-1.0-0.0-0.0","850","","f","","","","","","","","","","","","","key","f","16.666243697478958","768","428","f","true","img/T_ambi40.png","三角","image_first",""
"","","","","","html-keyboard-response","160","442304","0.0-13.0-0.0-1.0-0.0-1.0","null","<span style='color:GreenYellow; font-size: 70px;'>正确! </span>","null","","","","","","","","","","","","","","","","","","","","","","","feedback_test"
"","","","","","psychophysics","161","444531","0.0-13.0-0.0-1.0-0.0-0.1","1077","","j","","","","","","","","","","","","","key","j","16.65874242424263","768","428","j","true","img/C_ambi40.png","方形","image_first",""
"","","","","","html-keyboard-response","162","444843","0.0-13.0-0.0-1.0-0.0-1.1","null","<span style='color:GreenYellow; font-size: 70px;'>正确! </span>","null","","","","","","","","","","","","","","","","","","","","","","","feedback_test"
"","","","","","psychophysics","163","446544","0.0-13.0-0.0-1.0-0.0-0.2","550","","f","","","","","","","","","","","","","key","f","16.65764356435606","768","428","f","true","img/C_ambi40.png","圆形","image_first",""
"","","","","","html-keyboard-response","164","446855","0.0-13.0-0.0-1.0-0.0-1.2","null","<span style='color:GreenYellow; font-size: 70px;'>正确! </span>","null","","","","","","","","","","","","","","","","","","","","","","","feedback_test"
"","","","","","psychophysics","165","448547","0.0-13.0-0.0-1.0-0.0-0.3","541","","f","","","","","","","","","","","","","key","f","16.655439999999945","768","428","f","true","img/C_ambi40.png","圆形","image_first",""
"","","","","","html-keyboard-response","166","448858","0.0-13.0-0.0-1.0-0.0-1.3","null","<span style='color:GreenYellow; font-size: 70px;'>正确! </span>","null","","","","","","","","","","","","","","","","","","","","","","","feedback_test"
"","","","","","psychophysics","167","450626","0.0-13.0-0.0-1.0-0.0-0.4","615","","f","","","","","","","","","","","","","key","f","16.659142857143056","768","428","f","true","img/S_ambi40.png","方形","image_first",""
"","","","","","html-keyboard-response","168","450927","0.0-13.0-0.0-1.0-0.0-1.4","null","<span style='color:GreenYellow; font-size: 70px;'>正确! </span>","null","","","","","","","","","","","","","","","","","","","","","","","feedback_test"
"","","","","","psychophysics","169","452743","0.0-13.0-0.0-1.0-0.0-0.5","665","","f","","","","","","","","","","","","","key","f","16.65824074074098","768","428","f","true","img/S_ambi40.png","方形","image_first",""
"","","","","","html-keyboard-response","170","453057","0.0-13.0-0.0-1.0-0.0-1.5","null","<span style='color:GreenYellow; font-size: 70px;'>正确! </span>","null","","","","","","","","","","","","","","","","","","","","","","","feedback_test"
"","","","","","psychophysics","171","454924","0.0-13.0-0.0-1.0-0.0-0.6","716","","j","","","","","","","","","","","","","key","j","16.65543243243267","768","428","j","true","img/C_ambi40.png","三角","image_first",""
"","","","","","html-keyboard-response","172","455238","0.0-13.0-0.0-1.0-0.0-1.6","null","<span style='color:GreenYellow; font-size: 70px;'>正确! </span>","null","","","","","","","","","","","","","","","","","","","","","","","feedback_test"
"","","","","","psychophysics","173","457295","0.0-13.0-0.0-1.0-0.0-0.7","903","","j","","","","","","","","","","","","","key","j","16.655975409835904","768","428","j","true","img/S_ambi40.png","圆形","image_first",""
"","","","","","html-keyboard-response","174","457607","0.0-13.0-0.0-1.0-0.0-1.7","null","<span style='color:GreenYellow; font-size: 70px;'>正确! </span>","null","","","","","","","","","","","","","","","","","","","","","","","feedback_test"
"","","","","","psychophysics","175","459366","0.0-13.0-0.0-1.0-0.0-0.8","608","","f","","","","","","","","","","","","","key","f","16.662466666666745","768","428","f","true","img/T_ambi40.png","三角","image_first",""
"","","","","","html-keyboard-response","176","459670","0.0-13.0-0.0-1.0-0.0-1.8","null","<span style='color:GreenYellow; font-size: 70px;'>正确! </span>","null","","","","","","","","","","","","","","","","","","","","","","","feedback_test"
"","","","","","psychophysics","177","461371","0.0-13.0-0.0-1.0-0.0-0.9","550","","j","","","","","","","","","","","","","key","j","16.659524752475473","768","428","j","true","img/S_ambi40.png","三角","image_first",""
"","","","","","html-keyboard-response","178","461675","0.0-13.0-0.0-1.0-0.0-1.9","null","<span style='color:GreenYellow; font-size: 70px;'>正确! </span>","null","","","","","","","","","","","","","","","","","","","","","","","feedback_test"
"","","","","","psychophysics","179","463390","0.0-13.0-0.0-1.0-0.0-0.10","564","","j","","","","","","","","","","","","","key","j","16.65916666666653","768","428","j","true","img/T_ambi40.png","圆形","image_first",""
"","","","","","html-keyboard-response","180","463691","0.0-13.0-0.0-1.0-0.0-1.10","null","<span style='color:GreenYellow; font-size: 70px;'>正确! </span>","null","","","","","","","","","","","","","","","","","","","","","","","feedback_test"
"","","","","","psychophysics","181","465618","0.0-13.0-0.0-1.0-0.0-0.11","776","","j","","","","","","","","","","","","","key","j","16.65963478260876","768","428","j","true","img/T_ambi40.png","方形","image_first",""
"","","","","","html-keyboard-response","182","465919","0.0-13.0-0.0-1.0-0.0-1.11","null","<span style='color:GreenYellow; font-size: 70px;'>正确! </span>","null","","","","","","","","","","","","","","","","","","","","","","","feedback_test"
"","","","","","psychophysics","183","467626","0.0-13.0-0.0-1.0-0.0-0.12","555","","j","","","","","","","","","","","","","key","j","16.659284313725806","768","428","j","true","img/T_ambi40.png","圆形","image_first",""
"","","","","","html-keyboard-response","184","467935","0.0-13.0-0.0-1.0-0.0-1.12","null","<span style='color:GreenYellow; font-size: 70px;'>正确! </span>","null","","","","","","","","","","","","","","","","","","","","","","","feedback_test"
"","","","","","psychophysics","185","469827","0.0-13.0-0.0-1.0-0.0-0.13","741","","f","","","","","","","","","","","","","key","f","16.666601769911512","768","428","f","true","img/S_ambi40.png","方形","image_first",""
"","","","","","html-keyboard-response","186","470136","0.0-13.0-0.0-1.0-0.0-1.13","null","<span style='color:GreenYellow; font-size: 70px;'>正确! </span>","null","","","","","","","","","","","","","","","","","","","","","","","feedback_test"
"","","","","","psychophysics","187","472016","0.0-13.0-0.0-1.0-0.0-0.14","727","","j","","","","","","","","","","","","","key","j","16.66017857142859","768","428","j","true","img/S_ambi40.png","圆形","image_first",""
"","","","","","html-keyboard-response","188","472317","0.0-13.0-0.0-1.0-0.0-1.14","null","<span style='color:GreenYellow; font-size: 70px;'>正确! </span>","null","","","","","","","","","","","","","","","","","","","","","","","feedback_test"
"","","","","","psychophysics","189","474041","0.0-13.0-0.0-1.0-0.0-0.15","573","","j","","","","","","","","","","","","","key","j","16.6555436893199","768","428","j","true","img/S_ambi40.png","三角","image_first",""
"","","","","","html-keyboard-response","190","474342","0.0-13.0-0.0-1.0-0.0-1.15","null","<span style='color:GreenYellow; font-size: 70px;'>正确! </span>","null","","","","","","","","","","","","","","","","","","","","","","","feedback_test"
"","","","","","psychophysics","191","476129","0.0-13.0-0.0-1.0-0.0-0.16","635","","f","","","","","","","","","","","","","key","f","16.653405660377345","768","428","f","true","img/S_ambi40.png","方形","image_first",""
"","","","","","html-keyboard-response","192","476441","0.0-13.0-0.0-1.0-0.0-1.16","null","<span style='color:GreenYellow; font-size: 70px;'>正确! </span>","null","","","","","","","","","","","","","","","","","","","","","","","feedback_test"
"","","","","","psychophysics","193","478158","0.0-13.0-0.0-1.0-0.0-0.17","565","","j","","","","","","","","","","","","","key","j","16.660490196078385","768","428","j","true","img/C_ambi40.png","三角","image_first",""
"","","","","","html-keyboard-response","194","478471","0.0-13.0-0.0-1.0-0.0-1.17","null","<span style='color:GreenYellow; font-size: 70px;'>正确! </span>","null","","","","","","","","","","","","","","","","","","","","","","","feedback_test"
"","","","","","psychophysics","195","480547","0.0-13.0-0.0-1.0-0.0-0.18","926","","j","","","","","","","","","","","","","key","j","16.65522764227684","768","428","j","true","img/T_ambi40.png","方形","image_first",""
"","","","","","html-keyboard-response","196","480850","0.0-13.0-0.0-1.0-0.0-1.18","null","<span style='color:GreenYellow; font-size: 70px;'>正确! </span>","null","","","","","","","","","","","","","","","","","","","","","","","feedback_test"
"","","","","","psychophysics","197","482551","0.0-13.0-0.0-1.0-0.0-0.19","549","","f","","","","","","","","","","","","","key","f","16.659544554455458","768","428","f","true","img/T_ambi40.png","三角","image_first",""
"","","","","","html-keyboard-response","198","482863","0.0-13.0-0.0-1.0-0.0-1.19","null","<span style='color:GreenYellow; font-size: 70px;'>正确! </span>","null","","","","","","","","","","","","","","","","","","","","","","","feedback_test"
"","","","","","psychophysics","199","484775","0.0-13.0-0.0-1.0-0.0-0.20","760","","f","","","","","","","","","","","","","key","f","16.659736842105445","768","428","f","true","img/C_ambi40.png","圆形","image_first",""
"","","","","","html-keyboard-response","200","485088","0.0-13.0-0.0-1.0-0.0-1.20","null","<span style='color:GreenYellow; font-size: 70px;'>正确! </span>","null","","","","","","","","","","","","","","","","","","","","","","","feedback_test"
"","","","","","psychophysics","201","486768","0.0-13.0-0.0-1.0-0.0-0.21","529","","f","","","","","","","","","","","","","key","f","16.654650000000256","768","428","f","true","img/C_ambi40.png","圆形","image_first",""
"","","","","","html-keyboard-response","202","487077","0.0-13.0-0.0-1.0-0.0-1.21","null","<span style='color:GreenYellow; font-size: 70px;'>正确! </span>","null","","","","","","","","","","","","","","","","","","","","","","","feedback_test"
"","","","","","psychophysics","203","488845","0.0-13.0-0.0-1.0-0.0-0.22","617","","f","","","","","","","","","","","","","key","f","16.655495238095146","768","428","f","true","img/T_ambi40.png","三角","image_first",""
"","","","","","html-keyboard-response","204","489156","0.0-13.0-0.0-1.0-0.0-1.22","null","<span style='color:GreenYellow; font-size: 70px;'>正确! </span>","null","","","","","","","","","","","","","","","","","","","","","","","feedback_test"
"","","","","","psychophysics","205","490989","0.0-13.0-0.0-1.0-0.0-0.23","682","","j","","","","","","","","","","","","","key","j","16.663220183486484","768","428","j","true","img/C_ambi40.png","方形","image_first",""
"","","","","","html-keyboard-response","206","491301","0.0-13.0-0.0-1.0-0.0-1.23","null","<span style='color:GreenYellow; font-size: 70px;'>正确! </span>","null","","","","","","","","","","","","","","","","","","","","","","","feedback_test"
"","","","","","psychophysics","207","492987","0.0-13.0-0.0-1.0-0.0-0.24","535","","f","","","","","","","","","","","","","key","f","16.653709999999847","768","428","f","true","img/T_ambi40.png","三角","image_first",""
"","","","","","html-keyboard-response","208","493301","0.0-13.0-0.0-1.0-0.0-1.24","null","<span style='color:GreenYellow; font-size: 70px;'>正确! </span>","null","","","","","","","","","","","","","","","","","","","","","","","feedback_test"
"","","","","","psychophysics","209","495235","0.0-13.0-0.0-1.0-0.0-0.25","782","","j","","","","","","","","","","","","","key","j","16.65354782608692","768","428","j","true","img/T_ambi40.png","方形","image_first",""
"","","","","","html-keyboard-response","210","495541","0.0-13.0-0.0-1.0-0.0-1.25","null","<span style='color:GreenYellow; font-size: 70px;'>正确! </span>","null","","","","","","","","","","","","","","","","","","","","","","","feedback_test"
"","","","","","psychophysics","211","497681","0.0-13.0-0.0-1.0-0.0-0.26","987","","j","","","","","","","","","","","","","key","j","16.659453125000255","768","428","j","true","img/T_ambi40.png","圆形","image_first",""
"","","","","","html-keyboard-response","212","497995","0.0-13.0-0.0-1.0-0.0-1.26","null","<span style='color:GreenYellow; font-size: 70px;'>正确! </span>","null","","","","","","","","","","","","","","","","","","","","","","","feedback_test"
"","","","","","psychophysics","213","499949","0.0-13.0-0.0-1.0-0.0-0.27","800","","f","","","","","","","","","","","","","key","f","16.659491379310754","768","428","j","false","img/S_ambi40.png","三角","image_first",""
"","","","","","html-keyboard-response","214","500260","0.0-13.0-0.0-1.0-0.0-1.27","null","<span style='color:red; font-size: 70px;'>错误! </span>","null","","","","","","","","","","","","","","","","","","","","","","","feedback_test"
"","","","","","psychophysics","215","502350","0.0-13.0-0.0-1.0-0.0-0.28","939","","f","","","","","","","","","","","","","key","f","16.659459677419715","768","428","f","true","img/S_ambi40.png","方形","image_first",""
"","","","","","html-keyboard-response","216","502663","0.0-13.0-0.0-1.0-0.0-1.28","null","<span style='color:GreenYellow; font-size: 70px;'>正确! </span>","null","","","","","","","","","","","","","","","","","","","","","","","feedback_test"
"","","","","","psychophysics","217","504391","0.0-13.0-0.0-1.0-0.0-0.29","577","","f","","","","","","","","","","","","","key","f","16.65597058823515","768","428","f","true","img/C_ambi40.png","圆形","image_first",""
"","","","","","html-keyboard-response","218","504704","0.0-13.0-0.0-1.0-0.0-1.29","null","<span style='color:GreenYellow; font-size: 70px;'>正确! </span>","null","","","","","","","","","","","","","","","","","","","","","","","feedback_test"
"","","","","","psychophysics","219","506415","0.0-13.0-0.0-1.0-0.0-0.30","559","","j","","","","","","","","","","","","","key","j","16.659862745097865","768","428","j","true","img/C_ambi40.png","三角","image_first",""
"","","","","","html-keyboard-response","220","506717","0.0-13.0-0.0-1.0-0.0-1.30","null","<span style='color:GreenYellow; font-size: 70px;'>正确! </span>","null","","","","","","","","","","","","","","","","","","","","","","","feedback_test"
"","","","","","psychophysics","221","508601","0.0-13.0-0.0-1.0-0.0-0.31","731","","f","","","","","","","","","","","","","key","f","16.662267857142847","768","428","f","true","img/S_ambi40.png","方形","image_first",""
"","","","","","html-keyboard-response","222","508910","0.0-13.0-0.0-1.0-0.0-1.31","null","<span style='color:GreenYellow; font-size: 70px;'>正确! </span>","null","","","","","","","","","","","","","","","","","","","","","","","feedback_test"
"","","","","","psychophysics","223","510646","0.0-13.0-0.0-1.0-0.0-0.32","585","","j","","","","","","","","","","","","","key","j","16.65427184466033","768","428","j","true","img/C_ambi40.png","方形","image_first",""
"","","","","","html-keyboard-response","224","510960","0.0-13.0-0.0-1.0-0.0-1.32","null","<span style='color:GreenYellow; font-size: 70px;'>正确! </span>","null","","","","","","","","","","","","","","","","","","","","","","","feedback_test"
"","","","","","psychophysics","225","512580","0.0-13.0-0.0-1.0-0.0-0.33","469","","f","","","","","","","","","","","","","key","f","16.65929166666683","768","428","f","true","img/T_ambi40.png","三角","image_first",""
"","","","","","html-keyboard-response","226","512894","0.0-13.0-0.0-1.0-0.0-1.33","null","<span style='color:GreenYellow; font-size: 70px;'>正确! </span>","null","","","","","","","","","","","","","","","","","","","","","","","feedback_test"
"","","","","","psychophysics","227","514581","0.0-13.0-0.0-1.0-0.0-0.34","536","","f","","","","","","","","","","","","","key","f","16.65871999999974","768","428","f","true","img/C_ambi40.png","圆形","image_first",""
"","","","","","html-keyboard-response","228","514884","0.0-13.0-0.0-1.0-0.0-1.34","null","<span style='color:GreenYellow; font-size: 70px;'>正确! </span>","null","","","","","","","","","","","","","","","","","","","","","","","feedback_test"
"","","","","","psychophysics","229","516798","0.0-13.0-0.0-1.0-0.0-0.35","763","","j","","","","","","","","","","","","","key","j","16.659745614035177","768","428","j","true","img/S_ambi40.png","圆形","image_first",""
"","","","","","html-keyboard-response","230","517106","0.0-13.0-0.0-1.0-0.0-1.35","null","<span style='color:GreenYellow; font-size: 70px;'>正确! </span>","null","","","","","","","","","","","","","","","","","","","","","","","feedback_test"
"","","","","","psychophysics","231","518963","0.0-13.0-0.0-1.0-0.0-0.36","706","","j","","","","","","","","","","","","","key","j","16.662845454545987","768","428","j","true","img/S_ambi40.png","三角","image_first",""
"","","","","","html-keyboard-response","232","519267","0.0-13.0-0.0-1.0-0.0-1.36","null","<span style='color:GreenYellow; font-size: 70px;'>正确! </span>","null","","","","","","","","","","","","","","","","","","","","","","","feedback_test"
"","","","","","psychophysics","233","521273","0.0-13.0-0.0-1.0-0.0-0.37","854","","j","","","","","","","","","","","","","key","j","16.555546218487276","768","428","j","true","img/T_ambi40.png","圆形","image_first",""
"","","","","","html-keyboard-response","234","521585","0.0-13.0-0.0-1.0-0.0-1.37","null","<span style='color:GreenYellow; font-size: 70px;'>正确! </span>","null","","","","","","","","","","","","","","","","","","","","","","","feedback_test"
"","","","","","psychophysics","235","523273","0.0-13.0-0.0-1.0-0.0-0.38","536","","f","","","","","","","","","","","","","key","f","16.65362000000081","768","428","f","true","img/T_ambi40.png","三角","image_first",""
"","","","","","html-keyboard-response","236","523578","0.0-13.0-0.0-1.0-0.0-1.38","null","<span style='color:GreenYellow; font-size: 70px;'>正确! </span>","null","","","","","","","","","","","","","","","","","","","","","","","feedback_test"
"","","","","","psychophysics","237","525257","0.0-13.0-0.0-1.0-0.0-0.39","528","","j","","","","","","","","","","","","","key","j","16.66555999999982","768","428","j","true","img/C_ambi40.png","三角","image_first",""
"","","","","","html-keyboard-response","238","525571","0.0-13.0-0.0-1.0-0.0-1.39","null","<span style='color:GreenYellow; font-size: 70px;'>正确! </span>","null","","","","","","","","","","","","","","","","","","","","","","","feedback_test"
"","","","","","psychophysics","239","527298","0.0-13.0-0.0-1.0-0.0-0.40","575","","f","","","","","","","","","","","","","key","f","16.65563725490196","768","428","f","true","img/S_ambi40.png","方形","image_first",""
"","","","","","html-keyboard-response","240","527612","0.0-13.0-0.0-1.0-0.0-1.40","null","<span style='color:GreenYellow; font-size: 70px;'>正确! </span>","null","","","","","","","","","","","","","","","","","","","","","","","feedback_test"
"","","","","","psychophysics","241","529472","0.0-13.0-0.0-1.0-0.0-0.41","707","","f","","","","","","","","","","","","","key","f","16.666261261260885","768","428","f","true","img/S_ambi40.png","方形","image_first",""
"","","","","","html-keyboard-response","242","529785","0.0-13.0-0.0-1.0-0.0-1.41","null","<span style='color:GreenYellow; font-size: 70px;'>正确! </span>","null","","","","","","","","","","","","","","","","","","","","","","","feedback_test"
"","","","","","psychophysics","243","531377","0.0-13.0-0.0-1.0-0.0-0.42","441","","f","","","","","","","","","","","","","key","f","16.65736170212783","768","428","f","true","img/C_ambi40.png","圆形","image_first",""
"","","","","","html-keyboard-response","244","531685","0.0-13.0-0.0-1.0-0.0-1.42","null","<span style='color:GreenYellow; font-size: 70px;'>正确! </span>","null","","","","","","","","","","","","","","","","","","","","","","","feedback_test"
"","","","","","psychophysics","245","533373","0.0-13.0-0.0-1.0-0.0-0.43","537","","f","","","","","","","","","","","","","key","f","16.653850000000094","768","428","f","true","img/C_ambi40.png","圆形","image_first",""
"","","","","","html-keyboard-response","246","533686","0.0-13.0-0.0-1.0-0.0-1.43","null","<span style='color:GreenYellow; font-size: 70px;'>正确! </span>","null","","","","","","","","","","","","","","","","","","","","","","","feedback_test"
"","","","","","psychophysics","247","535345","0.0-13.0-0.0-1.0-0.0-0.44","507","","f","","","","","","","","","","","","","key","f","16.661326530612815","768","428","f","true","img/T_ambi40.png","三角","image_first",""
"","","","","","html-keyboard-response","248","535653","0.0-13.0-0.0-1.0-0.0-1.44","null","<span style='color:GreenYellow; font-size: 70px;'>正确! </span>","null","","","","","","","","","","","","","","","","","","","","","","","feedback_test"
"","","","","","psychophysics","249","537384","0.0-13.0-0.0-1.0-0.0-0.45","580","","j","","","","","","","","","","","","","key","j","16.65902912621364","768","428","j","true","img/C_ambi40.png","方形","image_first",""
"","","","","","html-keyboard-response","250","537690","0.0-13.0-0.0-1.0-0.0-1.45","null","<span style='color:GreenYellow; font-size: 70px;'>正确! </span>","null","","","","","","","","","","","","","","","","","","","","","","","feedback_test"
"","","","","","psychophysics","251","539421","0.0-13.0-0.0-1.0-0.0-0.46","580","","j","","","","","","","","","","","","","key","j","16.659970873785973","768","428","j","true","img/T_ambi40.png","方形","image_first",""
"","","","","","html-keyboard-response","252","539726","0.0-13.0-0.0-1.0-0.0-1.46","null","<span style='color:GreenYellow; font-size: 70px;'>正确! </span>","null","","","","","","","","","","","","","","","","","","","","","","","feedback_test"
"","","","","","psychophysics","253","541420","0.0-13.0-0.0-1.0-0.0-0.47","543","","j","","","","","","","","","","","","","key","j","16.65902999999933","768","428","j","true","img/S_ambi40.png","圆形","image_first",""
"","","","","","html-keyboard-response","254","541731","0.0-13.0-0.0-1.0-0.0-1.47","null","<span style='color:GreenYellow; font-size: 70px;'>正确! </span>","null","","","","","","","","","","","","","","","","","","","","","","","feedback_test"
"","","","","","psychophysics","255","543468","0.0-13.0-0.0-1.0-0.0-0.48","585","","f","","","","","","","","","","","","","key","f","16.661048543689212","768","428","f","true","img/S_ambi40.png","方形","image_first",""
"","","","","","html-keyboard-response","256","543781","0.0-13.0-0.0-1.0-0.0-1.48","null","<span style='color:GreenYellow; font-size: 70px;'>正确! </span>","null","","","","","","","","","","","","","","","","","","","","","","","feedback_test"
"","","","","","psychophysics","257","545510","0.0-13.0-0.0-1.0-0.0-0.49","576","","j","","","","","","","","","","","","","key","j","16.66367961165102","768","428","j","true","img/T_ambi40.png","圆形","image_first",""
"","","","","","html-keyboard-response","258","545823","0.0-13.0-0.0-1.0-0.0-1.49","null","<span style='color:GreenYellow; font-size: 70px;'>正确! </span>","null","","","","","","","","","","","","","","","","","","","","","","","feedback_test"
"","","","","","psychophysics","259","547515","0.0-13.0-0.0-1.0-0.0-0.50","541","","f","","","","","","","","","","","","","key","f","16.659119999998946","768","428","f","true","img/C_ambi40.png","圆形","image_first",""
"","","","","","html-keyboard-response","260","547821","0.0-13.0-0.0-1.0-0.0-1.50","null","<span style='color:GreenYellow; font-size: 70px;'>正确! </span>","null","","","","","","","","","","","","","","","","","","","","","","","feedback_test"
"","","","","","psychophysics","261","549531","0.0-13.0-0.0-1.0-0.0-0.51","558","","f","","","","","","","","","","","","","key","f","16.65945098039297","768","428","f","true","img/T_ambi40.png","三角","image_first",""
"","","","","","html-keyboard-response","262","549842","0.0-13.0-0.0-1.0-0.0-1.51","null","<span style='color:GreenYellow; font-size: 70px;'>正确! </span>","null","","","","","","","","","","","","","","","","","","","","","","","feedback_test"
"","","","","","psychophysics","263","551484","0.0-13.0-0.0-1.0-0.0-0.52","489","","f","","","","","","","","","","","","","key","f","16.653917525773725","768","428","f","true","img/T_ambi40.png","三角","image_first",""
"","","","","","html-keyboard-response","264","551791","0.0-13.0-0.0-1.0-0.0-1.52","null","<span style='color:GreenYellow; font-size: 70px;'>正确! </span>","null","","","","","","","","","","","","","","","","","","","","","","","feedback_test"
"","","","","","psychophysics","265","553533","0.0-13.0-0.0-1.0-0.0-0.53","591","","j","","","","","","","","","","","","","key","j","16.654640776698603","768","428","j","true","img/C_ambi40.png","三角","image_first",""
"","","","","","html-keyboard-response","266","553847","0.0-13.0-0.0-1.0-0.0-1.53","null","<span style='color:GreenYellow; font-size: 70px;'>正确! </span>","null","","","","","","","","","","","","","","","","","","","","","","","feedback_test"
"","","","","","psychophysics","267","555553","0.0-13.0-0.0-1.0-0.0-0.54","554","","j","","","","","","","","","","","","","key","j","16.65543137254951","768","428","j","true","img/S_ambi40.png","三角","image_first",""
"","","","","","html-keyboard-response","268","555859","0.0-13.0-0.0-1.0-0.0-1.54","null","<span style='color:GreenYellow; font-size: 70px;'>正确! </span>","null","","","","","","","","","","","","","","","","","","","","","","","feedback_test"
"","","","","","psychophysics","269","557634","0.0-13.0-0.0-1.0-0.0-0.55","624","","j","","","","","","","","","","","","","key","j","16.65361904761909","768","428","j","true","img/S_ambi40.png","圆形","image_first",""
"","","","","","html-keyboard-response","270","557945","0.0-13.0-0.0-1.0-0.0-1.55","null","<span style='color:GreenYellow; font-size: 70px;'>正确! </span>","null","","","","","","","","","","","","","","","","","","","","","","","feedback_test"
"","","","","","psychophysics","271","559683","0.0-13.0-0.0-1.0-0.0-0.56","586","","f","","","","","","","","","","","","","key","f","16.657009708738062","768","428","f","true","img/S_ambi40.png","方形","image_first",""
"","","","","","html-keyboard-response","272","559998","0.0-13.0-0.0-1.0-0.0-1.56","null","<span style='color:GreenYellow; font-size: 70px;'>正确! </span>","null","","","","","","","","","","","","","","","","","","","","","","","feedback_test"
"","","","","","psychophysics","273","561712","0.0-13.0-0.0-1.0-0.0-0.57","563","","j","","","","","","","","","","","","","key","j","16.659254901961415","768","428","j","true","img/C_ambi40.png","方形","image_first",""
"","","","","","html-keyboard-response","274","562026","0.0-13.0-0.0-1.0-0.0-1.57","null","<span style='color:GreenYellow; font-size: 70px;'>正确! </span>","null","","","","","","","","","","","","","","","","","","","","","","","feedback_test"
"","","","","","psychophysics","275","563844","0.0-13.0-0.0-1.0-0.0-0.58","665","","j","","","","","","","","","","","","","key","j","16.65704629629639","768","428","j","true","img/T_ambi40.png","方形","image_first",""
"","","","","","html-keyboard-response","276","564146","0.0-13.0-0.0-1.0-0.0-1.58","null","<span style='color:GreenYellow; font-size: 70px;'>正确! </span>","null","","","","","","","","","","","","","","","","","","","","","","","feedback_test"
"","","","","","psychophysics","277","565793","0.0-13.0-0.0-1.0-0.0-0.59","496","","f","","","","","","","","","","","","","key","f","16.664530612245603","768","428","f","true","img/C_ambi40.png","圆形","image_first",""
"","","","","","html-keyboard-response","278","566101","0.0-13.0-0.0-1.0-0.0-1.59","null","<span style='color:GreenYellow; font-size: 70px;'>正确! </span>","null","","","","","","","","","","","","","","","","","","","","","","","feedback_test"
"","","","","","html-keyboard-response","279","568120","0.0-13.0-0.0-1.0-1.0","2017","<style>.context{color:white; font-size: 35px; line-height:40px}</style>                            <div><p class='context'>您正确回答了98% 的试次。</p><p class='context'>您的平均反应时为638毫秒。</p><p class='context'>请按任意键进入休息</p></div>","j","","","","","","","","","","","","","","","","","","","","","","",""
"","","","","","html-button-response","280","607977","0.0-13.0-0.0-1.0-2.0","39855","
                    <p>您当前还剩余3组实验</p>
                    <p>现在是休息时间，当您结束休息后，您可以点击 结束休息 按钮 继续</p>
                    <p>建议休息时间还剩余<span id=""iii"">60</span>秒</p>","0","","","","","","","","","","","","","","","","","","","","","","",""
"","","","","","psychophysics","281","609838","0.0-13.0-0.0-1.0-0.1-0.60","710","","j","","","","","","","","","","","","","key","j","16.65988288288265","768","428","j","true","img/S_ambi40.png","三角","image_first",""
"","","","","","html-keyboard-response","282","610144","0.0-13.0-0.0-1.0-0.1-1.60","null","<span style='color:GreenYellow; font-size: 70px;'>正确! </span>","null","","","","","","","","","","","","","","","","","","","","","","","feedback_test"
"","","","","","psychophysics","283","612381","0.0-13.0-0.0-1.0-0.1-0.61","1086","","j","","","","","","","","","","","","","key","j","16.55263157894737","768","428","j","true","img/T_ambi40.png","方形","image_first",""
"","","","","","html-keyboard-response","284","612689","0.0-13.0-0.0-1.0-0.1-1.61","null","<span style='color:GreenYellow; font-size: 70px;'>正确! </span>","null","","","","","","","","","","","","","","","","","","","","","","","feedback_test"
"","","","","","psychophysics","285","614404","0.0-13.0-0.0-1.0-0.1-0.62","563","","f","","","","","","","","","","","","","key","f","16.658137254902005","768","428","f","true","img/C_ambi40.png","圆形","image_first",""
"","","","","","html-keyboard-response","286","614709","0.0-13.0-0.0-1.0-0.1-1.62","null","<span style='color:GreenYellow; font-size: 70px;'>正确! </span>","null","","","","","","","","","","","","","","","","","","","","","","","feedback_test"
"","","","","","psychophysics","287","616437","0.0-13.0-0.0-1.0-0.1-0.63","566","","j","","","","","","","","","","","","","key","j","16.666058823529074","768","428","j","true","img/T_ambi40.png","圆形","image_first",""
"","","","","","html-keyboard-response","288","616747","0.0-13.0-0.0-1.0-0.1-1.63","null","<span style='color:GreenYellow; font-size: 70px;'>正确! </span>","null","","","","","","","","","","","","","","","","","","","","","","","feedback_test"
"","","","","","psychophysics","289","618447","0.0-13.0-0.0-1.0-0.1-0.64","548","","j","","","","","","","","","","","","","key","j","16.661732673266958","768","428","j","true","img/C_ambi40.png","方形","image_first",""
"","","","","","html-keyboard-response","290","618757","0.0-13.0-0.0-1.0-0.1-1.64","null","<span style='color:GreenYellow; font-size: 70px;'>正确! </span>","null","","","","","","","","","","","","","","","","","","","","","","","feedback_test"
"","","","","","psychophysics","291","620427","0.0-13.0-0.0-1.0-0.1-0.65","519","","f","","","","","","","","","","","","","key","f","16.659868686868","768","428","f","true","img/C_ambi40.png","圆形","image_first",""
"","","","","","html-keyboard-response","292","620737","0.0-13.0-0.0-1.0-0.1-1.65","null","<span style='color:GreenYellow; font-size: 70px;'>正确! </span>","null","","","","","","","","","","","","","","","","","","","","","","","feedback_test"
"","","","","","psychophysics","293","622408","0.0-13.0-0.0-1.0-0.1-0.66","520","","j","","","","","","","","","","","","","key","j","16.659139999999898","768","428","j","true","img/S_ambi40.png","圆形","image_first",""
"","","","","","html-keyboard-response","294","622720","0.0-13.0-0.0-1.0-0.1-1.66","null","<span style='color:GreenYellow; font-size: 70px;'>正确! </span>","null","","","","","","","","","","","","","","","","","","","","","","","feedback_test"
"","","","","","psychophysics","295","624408","0.0-13.0-0.0-1.0-0.1-0.67","537","","f","","","","","","","","","","","","","key","f","16.65984158415928","768","428","f","true","img/T_ambi40.png","三角","image_first",""
"","","","","","html-keyboard-response","296","624721","0.0-13.0-0.0-1.0-0.1-1.67","null","<span style='color:GreenYellow; font-size: 70px;'>正确! </span>","null","","","","","","","","","","","","","","","","","","","","","","","feedback_test"
"","","","","","psychophysics","297","626372","0.0-13.0-0.0-1.0-0.1-0.68","500","","f","","","","","","","","","","","","","key","f","16.505336734694335","768","428","f","true","img/T_ambi40.png","三角","image_first",""
"","","","","","html-keyboard-response","298","626685","0.0-13.0-0.0-1.0-0.1-1.68","null","<span style='color:GreenYellow; font-size: 70px;'>正确! </span>","null","","","","","","","","","","","","","","","","","","","","","","","feedback_test"
"","","","","","psychophysics","299","628360","0.0-13.0-0.0-1.0-0.1-0.69","523","","j","","","","","","","","","","","","","key","j","16.663220000000436","768","428","j","true","img/C_ambi40.png","三角","image_first",""
"","","","","","html-keyboard-response","300","628661","0.0-13.0-0.0-1.0-0.1-1.69","null","<span style='color:GreenYellow; font-size: 70px;'>正确! </span>","null","","","","","","","","","","","","","","","","","","","","","","","feedback_test"
"","","","","","psychophysics","301","630429","0.0-13.0-0.0-1.0-0.1-0.70","617","","f","","","","","","","","","","","","","key","f","16.65837142857102","768","428","f","true","img/S_ambi40.png","方形","image_first",""
"","","","","","html-keyboard-response","302","630732","0.0-13.0-0.0-1.0-0.1-1.70","null","<span style='color:GreenYellow; font-size: 70px;'>正确! </span>","null","","","","","","","","","","","","","","","","","","","","","","","feedback_test"
"","","","","","psychophysics","303","632505","0.0-13.0-0.0-1.0-0.1-0.71","622","","f","","","","","","","","","","","","","key","f","16.664915094338795","768","428","f","true","img/S_ambi40.png","方形","image_first",""
"","","","","","html-keyboard-response","304","632819","0.0-13.0-0.0-1.0-0.1-1.71","null","<span style='color:GreenYellow; font-size: 70px;'>正确! </span>","null","","","","","","","","","","","","","","","","","","","","","","","feedback_test"
"","","","","","psychophysics","305","634691","0.0-13.0-0.0-1.0-0.1-0.72","721","","j","","","","","","","","","","","","","key","j","16.659279279278692","768","428","j","true","img/C_ambi40.png","三角","image_first",""
"","","","","","html-keyboard-response","306","635000","0.0-13.0-0.0-1.0-0.1-1.72","null","<span style='color:GreenYellow; font-size: 70px;'>正确! </span>","null","","","","","","","","","","","","","","","","","","","","","","","feedback_test"
"","","","","","psychophysics","307","637245","0.0-13.0-0.0-1.0-0.1-0.73","1094","","f","","","","","","","","","","","","","key","f","16.662578947367706","768","428","f","true","img/C_ambi40.png","圆形","image_first",""
"","","","","","html-keyboard-response","308","637552","0.0-13.0-0.0-1.0-0.1-1.73","null","<span style='color:GreenYellow; font-size: 70px;'>正确! </span>","null","","","","","","","","","","","","","","","","","","","","","","","feedback_test"
"","","","","","psychophysics","309","639347","0.0-13.0-0.0-1.0-0.1-0.74","643","","j","","","","","","","","","","","","","key","j","16.657537735849267","768","428","j","true","img/T_ambi40.png","圆形","image_first",""
"","","","","","html-keyboard-response","310","639658","0.0-13.0-0.0-1.0-0.1-1.74","null","<span style='color:GreenYellow; font-size: 70px;'>正确! </span>","null","","","","","","","","","","","","","","","","","","","","","","","feedback_test"
"","","","","","psychophysics","311","641686","0.0-13.0-0.0-1.0-0.1-0.75","877","","j","","","","","","","","","","","","","key","j","16.656371900827185","768","428","j","true","img/S_ambi40.png","圆形","image_first",""
"","","","","","html-keyboard-response","312","641997","0.0-13.0-0.0-1.0-0.1-1.75","null","<span style='color:GreenYellow; font-size: 70px;'>正确! </span>","null","","","","","","","","","","","","","","","","","","","","","","","feedback_test"
"","","","","","psychophysics","313","643744","0.0-13.0-0.0-1.0-0.1-0.76","596","","f","","","","","","","","","","","","","key","f","16.665660194175555","768","428","f","true","img/T_ambi40.png","三角","image_first",""
"","","","","","html-keyboard-response","314","644051","0.0-13.0-0.0-1.0-0.1-1.76","null","<span style='color:GreenYellow; font-size: 70px;'>正确! </span>","null","","","","","","","","","","","","","","","","","","","","","","","feedback_test"
"","","","","","psychophysics","315","646073","0.0-13.0-0.0-1.0-0.1-0.77","870","","j","","","","","","","","","","","","","key","j","16.654916666666395","768","428","j","true","img/T_ambi40.png","方形","image_first",""
"","","","","","html-keyboard-response","316","646389","0.0-13.0-0.0-1.0-0.1-1.77","null","<span style='color:GreenYellow; font-size: 70px;'>正确! </span>","null","","","","","","","","","","","","","","","","","","","","","","","feedback_test"
"","","","","","psychophysics","317","648094","0.0-13.0-0.0-1.0-0.1-0.78","552","","j","","","","","","","","","","","","","key","j","16.656603960396428","768","428","j","true","img/C_ambi40.png","方形","image_first",""
"","","","","","html-keyboard-response","318","648397","0.0-13.0-0.0-1.0-0.1-1.78","null","<span style='color:GreenYellow; font-size: 70px;'>正确! </span>","null","","","","","","","","","","","","","","","","","","","","","","","feedback_test"
"","","","","","psychophysics","319","650078","0.0-13.0-0.0-1.0-0.1-0.79","529","","f","","","","","","","","","","","","","key","f","16.66321212121149","768","428","f","true","img/C_ambi40.png","圆形","image_first",""
"","","","","","html-keyboard-response","320","650385","0.0-13.0-0.0-1.0-0.1-1.79","null","<span style='color:GreenYellow; font-size: 70px;'>正确! </span>","null","","","","","","","","","","","","","","","","","","","","","","","feedback_test"
"","","","","","psychophysics","321","652101","0.0-13.0-0.0-1.0-0.1-0.80","564","","f","","","","","","","","","","","","","key","f","16.654656862745327","768","428","f","true","img/T_ambi40.png","三角","image_first",""
"","","","","","html-keyboard-response","322","652415","0.0-13.0-0.0-1.0-0.1-1.80","null","<span style='color:GreenYellow; font-size: 70px;'>正确! </span>","null","","","","","","","","","","","","","","","","","","","","","","","feedback_test"
"","","","","","psychophysics","323","654191","0.0-13.0-0.0-1.0-0.1-0.81","624","","f","","","","","","","","","","","","","key","f","16.654904761904895","768","428","f","true","img/S_ambi40.png","方形","image_first",""
"","","","","","html-keyboard-response","324","654503","0.0-13.0-0.0-1.0-0.1-1.81","null","<span style='color:GreenYellow; font-size: 70px;'>正确! </span>","null","","","","","","","","","","","","","","","","","","","","","","","feedback_test"
"","","","","","psychophysics","325","656337","0.0-13.0-0.0-1.0-0.1-0.82","681","","j","","","","","","","","","","","","","key","j","16.658550458715656","768","428","j","true","img/S_ambi40.png","三角","image_first",""
"","","","","","html-keyboard-response","326","656648","0.0-13.0-0.0-1.0-0.1-1.82","null","<span style='color:GreenYellow; font-size: 70px;'>正确! </span>","null","","","","","","","","","","","","","","","","","","","","","","","feedback_test"
"","","","","","psychophysics","327","658641","0.0-13.0-0.0-1.0-0.1-0.83","841","","f","","","","","","","","","","","","","key","f","16.659252100840344","768","428","f","true","img/S_ambi40.png","方形","image_first",""
"","","","","","html-keyboard-response","328","658954","0.0-13.0-0.0-1.0-0.1-1.83","null","<span style='color:GreenYellow; font-size: 70px;'>正确! </span>","null","","","","","","","","","","","","","","","","","","","","","","","feedback_test"
"","","","","","psychophysics","329","660672","0.0-13.0-0.0-1.0-0.1-0.84","566","","j","","","","","","","","","","","","","key","j","16.665960784313295","768","428","j","true","img/C_ambi40.png","方形","image_first",""
"","","","","","html-keyboard-response","330","660974","0.0-13.0-0.0-1.0-0.1-1.84","null","<span style='color:GreenYellow; font-size: 70px;'>正确! </span>","null","","","","","","","","","","","","","","","","","","","","","","","feedback_test"
"","","","","","psychophysics","331","662833","0.0-13.0-0.0-1.0-0.1-0.85","708","","j","","","","","","","","","","","","","key","j","16.65544545454587","768","428","j","true","img/S_ambi40.png","三角","image_first",""
"","","","","","html-keyboard-response","332","663145","0.0-13.0-0.0-1.0-0.1-1.85","null","<span style='color:GreenYellow; font-size: 70px;'>正确! </span>","null","","","","","","","","","","","","","","","","","","","","","","","feedback_test"
"","","","","","psychophysics","333","665260","0.0-13.0-0.0-1.0-0.1-0.86","964","","f","","","","","","","","","","","","","key","f","16.659230158729887","768","428","f","true","img/T_ambi40.png","三角","image_first",""
"","","","","","html-keyboard-response","334","665566","0.0-13.0-0.0-1.0-0.1-1.86","null","<span style='color:GreenYellow; font-size: 70px;'>正确! </span>","null","","","","","","","","","","","","","","","","","","","","","","","feedback_test"
"","","","","","psychophysics","335","667577","0.0-13.0-0.0-1.0-0.1-0.87","860","","j","","","","","","","","","","","","","key","j","16.660000000000583","768","428","j","true","img/S_ambi40.png","圆形","image_first",""
"","","","","","html-keyboard-response","336","667879","0.0-13.0-0.0-1.0-0.1-1.87","null","<span style='color:GreenYellow; font-size: 70px;'>正确! </span>","null","","","","","","","","","","","","","","","","","","","","","","","feedback_test"
"","","","","","psychophysics","337","669575","0.0-13.0-0.0-1.0-0.1-0.88","544","","f","","","","","","","","","","","","","key","f","16.65852475247466","768","428","f","true","img/T_ambi40.png","三角","image_first",""
"","","","","","html-keyboard-response","338","669888","0.0-13.0-0.0-1.0-0.1-1.88","null","<span style='color:GreenYellow; font-size: 70px;'>正确! </span>","null","","","","","","","","","","","","","","","","","","","","","","","feedback_test"
"","","","","","psychophysics","339","671648","0.0-13.0-0.0-1.0-0.1-0.89","609","","f","","","","","","","","","","","","","key","f","16.657817307692873","768","428","f","true","img/C_ambi40.png","圆形","image_first",""
"","","","","","html-keyboard-response","340","671961","0.0-13.0-0.0-1.0-0.1-1.89","null","<span style='color:GreenYellow; font-size: 70px;'>正确! </span>","null","","","","","","","","","","","","","","","","","","","","","","","feedback_test"
"","","","","","psychophysics","341","673780","0.0-13.0-0.0-1.0-0.1-0.90","668","","f","","","","","","","","","","","","","key","f","16.66430555555551","768","428","f","true","img/S_ambi40.png","方形","image_first",""
"","","","","","html-keyboard-response","342","674085","0.0-13.0-0.0-1.0-0.1-1.90","null","<span style='color:GreenYellow; font-size: 70px;'>正确! </span>","null","","","","","","","","","","","","","","","","","","","","","","","feedback_test"
"","","","","","psychophysics","343","675745","0.0-13.0-0.0-1.0-0.1-0.91","508","","j","","","","","","","","","","","","","key","j","16.65583673469385","768","428","j","true","img/C_ambi40.png","三角","image_first",""
"","","","","","html-keyboard-response","344","676048","0.0-13.0-0.0-1.0-0.1-1.91","null","<span style='color:GreenYellow; font-size: 70px;'>正确! </span>","null","","","","","","","","","","","","","","","","","","","","","","","feedback_test"
"","","","","","psychophysics","345","677942","0.0-13.0-0.0-1.0-0.1-0.92","743","","j","","","","","","","","","","","","","key","j","16.5435357142851","768","428","j","true","img/T_ambi40.png","圆形","image_first",""
"","","","","","html-keyboard-response","346","678256","0.0-13.0-0.0-1.0-0.1-1.92","null","<span style='color:GreenYellow; font-size: 70px;'>正确! </span>","null","","","","","","","","","","","","","","","","","","","","","","","feedback_test"
"","","","","","psychophysics","347","680189","0.0-13.0-0.0-1.0-0.1-0.93","782","","j","","","","","","","","","","","","","key","j","16.66198260869588","768","428","j","true","img/T_ambi40.png","方形","image_first",""
"","","","","","html-keyboard-response","348","680496","0.0-13.0-0.0-1.0-0.1-1.93","null","<span style='color:GreenYellow; font-size: 70px;'>正确! </span>","null","","","","","","","","","","","","","","","","","","","","","","","feedback_test"
"","","","","","psychophysics","349","682488","0.0-13.0-0.0-1.0-0.1-0.94","841","","f","","","","","","","","","","","","","key","f","16.544533898305126","768","428","f","true","img/S_ambi40.png","方形","image_first",""
"","","","","","html-keyboard-response","350","682790","0.0-13.0-0.0-1.0-0.1-1.94","null","<span style='color:GreenYellow; font-size: 70px;'>正确! </span>","null","","","","","","","","","","","","","","","","","","","","","","","feedback_test"
"","","","","","psychophysics","351","684722","0.0-13.0-0.0-1.0-0.1-0.95","781","","f","","","","","","","","","","","","","key","f","16.66301739130412","768","428","f","true","img/C_ambi40.png","圆形","image_first",""
"","","","","","html-keyboard-response","352","685030","0.0-13.0-0.0-1.0-0.1-1.95","null","<span style='color:GreenYellow; font-size: 70px;'>正确! </span>","null","","","","","","","","","","","","","","","","","","","","","","","feedback_test"
"","","","","","psychophysics","353","686774","0.0-13.0-0.0-1.0-0.1-0.96","593","","f","","","","","","","","","","","","","key","f","16.66152427184454","768","428","f","true","img/S_ambi40.png","方形","image_first",""
"","","","","","html-keyboard-response","354","687086","0.0-13.0-0.0-1.0-0.1-1.96","null","<span style='color:GreenYellow; font-size: 70px;'>正确! </span>","null","","","","","","","","","","","","","","","","","","","","","","","feedback_test"
"","","","","","psychophysics","355","688759","0.0-13.0-0.0-1.0-0.1-0.97","522","","j","","","","","","","","","","","","","key","j","16.653464646465522","768","428","j","true","img/C_ambi40.png","三角","image_first",""
"","","","","","html-keyboard-response","356","689071","0.0-13.0-0.0-1.0-0.1-1.97","null","<span style='color:GreenYellow; font-size: 70px;'>正确! </span>","null","","","","","","","","","","","","","","","","","","","","","","","feedback_test"
"","","","","","psychophysics","357","690787","0.0-13.0-0.0-1.0-0.1-0.98","565","","j","","","","","","","","","","","","","key","j","16.663225490195842","768","428","j","true","img/S_ambi40.png","圆形","image_first",""
"","","","","","html-keyboard-response","358","691102","0.0-13.0-0.0-1.0-0.1-1.98","null","<span style='color:GreenYellow; font-size: 70px;'>正确! </span>","null","","","","","","","","","","","","","","","","","","","","","","","feedback_test"
"","","","","","psychophysics","359","692800","0.0-13.0-0.0-1.0-0.1-0.99","546","","f","","","","","","","","","","","","","key","f","16.65885148514846","768","428","f","true","img/C_ambi40.png","圆形","image_first",""
"","","","","","html-keyboard-response","360","693114","0.0-13.0-0.0-1.0-0.1-1.99","null","<span style='color:GreenYellow; font-size: 70px;'>正确! </span>","null","","","","","","","","","","","","","","","","","","","","","","","feedback_test"
"","","","","","psychophysics","361","694772","0.0-13.0-0.0-1.0-0.1-0.100","507","","f","","","","","","","","","","","","","key","f","16.657989795918443","768","428","f","true","img/T_ambi40.png","三角","image_first",""
"","","","","","html-keyboard-response","362","695073","0.0-13.0-0.0-1.0-0.1-1.100","null","<span style='color:GreenYellow; font-size: 70px;'>正确! </span>","null","","","","","","","","","","","","","","","","","","","","","","","feedback_test"
"","","","","","psychophysics","363","696739","0.0-13.0-0.0-1.0-0.1-0.101","515","","f","","","","","","","","","","","","","key","f","16.519765306121613","768","428","f","true","img/T_ambi40.png","三角","image_first",""
"","","","","","html-keyboard-response","364","697042","0.0-13.0-0.0-1.0-0.1-1.101","null","<span style='color:GreenYellow; font-size: 70px;'>正确! </span>","null","","","","","","","","","","","","","","","","","","","","","","","feedback_test"
"","","","","","psychophysics","365","698807","0.0-13.0-0.0-1.0-0.1-0.102","614","","j","","","","","","","","","","","","","key","j","16.651304761904647","768","428","j","true","img/C_ambi40.png","方形","image_first",""
"","","","","","html-keyboard-response","366","699121","0.0-13.0-0.0-1.0-0.1-1.102","null","<span style='color:GreenYellow; font-size: 70px;'>正确! </span>","null","","","","","","","","","","","","","","","","","","","","","","","feedback_test"
"","","","","","psychophysics","367","700897","0.0-13.0-0.0-1.0-0.1-0.103","624","","j","","","","","","","","","","","","","key","j","16.52347619047588","768","428","j","true","img/S_ambi40.png","三角","image_first",""
"","","","","","html-keyboard-response","368","701211","0.0-13.0-0.0-1.0-0.1-1.103","null","<span style='color:GreenYellow; font-size: 70px;'>正确! </span>","null","","","","","","","","","","","","","","","","","","","","","","","feedback_test"
"","","","","","psychophysics","369","703383","0.0-13.0-0.0-1.0-0.1-0.104","1020","","j","","","","","","","","","","","","","key","j","16.657713178294358","768","428","j","true","img/T_ambi40.png","方形","image_first",""
"","","","","","html-keyboard-response","370","703687","0.0-13.0-0.0-1.0-0.1-1.104","null","<span style='color:GreenYellow; font-size: 70px;'>正确! </span>","null","","","","","","","","","","","","","","","","","","","","","","","feedback_test"
"","","","","","psychophysics","371","705429","0.0-13.0-0.0-1.0-0.1-0.105","591","","j","","","","","","","","","","","","","key","j","16.658669902912557","768","428","j","true","img/T_ambi40.png","圆形","image_first",""
"","","","","","html-keyboard-response","372","705739","0.0-13.0-0.0-1.0-0.1-1.105","null","<span style='color:GreenYellow; font-size: 70px;'>正确! </span>","null","","","","","","","","","","","","","","","","","","","","","","","feedback_test"
"","","","","","psychophysics","373","707464","0.0-13.0-0.0-1.0-0.1-0.106","574","","f","","","","","","","","","","","","","key","f","16.66065686274498","768","428","f","true","img/S_ambi40.png","方形","image_first",""
"","","","","","html-keyboard-response","374","707766","0.0-13.0-0.0-1.0-0.1-1.106","null","<span style='color:GreenYellow; font-size: 70px;'>正确! </span>","null","","","","","","","","","","","","","","","","","","","","","","","feedback_test"
"","","","","","psychophysics","375","709388","0.0-13.0-0.0-1.0-0.1-0.107","470","","f","","","","","","","","","","","","","key","f","16.666350515464504","768","428","f","true","img/C_ambi40.png","圆形","image_first",""
"","","","","","html-keyboard-response","376","709689","0.0-13.0-0.0-1.0-0.1-1.107","null","<span style='color:GreenYellow; font-size: 70px;'>正确! </span>","null","","","","","","","","","","","","","","","","","","","","","","","feedback_test"
"","","","","","psychophysics","377","711367","0.0-13.0-0.0-1.0-0.1-0.108","527","","j","","","","","","","","","","","","","key","j","16.65618999999948","768","428","j","true","img/T_ambi40.png","圆形","image_first",""
"","","","","","html-keyboard-response","378","711681","0.0-13.0-0.0-1.0-0.1-1.108","null","<span style='color:GreenYellow; font-size: 70px;'>正确! </span>","null","","","","","","","","","","","","","","","","","","","","","","","feedback_test"
"","","","","","psychophysics","379","713420","0.0-13.0-0.0-1.0-0.1-0.109","588","","f","","","","","","","","","","","","","key","f","16.660086538461307","768","428","f","true","img/S_ambi40.png","方形","image_first",""
"","","","","","html-keyboard-response","380","713737","0.0-13.0-0.0-1.0-0.1-1.109","null","<span style='color:GreenYellow; font-size: 70px;'>正确! </span>","null","","","","","","","","","","","","","","","","","","","","","","","feedback_test"
"","","","","","psychophysics","381","715477","0.0-13.0-0.0-1.0-0.1-0.110","589","","j","","","","","","","","","","","","","key","j","16.653572815533693","768","428","j","true","img/C_ambi40.png","方形","image_first",""
"","","","","","html-keyboard-response","382","715780","0.0-13.0-0.0-1.0-0.1-1.110","null","<span style='color:GreenYellow; font-size: 70px;'>正确! </span>","null","","","","","","","","","","","","","","","","","","","","","","","feedback_test"
"","","","","","psychophysics","383","717622","0.0-13.0-0.0-1.0-0.1-0.111","691","","f","","","","","","","","","","","","","key","f","16.660027272727298","768","428","f","true","img/C_ambi40.png","圆形","image_first",""
"","","","","","html-keyboard-response","384","717932","0.0-13.0-0.0-1.0-0.1-1.111","null","<span style='color:GreenYellow; font-size: 70px;'>正确! </span>","null","","","","","","","","","","","","","","","","","","","","","","","feedback_test"
"","","","","","psychophysics","385","720048","0.0-13.0-0.0-1.0-0.1-0.112","965","","j","","","","","","","","","","","","","key","j","16.659166666667073","768","428","j","true","img/S_ambi40.png","圆形","image_first",""
"","","","","","html-keyboard-response","386","720354","0.0-13.0-0.0-1.0-0.1-1.112","null","<span style='color:GreenYellow; font-size: 70px;'>正确! </span>","null","","","","","","","","","","","","","","","","","","","","","","","feedback_test"
"","","","","","psychophysics","387","722094","0.0-13.0-0.0-1.0-0.1-0.113","589","","f","","","","","","","","","","","","","key","f","16.65894174757323","768","428","f","true","img/S_ambi40.png","方形","image_first",""
"","","","","","html-keyboard-response","388","722399","0.0-13.0-0.0-1.0-0.1-1.113","null","<span style='color:GreenYellow; font-size: 70px;'>正确! </span>","null","","","","","","","","","","","","","","","","","","","","","","","feedback_test"
"","","","","","psychophysics","389","724170","0.0-13.0-0.0-1.0-0.1-0.114","619","","f","","","","","","","","","","","","","key","f","16.655514285714542","768","428","f","true","img/T_ambi40.png","三角","image_first",""
"","","","","","html-keyboard-response","390","724472","0.0-13.0-0.0-1.0-0.1-1.114","null","<span style='color:GreenYellow; font-size: 70px;'>正确! </span>","null","","","","","","","","","","","","","","","","","","","","","","","feedback_test"
"","","","","","psychophysics","391","726208","0.0-13.0-0.0-1.0-0.1-0.115","584","","j","","","","","","","","","","","","","key","j","16.65833009708813","768","428","j","true","img/C_ambi40.png","三角","image_first",""
"","","","","","html-keyboard-response","392","726521","0.0-13.0-0.0-1.0-0.1-1.115","null","<span style='color:GreenYellow; font-size: 70px;'>正确! </span>","null","","","","","","","","","","","","","","","","","","","","","","","feedback_test"
"","","","","","psychophysics","393","728439","0.0-13.0-0.0-1.0-0.1-0.116","762","","j","","","","","","","","","","","","","key","j","16.660456140351016","768","428","j","true","img/S_ambi40.png","三角","image_first",""
"","","","","","html-keyboard-response","394","728741","0.0-13.0-0.0-1.0-0.1-1.116","null","<span style='color:GreenYellow; font-size: 70px;'>正确! </span>","null","","","","","","","","","","","","","","","","","","","","","","","feedback_test"
"","","","","","psychophysics","395","730487","0.0-13.0-0.0-1.0-0.1-0.117","595","","f","","","","","","","","","","","","","key","f","16.52529126213687","768","428","f","true","img/T_ambi40.png","三角","image_first",""
"","","","","","html-keyboard-response","396","730800","0.0-13.0-0.0-1.0-0.1-1.117","null","<span style='color:GreenYellow; font-size: 70px;'>正确! </span>","null","","","","","","","","","","","","","","","","","","","","","","","feedback_test"
"","","","","","psychophysics","397","732547","0.0-13.0-0.0-1.0-0.1-0.118","595","","f","","","","","","","","","","","","","key","f","16.659423076922675","768","428","f","true","img/C_ambi40.png","圆形","image_first",""
"","","","","","html-keyboard-response","398","732861","0.0-13.0-0.0-1.0-0.1-1.118","null","<span style='color:GreenYellow; font-size: 70px;'>正确! </span>","null","","","","","","","","","","","","","","","","","","","","","","","feedback_test"
"","","","","","psychophysics","399","734989","0.0-13.0-0.0-1.0-0.1-0.119","977","","j","","","","","","","","","","","","","key","j","16.661738095237755","768","428","j","true","img/T_ambi40.png","方形","image_first",""
"","","","","","html-keyboard-response","400","735291","0.0-13.0-0.0-1.0-0.1-1.119","null","<span style='color:GreenYellow; font-size: 70px;'>正确! </span>","null","","","","","","","","","","","","","","","","","","","","","","","feedback_test"
"","","","","","html-keyboard-response","401","738453","0.0-13.0-0.0-1.0-1.1","3161","<style>.context{color:white; font-size: 35px; line-height:40px}</style>                            <div><p class='context'>您正确回答了100% 的试次。</p><p class='context'>您的平均反应时为662毫秒。</p><p class='context'>请按任意键进入休息</p></div>"," ","","","","","","","","","","","","","","","","","","","","","","",""
"","","","","","html-button-response","402","797985","0.0-13.0-0.0-1.0-2.1","59529","
                    <p>您当前还剩余2组实验</p>
                    <p>现在是休息时间，当您结束休息后，您可以点击 结束休息 按钮 继续</p>
                    <p>建议休息时间还剩余<span id=""iii"">60</span>秒</p>","0","","","","","","","","","","","","","","","","","","","","","","",""
"","","","","","psychophysics","403","799804","0.0-13.0-0.0-1.0-0.2-0.120","666","","f","","","","","","","","","","","","","key","f","16.662509259259053","768","428","f","true","img/S_ambi40.png","方形","image_first",""
"","","","","","html-keyboard-response","404","800110","0.0-13.0-0.0-1.0-0.2-1.120","null","<span style='color:GreenYellow; font-size: 70px;'>正确! </span>","null","","","","","","","","","","","","","","","","","","","","","","","feedback_test"
"","","","","","psychophysics","405","801906","0.0-13.0-0.0-1.0-0.2-0.121","645","","j","","","","","","","","","","","","","key","j","16.528528301886563","768","428","j","true","img/T_ambi40.png","方形","image_first",""
"","","","","","html-keyboard-response","406","802213","0.0-13.0-0.0-1.0-0.2-1.121","null","<span style='color:GreenYellow; font-size: 70px;'>正确! </span>","null","","","","","","","","","","","","","","","","","","","","","","","feedback_test"
"","","","","","psychophysics","407","804049","0.0-13.0-0.0-1.0-0.2-0.122","684","","f","","","","","","","","","","","","","key","f","16.657385321101174","768","428","j","false","img/C_ambi40.png","方形","image_first",""
"","","","","","html-keyboard-response","408","804365","0.0-13.0-0.0-1.0-0.2-1.122","null","<span style='color:red; font-size: 70px;'>错误! </span>","null","","","","","","","","","","","","","","","","","","","","","","","feedback_test"
"","","","","","psychophysics","409","806195","0.0-13.0-0.0-1.0-0.2-0.123","679","","f","","","","","","","","","","","","","key","f","16.660064220183887","768","428","f","true","img/C_ambi40.png","圆形","image_first",""
"","","","","","html-keyboard-response","410","806497","0.0-13.0-0.0-1.0-0.2-1.123","null","<span style='color:GreenYellow; font-size: 70px;'>正确! </span>","null","","","","","","","","","","","","","","","","","","","","","","","feedback_test"
"","","","","","psychophysics","411","808273","0.0-13.0-0.0-1.0-0.2-0.124","624","","f","","","","","","","","","","","","","key","f","16.656495238095523","768","428","f","true","img/T_ambi40.png","三角","image_first",""
"","","","","","html-keyboard-response","412","808584","0.0-13.0-0.0-1.0-0.2-1.124","null","<span style='color:GreenYellow; font-size: 70px;'>正确! </span>","null","","","","","","","","","","","","","","","","","","","","","","","feedback_test"
"","","","","","psychophysics","413","810283","0.0-13.0-0.0-1.0-0.2-0.125","547","","j","","","","","","","","","","","","","key","j","16.659405940593828","768","428","j","true","img/C_ambi40.png","三角","image_first",""
"","","","","","html-keyboard-response","414","810590","0.0-13.0-0.0-1.0-0.2-1.125","null","<span style='color:GreenYellow; font-size: 70px;'>正确! </span>","null","","","","","","","","","","","","","","","","","","","","","","","feedback_test"
"","","","","","psychophysics","415","812412","0.0-13.0-0.0-1.0-0.2-0.126","672","","f","","","","","","","","","","","","","key","f","16.65907407407347","768","428","f","true","img/C_ambi40.png","圆形","image_first",""
"","","","","","html-keyboard-response","416","812716","0.0-13.0-0.0-1.0-0.2-1.126","null","<span style='color:GreenYellow; font-size: 70px;'>正确! </span>","null","","","","","","","","","","","","","","","","","","","","","","","feedback_test"
"","","","","","psychophysics","417","814351","0.0-13.0-0.0-1.0-0.2-0.127","484","","j","","","","","","","","","","","","","key","j","16.661216494845725","768","428","j","true","img/T_ambi40.png","圆形","image_first",""
"","","","","","html-keyboard-response","418","814652","0.0-13.0-0.0-1.0-0.2-1.127","null","<span style='color:GreenYellow; font-size: 70px;'>正确! </span>","null","","","","","","","","","","","","","","","","","","","","","","","feedback_test"
"","","","","","psychophysics","419","816426","0.0-13.0-0.0-1.0-0.2-0.128","622","","j","","","","","","","","","","","","","key","j","16.660226415094858","768","428","j","true","img/S_ambi40.png","三角","image_first",""
"","","","","","html-keyboard-response","420","816738","0.0-13.0-0.0-1.0-0.2-1.128","null","<span style='color:GreenYellow; font-size: 70px;'>正确! </span>","null","","","","","","","","","","","","","","","","","","","","","","","feedback_test"
"","","","","","psychophysics","421","818655","0.0-13.0-0.0-1.0-0.2-0.129","766","","f","","","","","","","","","","","","","key","f","16.65235964912235","768","428","f","true","img/T_ambi40.png","三角","image_first",""
"","","","","","html-keyboard-response","422","818967","0.0-13.0-0.0-1.0-0.2-1.129","null","<span style='color:GreenYellow; font-size: 70px;'>正确! </span>","null","","","","","","","","","","","","","","","","","","","","","","","feedback_test"
"","","","","","psychophysics","423","820917","0.0-13.0-0.0-1.0-0.2-0.130","798","","f","","","","","","","","","","","","","key","f","16.661853448276062","768","428","f","true","img/S_ambi40.png","方形","image_first",""
"","","","","","html-keyboard-response","424","821218","0.0-13.0-0.0-1.0-0.2-1.130","null","<span style='color:GreenYellow; font-size: 70px;'>正确! </span>","null","","","","","","","","","","","","","","","","","","","","","","","feedback_test"
"","","","","","psychophysics","425","822944","0.0-13.0-0.0-1.0-0.2-0.131","575","","j","","","","","","","","","","","","","key","j","16.663480392157318","768","428","j","true","img/S_ambi40.png","圆形","image_first",""
"","","","","","html-keyboard-response","426","823255","0.0-13.0-0.0-1.0-0.2-1.131","null","<span style='color:GreenYellow; font-size: 70px;'>正确! </span>","null","","","","","","","","","","","","","","","","","","","","","","","feedback_test"
"","","","","","psychophysics","427","824967","0.0-13.0-0.0-1.0-0.2-0.132","560","","f","","","","","","","","","","","","","key","f","16.65968316831709","768","428","f","true","img/S_ambi40.png","方形","image_first",""
"","","","","","html-keyboard-response","428","825282","0.0-13.0-0.0-1.0-0.2-1.132","null","<span style='color:GreenYellow; font-size: 70px;'>正确! </span>","null","","","","","","","","","","","","","","","","","","","","","","","feedback_test"
"","","","","","psychophysics","429","826958","0.0-13.0-0.0-1.0-0.2-0.133","525","","f","","","","","","","","","","","","","key","f","16.660100000000092","768","428","f","true","img/T_ambi40.png","三角","image_first",""
"","","","","","html-keyboard-response","430","827263","0.0-13.0-0.0-1.0-0.2-1.133","null","<span style='color:GreenYellow; font-size: 70px;'>正确! </span>","null","","","","","","","","","","","","","","","","","","","","","","","feedback_test"
"","","","","","psychophysics","431","829070","0.0-13.0-0.0-1.0-0.2-0.134","655","","j","","","","","","","","","","","","","key","j","16.666564814815366","768","428","j","true","img/C_ambi40.png","三角","image_first",""
