"success","timeout","failed_images","failed_audio","failed_video","trial_type","trial_index","time_elapsed","internal_node_id","rt","stimulus","response","value","item_width_mm","item_height_mm","item_width_px","px2mm","view_dist_mm","item_width_deg","px2deg","scale_factor","win_width_deg","win_height_deg","view_history","response_type","key_press","avg_frame_time","center_x","center_y","correct_response","correct","Image","word","condition","screen_id"
"true","false","[]","[]","[]","preload","0","388","0.0-0.0","","","","","","","","","","","","","","","","","","","","","","","","","",""
"","","","","","html-keyboard-response","1","25291","0.0-1.0","24903","
   <p>您好，欢迎参加本次实验。</p>
   <p>为充分保障您的权利，请确保您已经知晓并同意《参与实验同意书》以及《数据公开知情同意书》。</p>
   <p>如果您未见过上述内容，请咨询实验员。</p>
   <p>如果您选择继续实验，则表示您已经清楚两份知情同意书的内容并同意。</p>
   <p> <div style = ""color: green""><按任意键至下页></div> </p>
   ","enter","","","","","","","","","","","","","","","","","","","","","","",""
"","","","","","html-keyboard-response","2","28882","0.0-2.0","3590","
   <p>本实验首先需要您填写一些基本个人信息。</p>
   <p> <div style = ""color: green""><按任意键至下页></div></p>
   ","enter","","","","","","","","","","","","","","","","","","","","","","",""
"","","","","","call-function","3","28882","0.0-3.0-0.0","","","","","","","","","","","","","","","","","","","","","","","","","",""
"","","","","","survey-html-form","4","34943","0.0-3.0-1.0","6061","","{""Q0"":""35""}","","","","","","","","","","","","","","","","","","","","","","",""
"","","","","","html-button-response","5","38116","0.0-3.0-2.0","3171","<p style = 'color : white'>您的性别</p>","1","","","","","","","","","","","","","","","","","","","","","","",""
"","","","","","survey-html-form","6","43501","0.0-3.0-3.0","5385","","{""Q0"":""2002""}","","","","","","","","","","","","","","","","","","","","","","",""
"","","","","","survey-html-form","7","49461","0.0-3.0-4.0","5958","","{""Q0"":""5""}","","","","","","","","","","","","","","","","","","","","","","",""
"","","","","","virtual-chinrest","8","189776","0.0-4.0","140310","","","","85.6","53.98","537.694052111455","6.278103736943804","454.73","10.7538810422291","50","0.6658061375129226","23.1","12","","","","","","","","","","","",""
"true","","","","","fullscreen","9","194602","0.0-5.0","","","","","","","","","","","","","","","","","","","","","","","","","",""
"","","","","","instructions","10","237223","0.0-6.0","42620","","","","","","","","","","","","","","[{""page_index"":0,""viewing_time"":3871},{""page_index"":1,""viewing_time"":23239},{""page_index"":2,""viewing_time"":12236},{""page_index"":3,""viewing_time"":3274}]","","","","","","","","","","",""
"","","","","","psychophysics","11","239373","0.0-7.0-0.0-0.0","986","","f","","","","","","","","","","","","","key","f","16.657718749999958","624.8847706567168","347.41121033908047","f","true","img/S_ambi40.png","圆形","prac_image_first",""
"","","","","","html-keyboard-response","12","239689","0.0-7.0-0.0-1.0","null","<span style='color:GreenYellow; font-size: 70px;'>正确! </span>","null","","","","","","","","","","","","","","","","","","","","","","","feedback_test"
"","","","","","psychophysics","13","241591","0.0-7.0-0.0-0.1","746","","j","","","","","","","","","","","","","key","j","16.657840707964436","624.8847706567168","347.41121033908047","j","true","img/T_ambi40.png","三角","prac_image_first",""
"","","","","","html-keyboard-response","14","241893","0.0-7.0-0.0-1.1","null","<span style='color:GreenYellow; font-size: 70px;'>正确! </span>","null","","","","","","","","","","","","","","","","","","","","","","","feedback_test"
"","","","","","psychophysics","15","243880","0.0-7.0-0.0-0.2","830","","j","","","","","","","","","","","","","key","j","16.657483050847322","624.8847706567168","347.41121033908047","j","true","img/T_ambi40.png","三角","prac_image_first",""
"","","","","","html-keyboard-response","16","244196","0.0-7.0-0.0-1.2","null","<span style='color:GreenYellow; font-size: 70px;'>正确! </span>","null","","","","","","","","","","","","","","","","","","","","","","","feedback_test"
"","","","","","psychophysics","17","245923","0.0-7.0-0.0-0.3","571","","j","","","","","","","","","","","","","key","j","16.659269230769358","624.8847706567168","347.41121033908047","j","true","img/C_ambi40.png","圆形","prac_image_first",""
"","","","","","html-keyboard-response","18","246235","0.0-7.0-0.0-1.3","null","<span style='color:GreenYellow; font-size: 70px;'>正确! </span>","null","","","","","","","","","","","","","","","","","","","","","","","feedback_test"
"","","","","","psychophysics","19","248049","0.0-7.0-0.0-0.4","652","","f","","","","","","","","","","","","","key","f","16.655861111111236","624.8847706567168","347.41121033908047","j","false","img/S_ambi40.png","方形","prac_image_first",""
"","","","","","html-keyboard-response","20","248351","0.0-7.0-0.0-1.4","null","<span style='color:red; font-size: 70px;'>错误! </span>","null","","","","","","","","","","","","","","","","","","","","","","","feedback_test"
"","","","","","psychophysics","21","250227","0.0-7.0-0.0-0.5","719","","f","","","","","","","","","","","","","key","f","16.65747747747757","624.8847706567168","347.41121033908047","f","true","img/C_ambi40.png","三角","prac_image_first",""
"","","","","","html-keyboard-response","22","250543","0.0-7.0-0.0-1.5","null","<span style='color:GreenYellow; font-size: 70px;'>正确! </span>","null","","","","","","","","","","","","","","","","","","","","","","","feedback_test"
"","","","","","psychophysics","23","252565","0.0-7.0-0.0-0.6","868","","j","","","","","","","","","","","","","key","j","16.65919834710749","624.8847706567168","347.41121033908047","j","true","img/S_ambi40.png","方形","prac_image_first",""
"","","","","","html-keyboard-response","24","252881","0.0-7.0-0.0-1.6","null","<span style='color:GreenYellow; font-size: 70px;'>正确! </span>","null","","","","","","","","","","","","","","","","","","","","","","","feedback_test"
"","","","","","psychophysics","25","254671","0.0-7.0-0.0-0.7","634","","j","","","","","","","","","","","","","key","j","16.658962264150997","624.8847706567168","347.41121033908047","j","true","img/C_ambi40.png","圆形","prac_image_first",""
"","","","","","html-keyboard-response","26","254988","0.0-7.0-0.0-1.7","null","<span style='color:GreenYellow; font-size: 70px;'>正确! </span>","null","","","","","","","","","","","","","","","","","","","","","","","feedback_test"
"","","","","","psychophysics","27","256806","0.0-7.0-0.0-0.8","663","","f","","","","","","","","","","","","","key","f","16.65736111111107","624.8847706567168","347.41121033908047","f","true","img/C_ambi40.png","方形","prac_image_first",""
"","","","","","html-keyboard-response","28","257114","0.0-7.0-0.0-1.8","null","<span style='color:GreenYellow; font-size: 70px;'>正确! </span>","null","","","","","","","","","","","","","","","","","","","","","","","feedback_test"
"","","","","","psychophysics","29","259224","0.0-7.0-0.0-0.9","952","","f","","","","","","","","","","","","","key","f","16.657222222222202","624.8847706567168","347.41121033908047","f","true","img/S_ambi40.png","三角","prac_image_first",""
"","","","","","html-keyboard-response","30","259539","0.0-7.0-0.0-1.9","null","<span style='color:GreenYellow; font-size: 70px;'>正确! </span>","null","","","","","","","","","","","","","","","","","","","","","","","feedback_test"
"","","","","","psychophysics","31","261512","0.0-7.0-0.0-0.10","819","","f","","","","","","","","","","","","","key","f","16.65741525423714","624.8847706567168","347.41121033908047","f","true","img/T_ambi40.png","方形","prac_image_first",""
"","","","","","html-keyboard-response","32","261821","0.0-7.0-0.0-1.10","null","<span style='color:GreenYellow; font-size: 70px;'>正确! </span>","null","","","","","","","","","","","","","","","","","","","","","","","feedback_test"
"","","","","","psychophysics","33","263654","0.0-7.0-0.0-0.11","678","","f","","","","","","","","","","","","","key","f","16.563009259259193","624.8847706567168","347.41121033908047","f","true","img/T_ambi40.png","圆形","prac_image_first",""
"","","","","","html-keyboard-response","34","263966","0.0-7.0-0.0-1.11","null","<span style='color:GreenYellow; font-size: 70px;'>正确! </span>","null","","","","","","","","","","","","","","","","","","","","","","","feedback_test"
"","","","","","psychophysics","35","265783","0.0-7.0-0.0-0.12","664","","f","","","","","","","","","","","","","key","f","16.65799074074096","624.8847706567168","347.41121033908047","f","true","img/C_ambi40.png","方形","prac_image_first",""
"","","","","","html-keyboard-response","36","266094","0.0-7.0-0.0-1.12","null","<span style='color:GreenYellow; font-size: 70px;'>正确! </span>","null","","","","","","","","","","","","","","","","","","","","","","","feedback_test"
"","","","","","psychophysics","37","268071","0.0-7.0-0.0-0.13","818","","j","","","","","","","","","","","","","key","j","16.65662711864422","624.8847706567168","347.41121033908047","j","true","img/S_ambi40.png","方形","prac_image_first",""
"","","","","","html-keyboard-response","38","268379","0.0-7.0-0.0-1.13","null","<span style='color:GreenYellow; font-size: 70px;'>正确! </span>","null","","","","","","","","","","","","","","","","","","","","","","","feedback_test"
"","","","","","psychophysics","39","270320","0.0-7.0-0.0-0.14","786","","j","","","","","","","","","","","","","key","j","16.658686956521834","624.8847706567168","347.41121033908047","j","true","img/S_ambi40.png","方形","prac_image_first",""
"","","","","","html-keyboard-response","40","270627","0.0-7.0-0.0-1.14","null","<span style='color:GreenYellow; font-size: 70px;'>正确! </span>","null","","","","","","","","","","","","","","","","","","","","","","","feedback_test"
"","","","","","psychophysics","41","272370","0.0-7.0-0.0-0.15","582","","f","","","","","","","","","","","","","key","f","16.657155339805595","624.8847706567168","347.41121033908047","f","true","img/S_ambi40.png","圆形","prac_image_first",""
"","","","","","html-keyboard-response","42","272678","0.0-7.0-0.0-1.15","null","<span style='color:GreenYellow; font-size: 70px;'>正确! </span>","null","","","","","","","","","","","","","","","","","","","","","","","feedback_test"
"","","","","","psychophysics","43","274454","0.0-7.0-0.0-0.16","621","","j","","","","","","","","","","","","","key","j","16.6553738317757","624.8847706567168","347.41121033908047","j","true","img/C_ambi40.png","圆形","prac_image_first",""
"","","","","","html-keyboard-response","44","274769","0.0-7.0-0.0-1.16","null","<span style='color:GreenYellow; font-size: 70px;'>正确! </span>","null","","","","","","","","","","","","","","","","","","","","","","","feedback_test"
"","","","","","psychophysics","45","276580","0.0-7.0-0.0-0.17","659","","j","","","","","","","","","","","","","key","j","16.65773831775671","624.8847706567168","347.41121033908047","j","true","img/C_ambi40.png","圆形","prac_image_first",""
"","","","","","html-keyboard-response","46","276887","0.0-7.0-0.0-1.17","null","<span style='color:GreenYellow; font-size: 70px;'>正确! </span>","null","","","","","","","","","","","","","","","","","","","","","","","feedback_test"
"","","","","","psychophysics","47","278887","0.0-7.0-0.0-0.18","847","","f","","","","","","","","","","","","","key","f","16.657571428571337","624.8847706567168","347.41121033908047","f","true","img/C_ambi40.png","三角","prac_image_first",""
"","","","","","html-keyboard-response","48","279196","0.0-7.0-0.0-1.18","null","<span style='color:GreenYellow; font-size: 70px;'>正确! </span>","null","","","","","","","","","","","","","","","","","","","","","","","feedback_test"
"","","","","","psychophysics","49","280900","0.0-7.0-0.0-0.19","552","","j","","","","","","","","","","","","","key","j","16.657882352941098","624.8847706567168","347.41121033908047","j","true","img/T_ambi40.png","三角","prac_image_first",""
"","","","","","html-keyboard-response","50","281217","0.0-7.0-0.0-1.19","null","<span style='color:GreenYellow; font-size: 70px;'>正确! </span>","null","","","","","","","","","","","","","","","","","","","","","","","feedback_test"
"","","","","","psychophysics","51","282888","0.0-7.0-0.0-0.20","519","","j","","","","","","","","","","","","","key","j","16.663141414140952","624.8847706567168","347.41121033908047","j","true","img/T_ambi40.png","三角","prac_image_first",""
"","","","","","html-keyboard-response","52","283197","0.0-7.0-0.0-1.20","null","<span style='color:GreenYellow; font-size: 70px;'>正确! </span>","null","","","","","","","","","","","","","","","","","","","","","","","feedback_test"
"","","","","","psychophysics","53","285001","0.0-7.0-0.0-0.21","645","","f","","","","","","","","","","","","","key","f","16.657675925925744","624.8847706567168","347.41121033908047","f","true","img/T_ambi40.png","圆形","prac_image_first",""
"","","","","","html-keyboard-response","54","285310","0.0-7.0-0.0-1.21","null","<span style='color:GreenYellow; font-size: 70px;'>正确! </span>","null","","","","","","","","","","","","","","","","","","","","","","","feedback_test"
"","","","","","psychophysics","55","287242","0.0-7.0-0.0-0.22","780","","f","","","","","","","","","","","","","key","f","16.661200000000004","624.8847706567168","347.41121033908047","f","true","img/T_ambi40.png","方形","prac_image_first",""
"","","","","","html-keyboard-response","56","287547","0.0-7.0-0.0-1.22","null","<span style='color:GreenYellow; font-size: 70px;'>正确! </span>","null","","","","","","","","","","","","","","","","","","","","","","","feedback_test"
"","","","","","psychophysics","57","289413","0.0-7.0-0.0-0.23","708","","f","","","","","","","","","","","","","key","f","16.660576576576254","624.8847706567168","347.41121033908047","f","true","img/S_ambi40.png","三角","prac_image_first",""
"","","","","","html-keyboard-response","58","289723","0.0-7.0-0.0-1.23","null","<span style='color:GreenYellow; font-size: 70px;'>正确! </span>","null","","","","","","","","","","","","","","","","","","","","","","","feedback_test"
"","","","","","html-keyboard-response","59","295812","0.0-8.0","6088","<style>.context{color:white; font-size: 35px; line-height:40px}</style>                            <div><p class='context'>您正确回答了96% 的试次。</p><p class='context'>您的平均反应时为724毫秒。</p><p class='context'>恭喜您完成这一阶段的练习。按任意键进入<span style='color: yellow;'>先文字后图形条件</span>的练习。</p></div>","n","","","","","","","","","","","","","","","","","","","","","","",""
"","","","","","psychophysics","60","297799","0.0-9.0-0.0-0.0","826","","j","","","","","","","","","","","","","key","j","16.65792372881364","624.8847706567168","347.41121033908047","j","true","img/C_ambi40.png","圆形","prac_word_first",""
"","","","","","html-keyboard-response","61","298103","0.0-9.0-0.0-1.0","null","<span style='color:GreenYellow; font-size: 70px;'>正确! </span>","null","","","","","","","","","","","","","","","","","","","","","","","feedback_test"
"","","","","","psychophysics","62","299811","0.0-9.0-0.0-0.1","558","","f","","","","","","","","","","","","","key","f","16.658450980392267","624.8847706567168","347.41121033908047","f","true","img/T_ambi40.png","方形","prac_word_first",""
"","","","","","html-keyboard-response","63","300124","0.0-9.0-0.0-1.1","null","<span style='color:GreenYellow; font-size: 70px;'>正确! </span>","null","","","","","","","","","","","","","","","","","","","","","","","feedback_test"
"","","","","","psychophysics","64","301809","0.0-9.0-0.0-0.2","525","","j","","","","","","","","","","","","","key","j","16.658790000000153","624.8847706567168","347.41121033908047","j","true","img/T_ambi40.png","三角","prac_word_first",""
"","","","","","html-keyboard-response","65","302117","0.0-9.0-0.0-1.2","null","<span style='color:GreenYellow; font-size: 70px;'>正确! </span>","null","","","","","","","","","","","","","","","","","","","","","","","feedback_test"
"","","","","","psychophysics","66","303817","0.0-9.0-0.0-0.3","547","","f","","","","","","","","","","","","","key","f","16.534139999999898","624.8847706567168","347.41121033908047","f","true","img/S_ambi40.png","三角","prac_word_first",""
"","","","","","html-keyboard-response","67","304123","0.0-9.0-0.0-1.3","null","<span style='color:GreenYellow; font-size: 70px;'>正确! </span>","null","","","","","","","","","","","","","","","","","","","","","","","feedback_test"
"","","","","","psychophysics","68","305830","0.0-9.0-0.0-0.4","550","","j","","","","","","","","","","","","","key","j","16.656323529411832","624.8847706567168","347.41121033908047","j","true","img/C_ambi40.png","圆形","prac_word_first",""
"","","","","","html-keyboard-response","69","306140","0.0-9.0-0.0-1.4","null","<span style='color:GreenYellow; font-size: 70px;'>正确! </span>","null","","","","","","","","","","","","","","","","","","","","","","","feedback_test"
"","","","","","psychophysics","70","307816","0.0-9.0-0.0-0.5","522","","f","","","","","","","","","","","","","key","f","16.660757575757366","624.8847706567168","347.41121033908047","f","true","img/T_ambi40.png","圆形","prac_word_first",""
"","","","","","html-keyboard-response","71","308123","0.0-9.0-0.0-1.5","null","<span style='color:GreenYellow; font-size: 70px;'>正确! </span>","null","","","","","","","","","","","","","","","","","","","","","","","feedback_test"
"","","","","","psychophysics","72","309940","0.0-9.0-0.0-0.6","656","","f","","","","","","","","","","","","","key","f","16.65729629629587","624.8847706567168","347.41121033908047","f","true","img/C_ambi40.png","方形","prac_word_first",""
"","","","","","html-keyboard-response","73","310252","0.0-9.0-0.0-1.6","null","<span style='color:GreenYellow; font-size: 70px;'>正确! </span>","null","","","","","","","","","","","","","","","","","","","","","","","feedback_test"
"","","","","","psychophysics","74","312029","0.0-9.0-0.0-0.7","621","","f","","","","","","","","","","","","","key","f","16.656409523809618","624.8847706567168","347.41121033908047","f","true","img/C_ambi40.png","三角","prac_word_first",""
"","","","","","html-keyboard-response","75","312335","0.0-9.0-0.0-1.7","null","<span style='color:GreenYellow; font-size: 70px;'>正确! </span>","null","","","","","","","","","","","","","","","","","","","","","","","feedback_test"
"","","","","","psychophysics","76","314017","0.0-9.0-0.0-0.8","521","","j","","","","","","","","","","","","","key","j","16.657810000000172","624.8847706567168","347.41121033908047","j","true","img/S_ambi40.png","方形","prac_word_first",""
"","","","","","html-keyboard-response","77","314325","0.0-9.0-0.0-1.8","null","<span style='color:GreenYellow; font-size: 70px;'>正确! </span>","null","","","","","","","","","","","","","","","","","","","","","","","feedback_test"
"","","","","","psychophysics","78","316072","0.0-9.0-0.0-0.9","593","","f","","","","","","","","","","","","","key","f","16.65820952380974","624.8847706567168","347.41121033908047","f","true","img/S_ambi40.png","圆形","prac_word_first",""
"","","","","","html-keyboard-response","79","316386","0.0-9.0-0.0-1.9","null","<span style='color:GreenYellow; font-size: 70px;'>正确! </span>","null","","","","","","","","","","","","","","","","","","","","","","","feedback_test"
"","","","","","psychophysics","80","318043","0.0-9.0-0.0-0.10","497","","j","","","","","","","","","","","","","key","j","16.65763265306156","624.8847706567168","347.41121033908047","j","true","img/S_ambi40.png","方形","prac_word_first",""
"","","","","","html-keyboard-response","81","318347","0.0-9.0-0.0-1.10","null","<span style='color:GreenYellow; font-size: 70px;'>正确! </span>","null","","","","","","","","","","","","","","","","","","","","","","","feedback_test"
"","","","","","psychophysics","82","320059","0.0-9.0-0.0-0.11","554","","j","","","","","","","","","","","","","key","j","16.659514851484904","624.8847706567168","347.41121033908047","j","true","img/T_ambi40.png","三角","prac_word_first",""
"","","","","","html-keyboard-response","83","320364","0.0-9.0-0.0-1.11","null","<span style='color:GreenYellow; font-size: 70px;'>正确! </span>","null","","","","","","","","","","","","","","","","","","","","","","","feedback_test"
"","","","","","psychophysics","84","321974","0.0-9.0-0.0-0.12","450","","j","","","","","","","","","","","","","key","j","16.65761052631577","624.8847706567168","347.41121033908047","j","true","img/T_ambi40.png","三角","prac_word_first",""
"","","","","","html-keyboard-response","85","322288","0.0-9.0-0.0-1.12","null","<span style='color:GreenYellow; font-size: 70px;'>正确! </span>","null","","","","","","","","","","","","","","","","","","","","","","","feedback_test"
"","","","","","psychophysics","86","323930","0.0-9.0-0.0-0.13","487","","j","","","","","","","","","","","","","key","j","16.658448979591746","624.8847706567168","347.41121033908047","j","true","img/T_ambi40.png","三角","prac_word_first",""
"","","","","","html-keyboard-response","87","324242","0.0-9.0-0.0-1.13","null","<span style='color:GreenYellow; font-size: 70px;'>正确! </span>","null","","","","","","","","","","","","","","","","","","","","","","","feedback_test"
"","","","","","psychophysics","88","325994","0.0-9.0-0.0-0.14","601","","f","","","","","","","","","","","","","key","f","16.658590476190493","624.8847706567168","347.41121033908047","f","true","img/C_ambi40.png","三角","prac_word_first",""
"","","","","","html-keyboard-response","89","326303","0.0-9.0-0.0-1.14","null","<span style='color:GreenYellow; font-size: 70px;'>正确! </span>","null","","","","","","","","","","","","","","","","","","","","","","","feedback_test"
"","","","","","psychophysics","90","328196","0.0-9.0-0.0-0.15","739","","j","","","","","","","","","","","","","key","j","16.657893805309772","624.8847706567168","347.41121033908047","j","true","img/S_ambi40.png","方形","prac_word_first",""
"","","","","","html-keyboard-response","91","328497","0.0-9.0-0.0-1.15","null","<span style='color:GreenYellow; font-size: 70px;'>正确! </span>","null","","","","","","","","","","","","","","","","","","","","","","","feedback_test"
"","","","","","psychophysics","92","330205","0.0-9.0-0.0-0.16","549","","f","","","","","","","","","","","","","key","f","16.659039603960633","624.8847706567168","347.41121033908047","f","true","img/T_ambi40.png","方形","prac_word_first",""
"","","","","","html-keyboard-response","93","330512","0.0-9.0-0.0-1.16","null","<span style='color:GreenYellow; font-size: 70px;'>正确! </span>","null","","","","","","","","","","","","","","","","","","","","","","","feedback_test"
"","","","","","psychophysics","94","333010","0.0-9.0-0.0-0.17","1343","","f","","","","","","","","","","","","","key","f","16.65628000000026","624.8847706567168","347.41121033908047","f","true","img/S_ambi40.png","圆形","prac_word_first",""
"","","","","","html-keyboard-response","95","333312","0.0-9.0-0.0-1.17","null","<span style='color:GreenYellow; font-size: 70px;'>正确! </span>","null","","","","","","","","","","","","","","","","","","","","","","","feedback_test"
"","","","","","psychophysics","96","334955","0.0-9.0-0.0-0.18","485","","j","","","","","","","","","","","","","key","j","16.659836734693773","624.8847706567168","347.41121033908047","j","true","img/S_ambi40.png","方形","prac_word_first",""
"","","","","","html-keyboard-response","97","335271","0.0-9.0-0.0-1.18","null","<span style='color:GreenYellow; font-size: 70px;'>正确! </span>","null","","","","","","","","","","","","","","","","","","","","","","","feedback_test"
"","","","","","psychophysics","98","337259","0.0-9.0-0.0-0.19","825","","j","","","","","","","","","","","","","key","j","16.65820338983055","624.8847706567168","347.41121033908047","j","true","img/C_ambi40.png","圆形","prac_word_first",""
"","","","","","html-keyboard-response","99","337563","0.0-9.0-0.0-1.19","null","<span style='color:GreenYellow; font-size: 70px;'>正确! </span>","null","","","","","","","","","","","","","","","","","","","","","","","feedback_test"
"","","","","","psychophysics","100","339230","0.0-9.0-0.0-0.20","513","","f","","","","","","","","","","","","","key","f","16.65773737373717","624.8847706567168","347.41121033908047","f","true","img/T_ambi40.png","圆形","prac_word_first",""
"","","","","","html-keyboard-response","101","339545","0.0-9.0-0.0-1.20","null","<span style='color:GreenYellow; font-size: 70px;'>正确! </span>","null","","","","","","","","","","","","","","","","","","","","","","","feedback_test"
"","","","","","psychophysics","102","341303","0.0-9.0-0.0-0.21","603","","f","","","","","","","","","","","","","key","f","16.657742857143084","624.8847706567168","347.41121033908047","f","true","img/S_ambi40.png","三角","prac_word_first",""
"","","","","","html-keyboard-response","103","341610","0.0-9.0-0.0-1.21","null","<span style='color:GreenYellow; font-size: 70px;'>正确! </span>","null","","","","","","","","","","","","","","","","","","","","","","","feedback_test"
"","","","","","psychophysics","104","343509","0.0-9.0-0.0-0.22","744","","f","","","","","","","","","","","","","key","f","16.658141592920312","624.8847706567168","347.41121033908047","f","true","img/C_ambi40.png","方形","prac_word_first",""
"","","","","","html-keyboard-response","105","343818","0.0-9.0-0.0-1.22","null","<span style='color:GreenYellow; font-size: 70px;'>正确! </span>","null","","","","","","","","","","","","","","","","","","","","","","","feedback_test"
"","","","","","psychophysics","106","345470","0.0-9.0-0.0-0.23","495","","j","","","","","","","","","","","","","key","j","16.658102040816388","624.8847706567168","347.41121033908047","j","true","img/C_ambi40.png","圆形","prac_word_first",""
"","","","","","html-keyboard-response","107","345783","0.0-9.0-0.0-1.23","null","<span style='color:GreenYellow; font-size: 70px;'>正确! </span>","null","","","","","","","","","","","","","","","","","","","","","","","feedback_test"
"","","","","","html-keyboard-response","108","349873","0.0-10.0","4088","<style>.context{color:white; font-size: 35px; line-height:40px}</style>                            <div><p class='context'>您正确回答了100% 的试次。</p><p class='context'>您的平均反应时为617毫秒。</p><p class='context'>恭喜您完成练习。按任意键进入<span style='color: yellow;'>图形和文字同时呈现条件</span>的练习。</p></div>","n","","","","","","","","","","","","","","","","","","","","","","",""
"","","","","","psychophysics","109","351949","0.0-11.0-0.0-0.0","1071","","j","","","","","","","","","","","","","key","j","16.658129032258124","624.8847706567168","347.41121033908047","j","true","img/C_ambi40.png","圆形","prac_simultaneous",""
"","","","","","html-keyboard-response","110","352250","0.0-11.0-0.0-1.0","null","<span style='color:GreenYellow; font-size: 70px;'>正确! </span>","null","","","","","","","","","","","","","","","","","","","","","","","feedback_test"
"","","","","","psychophysics","111","353805","0.0-11.0-0.0-0.1","545","","j","","","","","","","","","","","","","key","j","16.65788043478223","624.8847706567168","347.41121033908047","j","true","img/S_ambi40.png","方形","prac_simultaneous",""
"","","","","","html-keyboard-response","112","354121","0.0-11.0-0.0-1.1","null","<span style='color:GreenYellow; font-size: 70px;'>正确! </span>","null","","","","","","","","","","","","","","","","","","","","","","","feedback_test"
"","","","","","psychophysics","113","355587","0.0-11.0-0.0-0.2","461","","j","","","","","","","","","","","","","key","j","16.6583103448281","624.8847706567168","347.41121033908047","j","true","img/T_ambi40.png","三角","prac_simultaneous",""
"","","","","","html-keyboard-response","114","355892","0.0-11.0-0.0-1.2","null","<span style='color:GreenYellow; font-size: 70px;'>正确! </span>","null","","","","","","","","","","","","","","","","","","","","","","","feedback_test"
"","","","","","psychophysics","115","357456","0.0-11.0-0.0-0.3","555","","f","","","","","","","","","","","","","key","f","16.657673913043414","624.8847706567168","347.41121033908047","f","true","img/S_ambi40.png","三角","prac_simultaneous",""
"","","","","","html-keyboard-response","116","357757","0.0-11.0-0.0-1.3","null","<span style='color:GreenYellow; font-size: 70px;'>正确! </span>","null","","","","","","","","","","","","","","","","","","","","","","","feedback_test"
"","","","","","psychophysics","117","359266","0.0-11.0-0.0-0.4","508","","j","","","","","","","","","","","","","key","j","16.658067415730656","624.8847706567168","347.41121033908047","j","true","img/T_ambi40.png","三角","prac_simultaneous",""
"","","","","","html-keyboard-response","118","359575","0.0-11.0-0.0-1.4","null","<span style='color:GreenYellow; font-size: 70px;'>正确! </span>","null","","","","","","","","","","","","","","","","","","","","","","","feedback_test"
"","","","","","psychophysics","119","361117","0.0-11.0-0.0-0.5","529","","j","","","","","","","","","","","","","key","j","16.654472527472215","624.8847706567168","347.41121033908047","j","true","img/C_ambi40.png","圆形","prac_simultaneous",""
"","","","","","html-keyboard-response","120","361432","0.0-11.0-0.0-1.5","null","<span style='color:GreenYellow; font-size: 70px;'>正确! </span>","null","","","","","","","","","","","","","","","","","","","","","","","feedback_test"
"","","","","","psychophysics","121","363045","0.0-11.0-0.0-0.6","611","","f","","","","","","","","","","","","","key","f","16.655969072165107","624.8847706567168","347.41121033908047","f","true","img/C_ambi40.png","方形","prac_simultaneous",""
"","","","","","html-keyboard-response","122","363358","0.0-11.0-0.0-1.6","null","<span style='color:GreenYellow; font-size: 70px;'>正确! </span>","null","","","","","","","","","","","","","","","","","","","","","","","feedback_test"
"","","","","","psychophysics","123","364862","0.0-11.0-0.0-0.7","498","","j","","","","","","","","","","","","","key","j","16.657629213482927","624.8847706567168","347.41121033908047","j","true","img/S_ambi40.png","方形","prac_simultaneous",""
"","","","","","html-keyboard-response","124","365177","0.0-11.0-0.0-1.7","null","<span style='color:GreenYellow; font-size: 70px;'>正确! </span>","null","","","","","","","","","","","","","","","","","","","","","","","feedback_test"
"","","","","","psychophysics","125","366740","0.0-11.0-0.0-0.8","562","","f","","","","","","","","","","","","","key","f","16.6580537634411","624.8847706567168","347.41121033908047","f","true","img/S_ambi40.png","圆形","prac_simultaneous",""
"","","","","","html-keyboard-response","126","367049","0.0-11.0-0.0-1.8","null","<span style='color:GreenYellow; font-size: 70px;'>正确! </span>","null","","","","","","","","","","","","","","","","","","","","","","","feedback_test"
"","","","","","psychophysics","127","368637","0.0-11.0-0.0-0.9","581","","j","","","","","","","","","","","","","key","j","16.657244680851246","624.8847706567168","347.41121033908047","f","false","img/C_ambi40.png","三角","prac_simultaneous",""
"","","","","","html-keyboard-response","128","368947","0.0-11.0-0.0-1.9","null","<span style='color:red; font-size: 70px;'>错误! </span>","null","","","","","","","","","","","","","","","","","","","","","","","feedback_test"
"","","","","","psychophysics","129","370766","0.0-11.0-0.0-0.10","814","","f","","","","","","","","","","","","","key","f","16.811296296296252","624.8847706567168","347.41121033908047","f","true","img/T_ambi40.png","圆形","prac_simultaneous",""
"","","","","","html-keyboard-response","130","371071","0.0-11.0-0.0-1.10","null","<span style='color:GreenYellow; font-size: 70px;'>正确! </span>","null","","","","","","","","","","","","","","","","","","","","","","","feedback_test"
"","","","","","psychophysics","131","372714","0.0-11.0-0.0-0.11","639","","f","","","","","","","","","","","","","key","f","16.65561855670134","624.8847706567168","347.41121033908047","f","true","img/T_ambi40.png","方形","prac_simultaneous",""
"","","","","","html-keyboard-response","132","373015","0.0-11.0-0.0-1.11","null","<span style='color:GreenYellow; font-size: 70px;'>正确! </span>","null","","","","","","","","","","","","","","","","","","","","","","","feedback_test"
"","","","","","psychophysics","133","374527","0.0-11.0-0.0-0.12","511","","j","","","","","","","","","","","","","key","j","16.65761797752799","624.8847706567168","347.41121033908047","j","true","img/S_ambi40.png","方形","prac_simultaneous",""
"","","","","","html-keyboard-response","134","374831","0.0-11.0-0.0-1.12","null","<span style='color:GreenYellow; font-size: 70px;'>正确! </span>","null","","","","","","","","","","","","","","","","","","","","","","","feedback_test"
"","","","","","psychophysics","135","376516","0.0-11.0-0.0-0.13","684","","j","","","","","","","","","","","","","key","j","16.657490000000106","624.8847706567168","347.41121033908047","j","true","img/C_ambi40.png","圆形","prac_simultaneous",""
"","","","","","html-keyboard-response","136","376825","0.0-11.0-0.0-1.13","null","<span style='color:GreenYellow; font-size: 70px;'>正确! </span>","null","","","","","","","","","","","","","","","","","","","","","","","feedback_test"
"","","","","","psychophysics","137","378514","0.0-11.0-0.0-0.14","684","","j","","","","","","","","","","","","","key","j","16.657613861386082","624.8847706567168","347.41121033908047","j","true","img/T_ambi40.png","三角","prac_simultaneous",""
"","","","","","html-keyboard-response","138","378826","0.0-11.0-0.0-1.14","null","<span style='color:GreenYellow; font-size: 70px;'>正确! </span>","null","","","","","","","","","","","","","","","","","","","","","","","feedback_test"
"","","","","","psychophysics","139","380717","0.0-11.0-0.0-0.15","888","","f","","","","","","","","","","","","","key","f","16.555473214285616","624.8847706567168","347.41121033908047","f","true","img/T_ambi40.png","圆形","prac_simultaneous",""
"","","","","","html-keyboard-response","140","381020","0.0-11.0-0.0-1.15","null","<span style='color:GreenYellow; font-size: 70px;'>正确! </span>","null","","","","","","","","","","","","","","","","","","","","","","","feedback_test"
"","","","","","psychophysics","141","382592","0.0-11.0-0.0-0.16","568","","j","","","","","","","","","","","","","key","j","16.65982795698926","624.8847706567168","347.41121033908047","j","true","img/S_ambi40.png","方形","prac_simultaneous",""
"","","","","","html-keyboard-response","142","382897","0.0-11.0-0.0-1.16","null","<span style='color:GreenYellow; font-size: 70px;'>正确! </span>","null","","","","","","","","","","","","","","","","","","","","","","","feedback_test"
"","","","","","psychophysics","143","384542","0.0-11.0-0.0-0.17","639","","j","","","","","","","","","","","","","key","j","16.657484536082602","624.8847706567168","347.41121033908047","j","true","img/C_ambi40.png","圆形","prac_simultaneous",""
"","","","","","html-keyboard-response","144","384854","0.0-11.0-0.0-1.17","null","<span style='color:GreenYellow; font-size: 70px;'>正确! </span>","null","","","","","","","","","","","","","","","","","","","","","","","feedback_test"
"","","","","","psychophysics","145","386454","0.0-11.0-0.0-0.18","595","","f","","","","","","","","","","","","","key","f","16.659084210526444","624.8847706567168","347.41121033908047","f","true","img/C_ambi40.png","三角","prac_simultaneous",""
"","","","","","html-keyboard-response","146","386761","0.0-11.0-0.0-1.18","null","<span style='color:GreenYellow; font-size: 70px;'>正确! </span>","null","","","","","","","","","","","","","","","","","","","","","","","feedback_test"
"","","","","","psychophysics","147","388500","0.0-11.0-0.0-0.19","726","","f","","","","","","","","","","","","","key","f","16.660504854368995","624.8847706567168","347.41121033908047","f","true","img/S_ambi40.png","圆形","prac_simultaneous",""
"","","","","","html-keyboard-response","148","388805","0.0-11.0-0.0-1.19","null","<span style='color:GreenYellow; font-size: 70px;'>正确! </span>","null","","","","","","","","","","","","","","","","","","","","","","","feedback_test"
"","","","","","psychophysics","149","390440","0.0-11.0-0.0-0.20","634","","f","","","","","","","","","","","","","key","f","16.657428571428717","624.8847706567168","347.41121033908047","f","true","img/S_ambi40.png","三角","prac_simultaneous",""
"","","","","","html-keyboard-response","150","390755","0.0-11.0-0.0-1.20","null","<span style='color:GreenYellow; font-size: 70px;'>正确! </span>","null","","","","","","","","","","","","","","","","","","","","","","","feedback_test"
"","","","","","psychophysics","151","392500","0.0-11.0-0.0-0.21","744","","f","","","","","","","","","","","","","key","f","16.658038834951935","624.8847706567168","347.41121033908047","f","true","img/T_ambi40.png","方形","prac_simultaneous",""
"","","","","","html-keyboard-response","152","392806","0.0-11.0-0.0-1.21","null","<span style='color:GreenYellow; font-size: 70px;'>正确! </span>","null","","","","","","","","","","","","","","","","","","","","","","","feedback_test"
"","","","","","psychophysics","153","394511","0.0-11.0-0.0-0.22","703","","f","","","","","","","","","","","","","key","f","16.65803960396039","624.8847706567168","347.41121033908047","f","true","img/C_ambi40.png","方形","prac_simultaneous",""
"","","","","","html-keyboard-response","154","394820","0.0-11.0-0.0-1.22","null","<span style='color:GreenYellow; font-size: 70px;'>正确! </span>","null","","","","","","","","","","","","","","","","","","","","","","","feedback_test"
"","","","","","psychophysics","155","396400","0.0-11.0-0.0-0.23","579","","j","","","","","","","","","","","","","key","j","16.65879569892516","624.8847706567168","347.41121033908047","j","true","img/T_ambi40.png","三角","prac_simultaneous",""
"","","","","","html-keyboard-response","156","396706","0.0-11.0-0.0-1.23","null","<span style='color:GreenYellow; font-size: 70px;'>正确! </span>","null","","","","","","","","","","","","","","","","","","","","","","","feedback_test"
"","","","","","html-keyboard-response","157","404370","0.0-12.0","7661","<style>.context{color:white; font-size: 35px; line-height:40px}</style>                            <div><p class='context'>您正确回答了96% 的试次。</p><p class='context'>您的平均反应时为641毫秒。</p><p class='context'>恭喜您完成练习。按任意键进入正式实验。</p><p class='footer' style='font-size: 35px; line-height:40px;'>请在进入正式实验实验之前将您的<span style='color: lightgreen;'>食指</span>放在电脑键盘的相应键位上进行按键。</p>"," ","","","","","","","","","","","","","","","","","","","","","","",""
"","","","","","html-keyboard-response","158","407475","0.0-13.0-2.0-0.0","3102","
    <p>请您将手指放在按键上，准备进入呈现顺序为<span style='color: yellow;'>图形和文字同时呈现条件</span>的正式匹配任务</p>
    <p> <div style = ""color: green""><按任意键进入下一阶段的匹配任务></div></p>
    "," ","","","","","","","","","","","","","","","","","","","","","","",""
"","","","","","psychophysics","159","409453","0.0-13.0-2.0-1.0-0.0-0.0","976","","j","","","","","","","","","","","","","key","j","16.65882203389863","624.8847706567168","347.41121033908047","j","true","img/S_ambi40.png","方形","simultaneous",""
"","","","","","html-keyboard-response","160","409761","0.0-13.0-2.0-1.0-0.0-1.0","null","<span style='color:GreenYellow; font-size: 70px;'>正确! </span>","null","","","","","","","","","","","","","","","","","","","","","","","feedback_test"
"","","","","","psychophysics","161","411362","0.0-13.0-2.0-1.0-0.0-0.1","598","","f","","","","","","","","","","","","","key","f","16.51014736842082","624.8847706567168","347.41121033908047","f","true","img/C_ambi40.png","三角","simultaneous",""
"","","","","","html-keyboard-response","162","411668","0.0-13.0-2.0-1.0-0.0-1.1","null","<span style='color:GreenYellow; font-size: 70px;'>正确! </span>","null","","","","","","","","","","","","","","","","","","","","","","","feedback_test"
"","","","","","psychophysics","163","413255","0.0-13.0-2.0-1.0-0.0-0.2","582","","f","","","","","","","","","","","","","key","f","16.657893617021323","624.8847706567168","347.41121033908047","f","true","img/S_ambi40.png","三角","simultaneous",""
"","","","","","html-keyboard-response","164","413564","0.0-13.0-2.0-1.0-0.0-1.2","null","<span style='color:GreenYellow; font-size: 70px;'>正确! </span>","null","","","","","","","","","","","","","","","","","","","","","","","feedback_test"
"","","","","","psychophysics","165","415084","0.0-13.0-2.0-1.0-0.0-0.3","508","","j","","","","","","","","","","","","","key","j","16.657455555555256","624.8847706567168","347.41121033908047","j","true","img/T_ambi40.png","三角","simultaneous",""
"","","","","","html-keyboard-response","166","415392","0.0-13.0-2.0-1.0-0.0-1.3","null","<span style='color:GreenYellow; font-size: 70px;'>正确! </span>","null","","","","","","","","","","","","","","","","","","","","","","","feedback_test"
"","","","","","psychophysics","167","416919","0.0-13.0-2.0-1.0-0.0-0.4","526","","j","","","","","","","","","","","","","key","j","16.65755555555548","624.8847706567168","347.41121033908047","j","true","img/S_ambi40.png","方形","simultaneous",""
"","","","","","html-keyboard-response","168","417234","0.0-13.0-2.0-1.0-0.0-1.4","null","<span style='color:GreenYellow; font-size: 70px;'>正确! </span>","null","","","","","","","","","","","","","","","","","","","","","","","feedback_test"
"","","","","","psychophysics","169","418964","0.0-13.0-2.0-1.0-0.0-0.5","723","","j","","","","","","","","","","","","","key","j","16.65718446601944","624.8847706567168","347.41121033908047","j","true","img/C_ambi40.png","圆形","simultaneous",""
"","","","","","html-keyboard-response","170","419266","0.0-13.0-2.0-1.0-0.0-1.5","null","<span style='color:GreenYellow; font-size: 70px;'>正确! </span>","null","","","","","","","","","","","","","","","","","","","","","","","feedback_test"
"","","","","","psychophysics","171","420767","0.0-13.0-2.0-1.0-0.0-0.6","493","","f","","","","","","","","","","","","","key","f","16.658887640449475","624.8847706567168","347.41121033908047","f","true","img/C_ambi40.png","方形","simultaneous",""
"","","","","","html-keyboard-response","172","421082","0.0-13.0-2.0-1.0-0.0-1.6","null","<span style='color:GreenYellow; font-size: 70px;'>正确! </span>","null","","","","","","","","","","","","","","","","","","","","","","","feedback_test"
"","","","","","psychophysics","173","422742","0.0-13.0-2.0-1.0-0.0-0.7","653","","j","","","","","","","","","","","","","key","j","16.657696969696612","624.8847706567168","347.41121033908047","j","true","img/C_ambi40.png","圆形","simultaneous",""
"","","","","","html-keyboard-response","174","423054","0.0-13.0-2.0-1.0-0.0-1.7","null","<span style='color:GreenYellow; font-size: 70px;'>正确! </span>","null","","","","","","","","","","","","","","","","","","","","","","","feedback_test"
"","","","","","psychophysics","175","424668","0.0-13.0-2.0-1.0-0.0-0.8","614","","f","","","","","","","","","","","","","key","f","16.51373684210519","624.8847706567168","347.41121033908047","f","true","img/T_ambi40.png","方形","simultaneous",""
"","","","","","html-keyboard-response","176","424978","0.0-13.0-2.0-1.0-0.0-1.8","null","<span style='color:GreenYellow; font-size: 70px;'>正确! </span>","null","","","","","","","","","","","","","","","","","","","","","","","feedback_test"
"","","","","","psychophysics","177","426603","0.0-13.0-2.0-1.0-0.0-0.9","621","","f","","","","","","","","","","","","","key","f","16.65787500000018","624.8847706567168","347.41121033908047","f","true","img/S_ambi40.png","圆形","simultaneous",""
"","","","","","html-keyboard-response","178","426909","0.0-13.0-2.0-1.0-0.0-1.9","null","<span style='color:GreenYellow; font-size: 70px;'>正确! </span>","null","","","","","","","","","","","","","","","","","","","","","","","feedback_test"
"","","","","","psychophysics","179","428502","0.0-13.0-2.0-1.0-0.0-0.10","588","","f","","","","","","","","","","","","","key","f","16.659893617021574","624.8847706567168","347.41121033908047","f","true","img/T_ambi40.png","圆形","simultaneous",""
"","","","","","html-keyboard-response","180","428806","0.0-13.0-2.0-1.0-0.0-1.10","null","<span style='color:GreenYellow; font-size: 70px;'>正确! </span>","null","","","","","","","","","","","","","","","","","","","","","","","feedback_test"
"","","","","","psychophysics","181","430351","0.0-13.0-2.0-1.0-0.0-0.11","541","","j","","","","","","","","","","","","","key","j","16.657175824175983","624.8847706567168","347.41121033908047","j","true","img/T_ambi40.png","三角","simultaneous",""
"","","","","","html-keyboard-response","182","430655","0.0-13.0-2.0-1.0-0.0-1.11","null","<span style='color:GreenYellow; font-size: 70px;'>正确! </span>","null","","","","","","","","","","","","","","","","","","","","","","","feedback_test"
"","","","","","psychophysics","183","432619","0.0-13.0-2.0-1.0-0.0-0.12","960","","f","","","","","","","","","","","","","key","f","16.801810344827665","624.8847706567168","347.41121033908047","f","true","img/C_ambi40.png","三角","simultaneous",""
"","","","","","html-keyboard-response","184","432934","0.0-13.0-2.0-1.0-0.0-1.12","null","<span style='color:GreenYellow; font-size: 70px;'>正确! </span>","null","","","","","","","","","","","","","","","","","","","","","","","feedback_test"
"","","","","","psychophysics","185","434517","0.0-13.0-2.0-1.0-0.0-0.13","582","","f","","","","","","","","","","","","","key","f","16.656659574467724","624.8847706567168","347.41121033908047","f","true","img/S_ambi40.png","圆形","simultaneous",""
"","","","","","html-keyboard-response","186","434825","0.0-13.0-2.0-1.0-0.0-1.13","null","<span style='color:GreenYellow; font-size: 70px;'>正确! </span>","null","","","","","","","","","","","","","","","","","","","","","","","feedback_test"
"","","","","","psychophysics","187","436439","0.0-13.0-2.0-1.0-0.0-0.14","606","","j","","","","","","","","","","","","","key","j","16.665500000000367","624.8847706567168","347.41121033908047","j","true","img/S_ambi40.png","方形","simultaneous",""
"","","","","","html-keyboard-response","188","436747","0.0-13.0-2.0-1.0-0.0-1.14","null","<span style='color:GreenYellow; font-size: 70px;'>正确! </span>","null","","","","","","","","","","","","","","","","","","","","","","","feedback_test"
"","","","","","psychophysics","189","438392","0.0-13.0-2.0-1.0-0.0-0.15","644","","f","","","","","","","","","","","","","key","f","16.658494845360934","624.8847706567168","347.41121033908047","f","true","img/T_ambi40.png","圆形","simultaneous",""
"","","","","","html-keyboard-response","190","438698","0.0-13.0-2.0-1.0-0.0-1.15","null","<span style='color:GreenYellow; font-size: 70px;'>正确! </span>","null","","","","","","","","","","","","","","","","","","","","","","","feedback_test"
"","","","","","psychophysics","191","440455","0.0-13.0-2.0-1.0-0.0-0.16","756","","j","","","","","","","","","","","","","key","j","16.656807692307876","624.8847706567168","347.41121033908047","j","true","img/S_ambi40.png","方形","simultaneous",""
"","","","","","html-keyboard-response","192","440758","0.0-13.0-2.0-1.0-0.0-1.16","null","<span style='color:GreenYellow; font-size: 70px;'>正确! </span>","null","","","","","","","","","","","","","","","","","","","","","","","feedback_test"
"","","","","","psychophysics","193","442475","0.0-13.0-2.0-1.0-0.0-0.17","715","","f","","","","","","","","","","","","","key","f","16.819450980392467","624.8847706567168","347.41121033908047","f","true","img/C_ambi40.png","方形","simultaneous",""
"","","","","","html-keyboard-response","194","442776","0.0-13.0-2.0-1.0-0.0-1.17","null","<span style='color:GreenYellow; font-size: 70px;'>正确! </span>","null","","","","","","","","","","","","","","","","","","","","","","","feedback_test"
"","","","","","psychophysics","195","444359","0.0-13.0-2.0-1.0-0.0-0.18","581","","j","","","","","","","","","","","","","key","j","16.65813829787224","624.8847706567168","347.41121033908047","j","true","img/C_ambi40.png","圆形","simultaneous",""
"","","","","","html-keyboard-response","196","444670","0.0-13.0-2.0-1.0-0.0-1.18","null","<span style='color:GreenYellow; font-size: 70px;'>正确! </span>","null","","","","","","","","","","","","","","","","","","","","","","","feedback_test"
"","","","","","psychophysics","197","446326","0.0-13.0-2.0-1.0-0.0-0.19","649","","f","","","","","","","","","","","","","key","f","16.660714285714285","624.8847706567168","347.41121033908047","f","true","img/S_ambi40.png","三角","simultaneous",""
"","","","","","html-keyboard-response","198","446638","0.0-13.0-2.0-1.0-0.0-1.19","null","<span style='color:GreenYellow; font-size: 70px;'>正确! </span>","null","","","","","","","","","","","","","","","","","","","","","","","feedback_test"
"","","","","","psychophysics","199","448227","0.0-13.0-2.0-1.0-0.0-0.20","586","","j","","","","","","","","","","","","","key","j","16.65746315789446","624.8847706567168","347.41121033908047","j","true","img/C_ambi40.png","圆形","simultaneous",""
"","","","","","html-keyboard-response","200","448528","0.0-13.0-2.0-1.0-0.0-1.20","null","<span style='color:GreenYellow; font-size: 70px;'>正确! </span>","null","","","","","","","","","","","","","","","","","","","","","","","feedback_test"
"","","","","","psychophysics","201","450103","0.0-13.0-2.0-1.0-0.0-0.21","573","","j","","","","","","","","","","","","","key","j","16.657903225806425","624.8847706567168","347.41121033908047","j","true","img/T_ambi40.png","三角","simultaneous",""
"","","","","","html-keyboard-response","202","450410","0.0-13.0-2.0-1.0-0.0-1.21","null","<span style='color:GreenYellow; font-size: 70px;'>正确! </span>","null","","","","","","","","","","","","","","","","","","","","","","","feedback_test"
"","","","","","psychophysics","203","452133","0.0-13.0-2.0-1.0-0.0-0.22","720","","f","","","","","","","","","","","","","key","f","16.655147058823644","624.8847706567168","347.41121033908047","f","true","img/T_ambi40.png","方形","simultaneous",""
"","","","","","html-keyboard-response","204","452448","0.0-13.0-2.0-1.0-0.0-1.22","null","<span style='color:GreenYellow; font-size: 70px;'>正确! </span>","null","","","","","","","","","","","","","","","","","","","","","","","feedback_test"
"","","","","","psychophysics","205","454232","0.0-13.0-2.0-1.0-0.0-0.23","779","","j","","","","","","","","","","","","","key","j","16.65757547169847","624.8847706567168","347.41121033908047","j","true","img/T_ambi40.png","三角","simultaneous",""
"","","","","","html-keyboard-response","206","454549","0.0-13.0-2.0-1.0-0.0-1.23","null","<span style='color:GreenYellow; font-size: 70px;'>正确! </span>","null","","","","","","","","","","","","","","","","","","","","","","","feedback_test"
"","","","","","psychophysics","207","456248","0.0-13.0-2.0-1.0-0.0-0.24","698","","f","","","","","","","","","","","","","key","f","16.656920792079084","624.8847706567168","347.41121033908047","f","true","img/C_ambi40.png","方形","simultaneous",""
"","","","","","html-keyboard-response","208","456560","0.0-13.0-2.0-1.0-0.0-1.24","null","<span style='color:GreenYellow; font-size: 70px;'>正确! </span>","null","","","","","","","","","","","","","","","","","","","","","","","feedback_test"
"","","","","","psychophysics","209","458150","0.0-13.0-2.0-1.0-0.0-0.25","580","","f","","","","","","","","","","","","","key","f","16.65821276595779","624.8847706567168","347.41121033908047","f","true","img/T_ambi40.png","方形","simultaneous",""
"","","","","","html-keyboard-response","210","458454","0.0-13.0-2.0-1.0-0.0-1.25","null","<span style='color:GreenYellow; font-size: 70px;'>正确! </span>","null","","","","","","","","","","","","","","","","","","","","","","","feedback_test"
"","","","","","psychophysics","211","459976","0.0-13.0-2.0-1.0-0.0-0.26","520","","j","","","","","","","","","","","","","key","j","16.6577888888889","624.8847706567168","347.41121033908047","j","true","img/C_ambi40.png","圆形","simultaneous",""
"","","","","","html-keyboard-response","212","460283","0.0-13.0-2.0-1.0-0.0-1.26","null","<span style='color:GreenYellow; font-size: 70px;'>正确! </span>","null","","","","","","","","","","","","","","","","","","","","","","","feedback_test"
"","","","","","psychophysics","213","461979","0.0-13.0-2.0-1.0-0.0-0.27","694","","j","","","","","","","","","","","","","key","j","16.54335000000021","624.8847706567168","347.41121033908047","j","true","img/S_ambi40.png","方形","simultaneous",""
"","","","","","html-keyboard-response","214","462296","0.0-13.0-2.0-1.0-0.0-1.27","null","<span style='color:GreenYellow; font-size: 70px;'>正确! </span>","null","","","","","","","","","","","","","","","","","","","","","","","feedback_test"
"","","","","","psychophysics","215","463919","0.0-13.0-2.0-1.0-0.0-0.28","619","","f","","","","","","","","","","","","","key","f","16.65621428571437","624.8847706567168","347.41121033908047","f","true","img/S_ambi40.png","三角","simultaneous",""
"","","","","","html-keyboard-response","216","464230","0.0-13.0-2.0-1.0-0.0-1.28","null","<span style='color:GreenYellow; font-size: 70px;'>正确! </span>","null","","","","","","","","","","","","","","","","","","","","","","","feedback_test"
"","","","","","psychophysics","217","466202","0.0-13.0-2.0-1.0-0.0-0.29","969","","j","","","","","","","","","","","","","key","j","16.657316239316387","624.8847706567168","347.41121033908047","j","true","img/C_ambi40.png","圆形","simultaneous",""
"","","","","","html-keyboard-response","218","466518","0.0-13.0-2.0-1.0-0.0-1.29","null","<span style='color:GreenYellow; font-size: 70px;'>正确! </span>","null","","","","","","","","","","","","","","","","","","","","","","","feedback_test"
"","","","","","psychophysics","219","468109","0.0-13.0-2.0-1.0-0.0-0.30","583","","j","","","","","","","","","","","","","key","j","16.657861702127427","624.8847706567168","347.41121033908047","j","true","img/T_ambi40.png","三角","simultaneous",""
"","","","","","html-keyboard-response","220","468421","0.0-13.0-2.0-1.0-0.0-1.30","null","<span style='color:GreenYellow; font-size: 70px;'>正确! </span>","null","","","","","","","","","","","","","","","","","","","","","","","feedback_test"
"","","","","","psychophysics","221","470003","0.0-13.0-2.0-1.0-0.0-0.31","571","","j","","","","","","","","","","","","","key","j","16.65699999999978","624.8847706567168","347.41121033908047","j","true","img/S_ambi40.png","方形","simultaneous",""
"","","","","","html-keyboard-response","222","470308","0.0-13.0-2.0-1.0-0.0-1.31","null","<span style='color:GreenYellow; font-size: 70px;'>正确! </span>","null","","","","","","","","","","","","","","","","","","","","","","","feedback_test"
"","","","","","psychophysics","223","471930","0.0-13.0-2.0-1.0-0.0-0.32","617","","f","","","","","","","","","","","","","key","f","16.65627835051591","624.8847706567168","347.41121033908047","f","true","img/T_ambi40.png","圆形","simultaneous",""
"","","","","","html-keyboard-response","224","472241","0.0-13.0-2.0-1.0-0.0-1.32","null","<span style='color:GreenYellow; font-size: 70px;'>正确! </span>","null","","","","","","","","","","","","","","","","","","","","","","","feedback_test"
"","","","","","psychophysics","225","473894","0.0-13.0-2.0-1.0-0.0-0.33","648","","f","","","","","","","","","","","","","key","f","16.657642857143085","624.8847706567168","347.41121033908047","f","true","img/C_ambi40.png","三角","simultaneous",""
"","","","","","html-keyboard-response","226","474196","0.0-13.0-2.0-1.0-0.0-1.33","null","<span style='color:GreenYellow; font-size: 70px;'>正确! </span>","null","","","","","","","","","","","","","","","","","","","","","","","feedback_test"
"","","","","","psychophysics","227","475687","0.0-13.0-2.0-1.0-0.0-0.34","482","","j","","","","","","","","","","","","","key","j","16.656784090909323","624.8847706567168","347.41121033908047","j","true","img/T_ambi40.png","三角","simultaneous",""
"","","","","","html-keyboard-response","228","475989","0.0-13.0-2.0-1.0-0.0-1.34","null","<span style='color:GreenYellow; font-size: 70px;'>正确! </span>","null","","","","","","","","","","","","","","","","","","","","","","","feedback_test"
"","","","","","psychophysics","229","477598","0.0-13.0-2.0-1.0-0.0-0.35","607","","f","","","","","","","","","","","","","key","f","16.662197916666628","624.8847706567168","347.41121033908047","f","true","img/S_ambi40.png","圆形","simultaneous",""
"","","","","","html-keyboard-response","230","477900","0.0-13.0-2.0-1.0-0.0-1.35","null","<span style='color:GreenYellow; font-size: 70px;'>正确! </span>","null","","","","","","","","","","","","","","","","","","","","","","","feedback_test"
"","","","","","psychophysics","231","479394","0.0-13.0-2.0-1.0-0.0-0.36","485","","j","","","","","","","","","","","","","key","j","16.657292134831582","624.8847706567168","347.41121033908047","j","true","img/C_ambi40.png","圆形","simultaneous",""
"","","","","","html-keyboard-response","232","479697","0.0-13.0-2.0-1.0-0.0-1.36","null","<span style='color:GreenYellow; font-size: 70px;'>正确! </span>","null","","","","","","","","","","","","","","","","","","","","","","","feedback_test"
"","","","","","psychophysics","233","481291","0.0-13.0-2.0-1.0-0.0-0.37","583","","f","","","","","","","","","","","","","key","f","16.659989361702017","624.8847706567168","347.41121033908047","f","true","img/S_ambi40.png","三角","simultaneous",""
"","","","","","html-keyboard-response","234","481604","0.0-13.0-2.0-1.0-0.0-1.37","null","<span style='color:GreenYellow; font-size: 70px;'>正确! </span>","null","","","","","","","","","","","","","","","","","","","","","","","feedback_test"
"","","","","","psychophysics","235","483382","0.0-13.0-2.0-1.0-0.0-0.38","775","","f","","","","","","","","","","","","","key","f","16.65767924528336","624.8847706567168","347.41121033908047","f","true","img/T_ambi40.png","圆形","simultaneous",""
"","","","","","html-keyboard-response","236","483698","0.0-13.0-2.0-1.0-0.0-1.38","null","<span style='color:GreenYellow; font-size: 70px;'>正确! </span>","null","","","","","","","","","","","","","","","","","","","","","","","feedback_test"
"","","","","","psychophysics","237","485271","0.0-13.0-2.0-1.0-0.0-0.39","572","","j","","","","","","","","","","","","","key","j","16.65754255319158","624.8847706567168","347.41121033908047","j","true","img/S_ambi40.png","方形","simultaneous",""
"","","","","","html-keyboard-response","238","485576","0.0-13.0-2.0-1.0-0.0-1.39","null","<span style='color:GreenYellow; font-size: 70px;'>正确! </span>","null","","","","","","","","","","","","","","","","","","","","","","","feedback_test"
"","","","","","psychophysics","239","487254","0.0-13.0-2.0-1.0-0.0-0.40","672","","f","","","","","","","","","","","","","key","f","16.657767676767737","624.8847706567168","347.41121033908047","f","true","img/C_ambi40.png","三角","simultaneous",""
"","","","","","html-keyboard-response","240","487568","0.0-13.0-2.0-1.0-0.0-1.40","null","<span style='color:GreenYellow; font-size: 70px;'>正确! </span>","null","","","","","","","","","","","","","","","","","","","","","","","feedback_test"
"","","","","","psychophysics","241","489055","0.0-13.0-2.0-1.0-0.0-0.41","486","","j","","","","","","","","","","","","","key","j","16.657516853932915","624.8847706567168","347.41121033908047","j","true","img/T_ambi40.png","三角","simultaneous",""
"","","","","","html-keyboard-response","242","489364","0.0-13.0-2.0-1.0-0.0-1.41","null","<span style='color:GreenYellow; font-size: 70px;'>正确! </span>","null","","","","","","","","","","","","","","","","","","","","","","","feedback_test"
"","","","","","psychophysics","243","491416","0.0-13.0-2.0-1.0-0.0-0.42","1046","","f","","","","","","","","","","","","","key","f","16.660893442623077","624.8847706567168","347.41121033908047","f","true","img/C_ambi40.png","方形","simultaneous",""
"","","","","","html-keyboard-response","244","491722","0.0-13.0-2.0-1.0-0.0-1.42","null","<span style='color:GreenYellow; font-size: 70px;'>正确! </span>","null","","","","","","","","","","","","","","","","","","","","","","","feedback_test"
"","","","","","psychophysics","245","493259","0.0-13.0-2.0-1.0-0.0-0.43","528","","j","","","","","","","","","","","","","key","j","16.65706593406599","624.8847706567168","347.41121033908047","j","true","img/T_ambi40.png","三角","simultaneous",""
"","","","","","html-keyboard-response","246","493565","0.0-13.0-2.0-1.0-0.0-1.43","null","<span style='color:GreenYellow; font-size: 70px;'>正确! </span>","null","","","","","","","","","","","","","","","","","","","","","","","feedback_test"
"","","","","","psychophysics","247","495212","0.0-13.0-2.0-1.0-0.0-0.44","646","","f","","","","","","","","","","","","","key","f","16.657948979591755","624.8847706567168","347.41121033908047","f","true","img/T_ambi40.png","方形","simultaneous",""
"","","","","","html-keyboard-response","248","495519","0.0-13.0-2.0-1.0-0.0-1.44","null","<span style='color:GreenYellow; font-size: 70px;'>正确! </span>","null","","","","","","","","","","","","","","","","","","","","","","","feedback_test"
"","","","","","psychophysics","249","497266","0.0-13.0-2.0-1.0-0.0-0.45","740","","j","","","","","","","","","","","","","key","j","16.65756310679604","624.8847706567168","347.41121033908047","j","true","img/C_ambi40.png","圆形","simultaneous",""
"","","","","","html-keyboard-response","250","497575","0.0-13.0-2.0-1.0-0.0-1.45","null","<span style='color:GreenYellow; font-size: 70px;'>正确! </span>","null","","","","","","","","","","","","","","","","","","","","","","","feedback_test"
"","","","","","psychophysics","251","499136","0.0-13.0-2.0-1.0-0.0-0.46","553","","f","","","","","","","","","","","","","key","f","16.65745161290303","624.8847706567168","347.41121033908047","f","true","img/S_ambi40.png","圆形","simultaneous",""
"","","","","","html-keyboard-response","252","499437","0.0-13.0-2.0-1.0-0.0-1.46","null","<span style='color:GreenYellow; font-size: 70px;'>正确! </span>","null","","","","","","","","","","","","","","","","","","","","","","","feedback_test"
"","","","","","psychophysics","253","500967","0.0-13.0-2.0-1.0-0.0-0.47","519","","f","","","","","","","","","","","","","key","f","16.655847826086834","624.8847706567168","347.41121033908047","j","false","img/S_ambi40.png","方形","simultaneous",""
"","","","","","html-keyboard-response","254","501268","0.0-13.0-2.0-1.0-0.0-1.47","null","<span style='color:red; font-size: 70px;'>错误! </span>","null","","","","","","","","","","","","","","","","","","","","","","","feedback_test"
"","","","","","psychophysics","255","502947","0.0-13.0-2.0-1.0-0.0-0.48","667","","f","","","","","","","","","","","","","key","f","16.658424242424328","624.8847706567168","347.41121033908047","f","true","img/T_ambi40.png","方形","simultaneous",""
"","","","","","html-keyboard-response","256","503262","0.0-13.0-2.0-1.0-0.0-1.48","null","<span style='color:GreenYellow; font-size: 70px;'>正确! </span>","null","","","","","","","","","","","","","","","","","","","","","","","feedback_test"
"","","","","","psychophysics","257","504896","0.0-13.0-2.0-1.0-0.0-0.49","632","","f","","","","","","","","","","","","","key","f","16.657701030927445","624.8847706567168","347.41121033908047","f","true","img/T_ambi40.png","圆形","simultaneous",""
"","","","","","html-keyboard-response","258","505198","0.0-13.0-2.0-1.0-0.0-1.49","null","<span style='color:GreenYellow; font-size: 70px;'>正确! </span>","null","","","","","","","","","","","","","","","","","","","","","","","feedback_test"
"","","","","","psychophysics","259","507049","0.0-13.0-2.0-1.0-0.0-0.50","838","","j","","","","","","","","","","","","","key","j","16.6560360360361","624.8847706567168","347.41121033908047","j","true","img/C_ambi40.png","圆形","simultaneous",""
"","","","","","html-keyboard-response","260","507354","0.0-13.0-2.0-1.0-0.0-1.50","null","<span style='color:GreenYellow; font-size: 70px;'>正确! </span>","null","","","","","","","","","","","","","","","","","","","","","","","feedback_test"
"","","","","","psychophysics","261","508954","0.0-13.0-2.0-1.0-0.0-0.51","598","","j","","","","","","","","","","","","","key","j","16.659536842105446","624.8847706567168","347.41121033908047","j","true","img/S_ambi40.png","方形","simultaneous",""
"","","","","","html-keyboard-response","262","509260","0.0-13.0-2.0-1.0-0.0-1.51","null","<span style='color:GreenYellow; font-size: 70px;'>正确! </span>","null","","","","","","","","","","","","","","","","","","","","","","","feedback_test"
"","","","","","psychophysics","263","510733","0.0-13.0-2.0-1.0-0.0-0.52","472","","f","","","","","","","","","","","","","key","f","16.655806818181933","624.8847706567168","347.41121033908047","f","true","img/C_ambi40.png","方形","simultaneous",""
"","","","","","html-keyboard-response","264","511048","0.0-13.0-2.0-1.0-0.0-1.52","null","<span style='color:GreenYellow; font-size: 70px;'>正确! </span>","null","","","","","","","","","","","","","","","","","","","","","","","feedback_test"
"","","","","","psychophysics","265","512588","0.0-13.0-2.0-1.0-0.0-0.53","529","","j","","","","","","","","","","","","","key","j","16.6608681318684","624.8847706567168","347.41121033908047","j","true","img/C_ambi40.png","圆形","simultaneous",""
"","","","","","html-keyboard-response","266","512903","0.0-13.0-2.0-1.0-0.0-1.53","null","<span style='color:GreenYellow; font-size: 70px;'>正确! </span>","null","","","","","","","","","","","","","","","","","","","","","","","feedback_test"
"","","","","","psychophysics","267","514520","0.0-13.0-2.0-1.0-0.0-0.54","612","","f","","","","","","","","","","","","","key","f","16.658199999999795","624.8847706567168","347.41121033908047","f","true","img/S_ambi40.png","圆形","simultaneous",""
"","","","","","html-keyboard-response","268","514832","0.0-13.0-2.0-1.0-0.0-1.54","null","<span style='color:GreenYellow; font-size: 70px;'>正确! </span>","null","","","","","","","","","","","","","","","","","","","","","","","feedback_test"
"","","","","","psychophysics","269","516552","0.0-13.0-2.0-1.0-0.0-0.55","712","","f","","","","","","","","","","","","","key","f","16.65849019607812","624.8847706567168","347.41121033908047","f","true","img/S_ambi40.png","三角","simultaneous",""
"","","","","","html-keyboard-response","270","516856","0.0-13.0-2.0-1.0-0.0-1.55","null","<span style='color:GreenYellow; font-size: 70px;'>正确! </span>","null","","","","","","","","","","","","","","","","","","","","","","","feedback_test"
"","","","","","psychophysics","271","518362","0.0-13.0-2.0-1.0-0.0-0.56","503","","j","","","","","","","","","","","","","key","j","16.657629213482927","624.8847706567168","347.41121033908047","j","true","img/T_ambi40.png","三角","simultaneous",""
"","","","","","html-keyboard-response","272","518667","0.0-13.0-2.0-1.0-0.0-1.56","null","<span style='color:GreenYellow; font-size: 70px;'>正确! </span>","null","","","","","","","","","","","","","","","","","","","","","","","feedback_test"
"","","","","","psychophysics","273","520256","0.0-13.0-2.0-1.0-0.0-0.57","586","","f","","","","","","","","","","","","","key","f","16.657842105263722","624.8847706567168","347.41121033908047","f","true","img/C_ambi40.png","三角","simultaneous",""
"","","","","","html-keyboard-response","274","520564","0.0-13.0-2.0-1.0-0.0-1.57","null","<span style='color:GreenYellow; font-size: 70px;'>正确! </span>","null","","","","","","","","","","","","","","","","","","","","","","","feedback_test"
"","","","","","psychophysics","275","522108","0.0-13.0-2.0-1.0-0.0-0.58","542","","j","","","","","","","","","","","","","key","j","16.658195652173955","624.8847706567168","347.41121033908047","j","true","img/T_ambi40.png","三角","simultaneous",""
"","","","","","html-keyboard-response","276","522424","0.0-13.0-2.0-1.0-0.0-1.58","null","<span style='color:GreenYellow; font-size: 70px;'>正确! </span>","null","","","","","","","","","","","","","","","","","","","","","","","feedback_test"
"","","","","","psychophysics","277","524131","0.0-13.0-2.0-1.0-0.0-0.59","695","","f","","","","","","","","","","","","","key","f","16.656930693069075","624.8847706567168","347.41121033908047","j","false","img/S_ambi40.png","方形","simultaneous",""
"","","","","","html-keyboard-response","278","524438","0.0-13.0-2.0-1.0-0.0-1.59","null","<span style='color:red; font-size: 70px;'>错误! </span>","null","","","","","","","","","","","","","","","","","","","","","","","feedback_test"
"","","","","","html-keyboard-response","279","529245","0.0-13.0-2.0-1.0-1.0","4806","<style>.context{color:white; font-size: 35px; line-height:40px}</style>                            <div><p class='context'>您正确回答了97% 的试次。</p><p class='context'>您的平均反应时为637毫秒。</p><p class='context'>请按任意键进入休息</p></div>","b","","","","","","","","","","","","","","","","","","","","","","",""
"","","","","","html-button-response","280","592306","0.0-13.0-2.0-1.0-2.0","63058","
                    <p>您当前还剩余3组实验</p>
                    <p>现在是休息时间，当您结束休息后，您可以点击 结束休息 按钮 继续</p>
                    <p>建议休息时间还剩余<span id=""iii"">60</span>秒</p>","0","","","","","","","","","","","","","","","","","","","","","","",""
"","","","","","psychophysics","281","593907","0.0-13.0-2.0-1.0-0.1-0.60","592","","j","","","","","","","","","","","","","key","j","16.65529473684238","624.8847706567168","347.41121033908047","j","true","img/T_ambi40.png","三角","simultaneous",""
"","","","","","html-keyboard-response","282","594213","0.0-13.0-2.0-1.0-0.1-1.60","null","<span style='color:GreenYellow; font-size: 70px;'>正确! </span>","null","","","","","","","","","","","","","","","","","","","","","","","feedback_test"
"","","","","","psychophysics","283","595780","0.0-13.0-2.0-1.0-0.1-0.61","565","","j","","","","","","","","","","","","","key","j","16.657548387096796","624.8847706567168","347.41121033908047","f","false","img/S_ambi40.png","圆形","simultaneous",""
"","","","","","html-keyboard-response","284","596087","0.0-13.0-2.0-1.0-0.1-1.61","null","<span style='color:red; font-size: 70px;'>错误! </span>","null","","","","","","","","","","","","","","","","","","","","","","","feedback_test"
"","","","","","psychophysics","285","597772","0.0-13.0-2.0-1.0-0.1-0.62","677","","j","","","","","","","","","","","","","key","j","16.660330000000542","624.8847706567168","347.41121033908047","j","true","img/C_ambi40.png","圆形","simultaneous",""
"","","","","","html-keyboard-response","286","598079","0.0-13.0-2.0-1.0-0.1-1.62","null","<span style='color:GreenYellow; font-size: 70px;'>正确! </span>","null","","","","","","","","","","","","","","","","","","","","","","","feedback_test"
"","","","","","psychophysics","287","599604","0.0-13.0-2.0-1.0-0.1-0.63","515","","f","","","","","","","","","","","","","key","f","16.658769230770233","624.8847706567168","347.41121033908047","f","true","img/C_ambi40.png","方形","simultaneous",""
"","","","","","html-keyboard-response","288","599918","0.0-13.0-2.0-1.0-0.1-1.63","null","<span style='color:GreenYellow; font-size: 70px;'>正确! </span>","null","","","","","","","","","","","","","","","","","","","","","","","feedback_test"
"","","","","","psychophysics","289","601655","0.0-13.0-2.0-1.0-0.1-0.64","728","","j","","","","","","","","","","","","","key","j","16.660650485437092","624.8847706567168","347.41121033908047","j","true","img/S_ambi40.png","方形","simultaneous",""
"","","","","","html-keyboard-response","290","601963","0.0-13.0-2.0-1.0-0.1-1.64","null","<span style='color:GreenYellow; font-size: 70px;'>正确! </span>","null","","","","","","","","","","","","","","","","","","","","","","","feedback_test"
"","","","","","psychophysics","291","603456","0.0-13.0-2.0-1.0-0.1-0.65","480","","f","","","","","","","","","","","","","key","f","16.65924999999962","624.8847706567168","347.41121033908047","j","false","img/T_ambi40.png","三角","simultaneous",""
"","","","","","html-keyboard-response","292","603762","0.0-13.0-2.0-1.0-0.1-1.65","null","<span style='color:red; font-size: 70px;'>错误! </span>","null","","","","","","","","","","","","","","","","","","","","","","","feedback_test"
"","","","","","psychophysics","293","605464","0.0-13.0-2.0-1.0-0.1-0.66","699","","j","","","","","","","","","","","","","key","j","16.65470297029703","624.8847706567168","347.41121033908047","j","true","img/C_ambi40.png","圆形","simultaneous",""
"","","","","","html-keyboard-response","294","605769","0.0-13.0-2.0-1.0-0.1-1.66","null","<span style='color:GreenYellow; font-size: 70px;'>正确! </span>","null","","","","","","","","","","","","","","","","","","","","","","","feedback_test"
"","","","","","psychophysics","295","607371","0.0-13.0-2.0-1.0-0.1-0.67","596","","f","","","","","","","","","","","","","key","f","16.65847368420984","624.8847706567168","347.41121033908047","f","true","img/T_ambi40.png","圆形","simultaneous",""
"","","","","","html-keyboard-response","296","607674","0.0-13.0-2.0-1.0-0.1-1.67","null","<span style='color:GreenYellow; font-size: 70px;'>正确! </span>","null","","","","","","","","","","","","","","","","","","","","","","","feedback_test"
"","","","","","psychophysics","297","609349","0.0-13.0-2.0-1.0-0.1-0.68","663","","f","","","","","","","","","","","","","key","f","16.65751515151439","624.8847706567168","347.41121033908047","f","true","img/C_ambi40.png","三角","simultaneous",""
"","","","","","html-keyboard-response","298","609666","0.0-13.0-2.0-1.0-0.1-1.68","null","<span style='color:GreenYellow; font-size: 70px;'>正确! </span>","null","","","","","","","","","","","","","","","","","","","","","","","feedback_test"
"","","","","","psychophysics","299","611131","0.0-13.0-2.0-1.0-0.1-0.69","464","","j","","","","","","","","","","","","","key","j","16.66037931034459","624.8847706567168","347.41121033908047","j","true","img/S_ambi40.png","方形","simultaneous",""
"","","","","","html-keyboard-response","300","611434","0.0-13.0-2.0-1.0-0.1-1.69","null","<span style='color:GreenYellow; font-size: 70px;'>正确! </span>","null","","","","","","","","","","","","","","","","","","","","","","","feedback_test"
"","","","","","psychophysics","301","613036","0.0-13.0-2.0-1.0-0.1-0.70","600","","f","","","","","","","","","","","","","key","f","16.659515789473478","624.8847706567168","347.41121033908047","f","true","img/T_ambi40.png","方形","simultaneous",""
"","","","","","html-keyboard-response","302","613347","0.0-13.0-2.0-1.0-0.1-1.70","null","<span style='color:GreenYellow; font-size: 70px;'>正确! </span>","null","","","","","","","","","","","","","","","","","","","","","","","feedback_test"
"","","","","","psychophysics","303","614997","0.0-13.0-2.0-1.0-0.1-0.71","643","","f","","","","","","","","","","","","","key","f","16.661173469386995","624.8847706567168","347.41121033908047","f","true","img/S_ambi40.png","三角","simultaneous",""
"","","","","","html-keyboard-response","304","615299","0.0-13.0-2.0-1.0-0.1-1.71","null","<span style='color:GreenYellow; font-size: 70px;'>正确! </span>","null","","","","","","","","","","","","","","","","","","","","","","","feedback_test"
"","","","","","psychophysics","305","616868","0.0-13.0-2.0-1.0-0.1-0.72","568","","j","","","","","","","","","","","","","key","j","16.660559139785267","624.8847706567168","347.41121033908047","j","true","img/C_ambi40.png","圆形","simultaneous",""
"","","","","","html-keyboard-response","306","617173","0.0-13.0-2.0-1.0-0.1-1.72","null","<span style='color:GreenYellow; font-size: 70px;'>正确! </span>","null","","","","","","","","","","","","","","","","","","","","","","","feedback_test"
"","","","","","psychophysics","307","618789","0.0-13.0-2.0-1.0-0.1-0.73","604","","j","","","","","","","","","","","","","key","j","16.654354166666355","624.8847706567168","347.41121033908047","j","true","img/S_ambi40.png","方形","simultaneous",""
"","","","","","html-keyboard-response","308","619090","0.0-13.0-2.0-1.0-0.1-1.73","null","<span style='color:GreenYellow; font-size: 70px;'>正确! </span>","null","","","","","","","","","","","","","","","","","","","","","","","feedback_test"
"","","","","","psychophysics","309","620523","0.0-13.0-2.0-1.0-0.1-0.74","423","","j","","","","","","","","","","","","","key","j","16.66155294117737","624.8847706567168","347.41121033908047","j","true","img/S_ambi40.png","方形","simultaneous",""
"","","","","","html-keyboard-response","310","620831","0.0-13.0-2.0-1.0-0.1-1.74","null","<span style='color:GreenYellow; font-size: 70px;'>正确! </span>","null","","","","","","","","","","","","","","","","","","","","","","","feedback_test"
"","","","","","psychophysics","311","622688","0.0-13.0-2.0-1.0-0.1-0.75","854","","f","","","","","","","","","","","","","key","f","16.65936363636389","624.8847706567168","347.41121033908047","f","true","img/C_ambi40.png","方形","simultaneous",""
"","","","","","html-keyboard-response","312","622997","0.0-13.0-2.0-1.0-0.1-1.75","null","<span style='color:GreenYellow; font-size: 70px;'>正确! </span>","null","","","","","","","","","","","","","","","","","","","","","","","feedback_test"
"","","","","","psychophysics","313","624741","0.0-13.0-2.0-1.0-0.1-0.76","743","","j","","","","","","","","","","","","","key","j","16.526640776699654","624.8847706567168","347.41121033908047","j","true","img/C_ambi40.png","圆形","simultaneous",""
"","","","","","html-keyboard-response","314","625046","0.0-13.0-2.0-1.0-0.1-1.76","null","<span style='color:GreenYellow; font-size: 70px;'>正确! </span>","null","","","","","","","","","","","","","","","","","","","","","","","feedback_test"
"","","","","","psychophysics","315","626695","0.0-13.0-2.0-1.0-0.1-0.77","648","","j","","","","","","","","","","","","","key","j","16.658515463918015","624.8847706567168","347.41121033908047","j","true","img/T_ambi40.png","三角","simultaneous",""
"","","","","","html-keyboard-response","316","627001","0.0-13.0-2.0-1.0-0.1-1.77","null","<span style='color:GreenYellow; font-size: 70px;'>正确! </span>","null","","","","","","","","","","","","","","","","","","","","","","","feedback_test"
"","","","","","psychophysics","317","628574","0.0-13.0-2.0-1.0-0.1-0.78","561","","f","","","","","","","","","","","","","key","f","16.655893617021068","624.8847706567168","347.41121033908047","f","true","img/S_ambi40.png","三角","simultaneous",""
"","","","","","html-keyboard-response","318","628888","0.0-13.0-2.0-1.0-0.1-1.78","null","<span style='color:GreenYellow; font-size: 70px;'>正确! </span>","null","","","","","","","","","","","","","","","","","","","","","","","feedback_test"
"","","","","","psychophysics","319","630499","0.0-13.0-2.0-1.0-0.1-0.79","605","","f","","","","","","","","","","","","","key","f","16.65902083333276","624.8847706567168","347.41121033908047","f","true","img/T_ambi40.png","方形","simultaneous",""
"","","","","","html-keyboard-response","320","630809","0.0-13.0-2.0-1.0-0.1-1.79","null","<span style='color:GreenYellow; font-size: 70px;'>正确! </span>","null","","","","","","","","","","","","","","","","","","","","","","","feedback_test"
"","","","","","psychophysics","321","632394","0.0-13.0-2.0-1.0-0.1-0.80","583","","f","","","","","","","","","","","","","key","f","16.519553191489244","624.8847706567168","347.41121033908047","f","true","img/C_ambi40.png","三角","simultaneous",""
"","","","","","html-keyboard-response","322","632704","0.0-13.0-2.0-1.0-0.1-1.80","null","<span style='color:GreenYellow; font-size: 70px;'>正确! </span>","null","","","","","","","","","","","","","","","","","","","","","","","feedback_test"
"","","","","","psychophysics","323","634286","0.0-13.0-2.0-1.0-0.1-0.81","577","","f","","","","","","","","","","","","","key","f","16.662223404256054","624.8847706567168","347.41121033908047","f","true","img/S_ambi40.png","圆形","simultaneous",""
"","","","","","html-keyboard-response","324","634597","0.0-13.0-2.0-1.0-0.1-1.81","null","<span style='color:GreenYellow; font-size: 70px;'>正确! </span>","null","","","","","","","","","","","","","","","","","","","","","","","feedback_test"
"","","","","","psychophysics","325","636224","0.0-13.0-2.0-1.0-0.1-0.82","618","","f","","","","","","","","","","","","","key","f","16.658145833333645","624.8847706567168","347.41121033908047","f","true","img/T_ambi40.png","圆形","simultaneous",""
"","","","","","html-keyboard-response","326","636533","0.0-13.0-2.0-1.0-0.1-1.82","null","<span style='color:GreenYellow; font-size: 70px;'>正确! </span>","null","","","","","","","","","","","","","","","","","","","","","","","feedback_test"
"","","","","","psychophysics","327","638114","0.0-13.0-2.0-1.0-0.1-0.83","573","","j","","","","","","","","","","","","","key","j","16.655627659574012","624.8847706567168","347.41121033908047","j","true","img/T_ambi40.png","三角","simultaneous",""
"","","","","","html-keyboard-response","328","638414","0.0-13.0-2.0-1.0-0.1-1.83","null","<span style='color:GreenYellow; font-size: 70px;'>正确! </span>","null","","","","","","","","","","","","","","","","","","","","","","","feedback_test"
"","","","","","psychophysics","329","639987","0.0-13.0-2.0-1.0-0.1-0.84","564","","j","","","","","","","","","","","","","key","j","16.65884946236607","624.8847706567168","347.41121033908047","j","true","img/T_ambi40.png","三角","simultaneous",""
"","","","","","html-keyboard-response","330","640291","0.0-13.0-2.0-1.0-0.1-1.84","null","<span style='color:GreenYellow; font-size: 70px;'>正确! </span>","null","","","","","","","","","","","","","","","","","","","","","","","feedback_test"
"","","","","","psychophysics","331","641957","0.0-13.0-2.0-1.0-0.1-0.85","653","","j","","","","","","","","","","","","","key","j","16.657666666666046","624.8847706567168","347.41121033908047","j","true","img/C_ambi40.png","圆形","simultaneous",""
"","","","","","html-keyboard-response","332","642271","0.0-13.0-2.0-1.0-0.1-1.85","null","<span style='color:GreenYellow; font-size: 70px;'>正确! </span>","null","","","","","","","","","","","","","","","","","","","","","","","feedback_test"
"","","","","","psychophysics","333","644041","0.0-13.0-2.0-1.0-0.1-0.86","768","","f","","","","","","","","","","","","","key","f","16.657561904761852","624.8847706567168","347.41121033908047","f","true","img/T_ambi40.png","圆形","simultaneous",""
"","","","","","html-keyboard-response","334","644354","0.0-13.0-2.0-1.0-0.1-1.86","null","<span style='color:GreenYellow; font-size: 70px;'>正确! </span>","null","","","","","","","","","","","","","","","","","","","","","","","feedback_test"
"","","","","","psychophysics","335","645868","0.0-13.0-2.0-1.0-0.1-0.87","513","","j","","","","","","","","","","","","","key","j","16.658573033708002","624.8847706567168","347.41121033908047","j","true","img/S_ambi40.png","方形","simultaneous",""
"","","","","","html-keyboard-response","336","646178","0.0-13.0-2.0-1.0-0.1-1.87","null","<span style='color:GreenYellow; font-size: 70px;'>正确! </span>","null","","","","","","","","","","","","","","","","","","","","","","","feedback_test"
"","","","","","psychophysics","337","647688","0.0-13.0-2.0-1.0-0.1-0.88","502","","f","","","","","","","","","","","","","key","f","16.65878888888983","624.8847706567168","347.41121033908047","j","false","img/T_ambi40.png","三角","simultaneous",""
"","","","","","html-keyboard-response","338","647992","0.0-13.0-2.0-1.0-0.1-1.88","null","<span style='color:red; font-size: 70px;'>错误! </span>","null","","","","","","","","","","","","","","","","","","","","","","","feedback_test"
"","","","","","psychophysics","339","649655","0.0-13.0-2.0-1.0-0.1-0.89","655","","f","","","","","","","","","","","","","key","f","16.65843434343491","624.8847706567168","347.41121033908047","f","true","img/C_ambi40.png","三角","simultaneous",""
"","","","","","html-keyboard-response","340","649969","0.0-13.0-2.0-1.0-0.1-1.89","null","<span style='color:GreenYellow; font-size: 70px;'>正确! </span>","null","","","","","","","","","","","","","","","","","","","","","","","feedback_test"
"","","","","","psychophysics","341","651691","0.0-13.0-2.0-1.0-0.1-0.90","721","","f","","","","","","","","","","","","","key","f","16.65966666666631","624.8847706567168","347.41121033908047","f","true","img/C_ambi40.png","方形","simultaneous",""
"","","","","","html-keyboard-response","342","651994","0.0-13.0-2.0-1.0-0.1-1.90","null","<span style='color:GreenYellow; font-size: 70px;'>正确! </span>","null","","","","","","","","","","","","","","","","","","","","","","","feedback_test"
"","","","","","psychophysics","343","653604","0.0-13.0-2.0-1.0-0.1-0.91","608","","f","","","","","","","","","","","","","key","f","16.658593749999756","624.8847706567168","347.41121033908047","f","true","img/T_ambi40.png","方形","simultaneous",""
"","","","","","html-keyboard-response","344","653912","0.0-13.0-2.0-1.0-0.1-1.91","null","<span style='color:GreenYellow; font-size: 70px;'>正确! </span>","null","","","","","","","","","","","","","","","","","","","","","","","feedback_test"
"","","","","","psychophysics","345","655745","0.0-13.0-2.0-1.0-0.1-0.92","830","","j","","","","","","","","","","","","","key","j","16.65681651376141","624.8847706567168","347.41121033908047","j","true","img/S_ambi40.png","方形","simultaneous",""
"","","","","","html-keyboard-response","346","656055","0.0-13.0-2.0-1.0-0.1-1.92","null","<span style='color:GreenYellow; font-size: 70px;'>正确! </span>","null","","","","","","","","","","","","","","","","","","","","","","","feedback_test"
"","","","","","psychophysics","347","657570","0.0-13.0-2.0-1.0-0.1-0.93","506","","f","","","","","","","","","","","","","key","f","16.661677777778824","624.8847706567168","347.41121033908047","f","true","img/S_ambi40.png","三角","simultaneous",""
"","","","","","html-keyboard-response","348","657878","0.0-13.0-2.0-1.0-0.1-1.93","null","<span style='color:GreenYellow; font-size: 70px;'>正确! </span>","null","","","","","","","","","","","","","","","","","","","","","","","feedback_test"
"","","","","","psychophysics","349","659472","0.0-13.0-2.0-1.0-0.1-0.94","592","","j","","","","","","","","","","","","","key","j","16.52256382978769","624.8847706567168","347.41121033908047","j","true","img/C_ambi40.png","圆形","simultaneous",""
"","","","","","html-keyboard-response","350","659774","0.0-13.0-2.0-1.0-0.1-1.94","null","<span style='color:GreenYellow; font-size: 70px;'>正确! </span>","null","","","","","","","","","","","","","","","","","","","","","","","feedback_test"
"","","","","","psychophysics","351","661461","0.0-13.0-2.0-1.0-0.1-0.95","684","","f","","","","","","","","","","","","","key","f","16.65811881188091","624.8847706567168","347.41121033908047","f","true","img/S_ambi40.png","圆形","simultaneous",""
"","","","","","html-keyboard-response","352","661770","0.0-13.0-2.0-1.0-0.1-1.95","null","<span style='color:GreenYellow; font-size: 70px;'>正确! </span>","null","","","","","","","","","","","","","","","","","","","","","","","feedback_test"
"","","","","","psychophysics","353","663402","0.0-13.0-2.0-1.0-0.1-0.96","625","","f","","","","","","","","","","","","","key","f","16.657835051546968","624.8847706567168","347.41121033908047","f","true","img/T_ambi40.png","方形","simultaneous",""
"","","","","","html-keyboard-response","354","663708","0.0-13.0-2.0-1.0-0.1-1.96","null","<span style='color:GreenYellow; font-size: 70px;'>正确! </span>","null","","","","","","","","","","","","","","","","","","","","","","","feedback_test"
"","","","","","psychophysics","355","665286","0.0-13.0-2.0-1.0-0.1-0.97","576","","j","","","","","","","","","","","","","key","j","16.520881720430527","624.8847706567168","347.41121033908047","j","true","img/T_ambi40.png","三角","simultaneous",""
"","","","","","html-keyboard-response","356","665593","0.0-13.0-2.0-1.0-0.1-1.97","null","<span style='color:GreenYellow; font-size: 70px;'>正确! </span>","null","","","","","","","","","","","","","","","","","","","","","","","feedback_test"
"","","","","","psychophysics","357","667174","0.0-13.0-2.0-1.0-0.1-0.98","566","","j","","","","","","","","","","","","","key","j","16.65146236559151","624.8847706567168","347.41121033908047","j","true","img/C_ambi40.png","圆形","simultaneous",""
"","","","","","html-keyboard-response","358","667492","0.0-13.0-2.0-1.0-0.1-1.98","null","<span style='color:GreenYellow; font-size: 70px;'>正确! </span>","null","","","","","","","","","","","","","","","","","","","","","","","feedback_test"
"","","","","","psychophysics","359","669027","0.0-13.0-2.0-1.0-0.1-0.99","534","","f","","","","","","","","","","","","","key","f","16.657373626373584","624.8847706567168","347.41121033908047","f","true","img/S_ambi40.png","三角","simultaneous",""
"","","","","","html-keyboard-response","360","669332","0.0-13.0-2.0-1.0-0.1-1.99","null","<span style='color:GreenYellow; font-size: 70px;'>正确! </span>","null","","","","","","","","","","","","","","","","","","","","","","","feedback_test"
"","","","","","psychophysics","361","670943","0.0-13.0-2.0-1.0-0.1-0.100","604","","j","","","","","","","","","","","","","key","j","16.655824742267946","624.8847706567168","347.41121033908047","j","true","img/S_ambi40.png","方形","simultaneous",""
"","","","","","html-keyboard-response","362","671245","0.0-13.0-2.0-1.0-0.1-1.100","null","<span style='color:GreenYellow; font-size: 70px;'>正确! </span>","null","","","","","","","","","","","","","","","","","","","","","","","feedback_test"
"","","","","","psychophysics","363","672902","0.0-13.0-2.0-1.0-0.1-0.101","645","","j","","","","","","","","","","","","","key","j","16.65728571428561","624.8847706567168","347.41121033908047","f","false","img/C_ambi40.png","方形","simultaneous",""
"","","","","","html-keyboard-response","364","673204","0.0-13.0-2.0-1.0-0.1-1.101","null","<span style='color:red; font-size: 70px;'>错误! </span>","null","","","","","","","","","","","","","","","","","","","","","","","feedback_test"
"","","","","","psychophysics","365","674771","0.0-13.0-2.0-1.0-0.1-0.102","565","","j","","","","","","","","","","","","","key","j","16.66036956521819","624.8847706567168","347.41121033908047","f","false","img/T_ambi40.png","圆形","simultaneous",""
"","","","","","html-keyboard-response","366","675085","0.0-13.0-2.0-1.0-0.1-1.102","null","<span style='color:red; font-size: 70px;'>错误! </span>","null","","","","","","","","","","","","","","","","","","","","","","","feedback_test"
"","","","","","psychophysics","367","676822","0.0-13.0-2.0-1.0-0.1-0.103","734","","f","","","","","","","","","","","","","key","f","16.657336538461657","624.8847706567168","347.41121033908047","f","true","img/C_ambi40.png","三角","simultaneous",""
"","","","","","html-keyboard-response","368","677127","0.0-13.0-2.0-1.0-0.1-1.103","null","<span style='color:GreenYellow; font-size: 70px;'>正确! </span>","null","","","","","","","","","","","","","","","","","","","","","","","feedback_test"
"","","","","","psychophysics","369","678697","0.0-13.0-2.0-1.0-0.1-0.104","564","","f","","","","","","","","","","","","","key","f","16.658064516128533","624.8847706567168","347.41121033908047","f","true","img/S_ambi40.png","圆形","simultaneous",""
"","","","","","html-keyboard-response","370","679007","0.0-13.0-2.0-1.0-0.1-1.104","null","<span style='color:GreenYellow; font-size: 70px;'>正确! </span>","null","","","","","","","","","","","","","","","","","","","","","","","feedback_test"
"","","","","","psychophysics","371","680590","0.0-13.0-2.0-1.0-0.1-0.105","572","","j","","","","","","","","","","","","","key","j","16.65882105263146","624.8847706567168","347.41121033908047","j","true","img/S_ambi40.png","方形","simultaneous",""
"","","","","","html-keyboard-response","372","680891","0.0-13.0-2.0-1.0-0.1-1.105","null","<span style='color:GreenYellow; font-size: 70px;'>正确! </span>","null","","","","","","","","","","","","","","","","","","","","","","","feedback_test"
"","","","","","psychophysics","373","682549","0.0-13.0-2.0-1.0-0.1-0.106","648","","j","","","","","","","","","","","","","key","j","16.659642857141858","624.8847706567168","347.41121033908047","j","true","img/C_ambi40.png","圆形","simultaneous",""
"","","","","","html-keyboard-response","374","682857","0.0-13.0-2.0-1.0-0.1-1.106","null","<span style='color:GreenYellow; font-size: 70px;'>正确! </span>","null","","","","","","","","","","","","","","","","","","","","","","","feedback_test"
"","","","","","psychophysics","375","684430","0.0-13.0-2.0-1.0-0.1-0.107","564","","j","","","","","","","","","","","","","key","j","16.66168817204313","624.8847706567168","347.41121033908047","j","true","img/T_ambi40.png","三角","simultaneous",""
"","","","","","html-keyboard-response","376","684741","0.0-13.0-2.0-1.0-0.1-1.107","null","<span style='color:GreenYellow; font-size: 70px;'>正确! </span>","null","","","","","","","","","","","","","","","","","","","","","","","feedback_test"
"","","","","","psychophysics","377","686394","0.0-13.0-2.0-1.0-0.1-0.108","645","","f","","","","","","","","","","","","","key","f","16.658795918367698","624.8847706567168","347.41121033908047","f","true","img/C_ambi40.png","方形","simultaneous",""
"","","","","","html-keyboard-response","378","686705","0.0-13.0-2.0-1.0-0.1-1.108","null","<span style='color:GreenYellow; font-size: 70px;'>正确! </span>","null","","","","","","","","","","","","","","","","","","","","","","","feedback_test"
"","","","","","psychophysics","379","688544","0.0-13.0-2.0-1.0-0.1-0.109","836","","j","","","","","","","","","","","","","key","j","16.655477064219518","624.8847706567168","347.41121033908047","j","true","img/C_ambi40.png","圆形","simultaneous",""
"","","","","","html-keyboard-response","380","688859","0.0-13.0-2.0-1.0-0.1-1.109","null","<span style='color:GreenYellow; font-size: 70px;'>正确! </span>","null","","","","","","","","","","","","","","","","","","","","","","","feedback_test"
"","","","","","psychophysics","381","690421","0.0-13.0-2.0-1.0-0.1-0.110","560","","f","","","","","","","","","","","","","key","f","16.83495698924682","624.8847706567168","347.41121033908047","f","true","img/C_ambi40.png","三角","simultaneous",""
"","","","","","html-keyboard-response","382","690733","0.0-13.0-2.0-1.0-0.1-1.110","null","<span style='color:GreenYellow; font-size: 70px;'>正确! </span>","null","","","","","","","","","","","","","","","","","","","","","","","feedback_test"
"","","","","","psychophysics","383","692386","0.0-13.0-2.0-1.0-0.1-0.111","642","","j","","","","","","","","","","","","","key","j","16.65456122448977","624.8847706567168","347.41121033908047","j","true","img/T_ambi40.png","三角","simultaneous",""
"","","","","","html-keyboard-response","384","692700","0.0-13.0-2.0-1.0-0.1-1.111","null","<span style='color:GreenYellow; font-size: 70px;'>正确! </span>","null","","","","","","","","","","","","","","","","","","","","","","","feedback_test"
"","","","","","psychophysics","385","694210","0.0-13.0-2.0-1.0-0.1-0.112","507","","f","","","","","","","","","","","","","key","f","16.65807777777728","624.8847706567168","347.41121033908047","f","true","img/S_ambi40.png","三角","simultaneous",""
"","","","","","html-keyboard-response","386","694513","0.0-13.0-2.0-1.0-0.1-1.112","null","<span style='color:GreenYellow; font-size: 70px;'>正确! </span>","null","","","","","","","","","","","","","","","","","","","","","","","feedback_test"
"","","","","","psychophysics","387","696030","0.0-13.0-2.0-1.0-0.1-0.113","513","","j","","","","","","","","","","","","","key","j","16.65868888888896","624.8847706567168","347.41121033908047","j","true","img/S_ambi40.png","方形","simultaneous",""
"","","","","","html-keyboard-response","388","696346","0.0-13.0-2.0-1.0-0.1-1.113","null","<span style='color:GreenYellow; font-size: 70px;'>正确! </span>","null","","","","","","","","","","","","","","","","","","","","","","","feedback_test"
"","","","","","psychophysics","389","697953","0.0-13.0-2.0-1.0-0.1-0.114","597","","j","","","","","","","","","","","","","key","j","16.65632631578973","624.8847706567168","347.41121033908047","j","true","img/C_ambi40.png","圆形","simultaneous",""
"","","","","","html-keyboard-response","390","698262","0.0-13.0-2.0-1.0-0.1-1.114","null","<span style='color:GreenYellow; font-size: 70px;'>正确! </span>","null","","","","","","","","","","","","","","","","","","","","","","","feedback_test"
"","","","","","psychophysics","391","699895","0.0-13.0-2.0-1.0-0.1-0.115","633","","j","","","","","","","","","","","","","key","j","16.655742268042026","624.8847706567168","347.41121033908047","j","true","img/T_ambi40.png","三角","simultaneous",""
"","","","","","html-keyboard-response","392","700212","0.0-13.0-2.0-1.0-0.1-1.115","null","<span style='color:GreenYellow; font-size: 70px;'>正确! </span>","null","","","","","","","","","","","","","","","","","","","","","","","feedback_test"
"","","","","","psychophysics","393","701847","0.0-13.0-2.0-1.0-0.1-0.116","631","","j","","","","","","","","","","","","","key","j","16.65788659793877","624.8847706567168","347.41121033908047","j","true","img/S_ambi40.png","方形","simultaneous",""
"","","","","","html-keyboard-response","394","702150","0.0-13.0-2.0-1.0-0.1-1.116","null","<span style='color:GreenYellow; font-size: 70px;'>正确! </span>","null","","","","","","","","","","","","","","","","","","","","","","","feedback_test"
"","","","","","psychophysics","395","703736","0.0-13.0-2.0-1.0-0.1-0.117","580","","f","","","","","","","","","","","","","key","f","16.65637234042577","624.8847706567168","347.41121033908047","f","true","img/T_ambi40.png","方形","simultaneous",""
"","","","","","html-keyboard-response","396","704039","0.0-13.0-2.0-1.0-0.1-1.117","null","<span style='color:GreenYellow; font-size: 70px;'>正确! </span>","null","","","","","","","","","","","","","","","","","","","","","","","feedback_test"
"","","","","","psychophysics","397","705653","0.0-13.0-2.0-1.0-0.1-0.118","613","","f","","","","","","","","","","","","","key","f","16.659073684210153","624.8847706567168","347.41121033908047","f","true","img/T_ambi40.png","圆形","simultaneous",""
"","","","","","html-keyboard-response","398","705964","0.0-13.0-2.0-1.0-0.1-1.118","null","<span style='color:GreenYellow; font-size: 70px;'>正确! </span>","null","","","","","","","","","","","","","","","","","","","","","","","feedback_test"
"","","","","","psychophysics","399","707639","0.0-13.0-2.0-1.0-0.1-0.119","673","","f","","","","","","","","","","","","","key","f","16.658479999999983","624.8847706567168","347.41121033908047","f","true","img/S_ambi40.png","圆形","simultaneous",""
"","","","","","html-keyboard-response","400","707945","0.0-13.0-2.0-1.0-0.1-1.119","null","<span style='color:GreenYellow; font-size: 70px;'>正确! </span>","null","","","","","","","","","","","","","","","","","","","","","","","feedback_test"
"","","","","","html-keyboard-response","401","711450","0.0-13.0-2.0-1.0-1.1","3503","<style>.context{color:white; font-size: 35px; line-height:40px}</style>                            <div><p class='context'>您正确回答了92% 的试次。</p><p class='context'>您的平均反应时为619毫秒。</p><p class='context'>请按任意键进入休息</p></div>","m","","","","","","","","","","","","","","","","","","","","","","",""
"","","","","","html-button-response","402","777108","0.0-13.0-2.0-1.0-2.1","65655","
                    <p>您当前还剩余2组实验</p>
                    <p>现在是休息时间，当您结束休息后，您可以点击 结束休息 按钮 继续</p>
                    <p>建议休息时间还剩余<span id=""iii"">60</span>秒</p>","0","","","","","","","","","","","","","","","","","","","","","","",""
"","","","","","psychophysics","403","778675","0.0-13.0-2.0-1.0-0.2-0.120","561","","f","","","","","","","","","","","","","key","f","16.657215053763903","624.8847706567168","347.41121033908047","f","true","img/C_ambi40.png","方形","simultaneous",""
"","","","","","html-keyboard-response","404","778989","0.0-13.0-2.0-1.0-0.2-1.120","null","<span style='color:GreenYellow; font-size: 70px;'>正确! </span>","null","","","","","","","","","","","","","","","","","","","","","","","feedback_test"
"","","","","","psychophysics","405","780494","0.0-13.0-2.0-1.0-0.2-0.121","496","","j","","","","","","","","","","","","","key","j","16.661146067416432","624.8847706567168","347.41121033908047","f","false","img/T_ambi40.png","圆形","simultaneous",""
"","","","","","html-keyboard-response","406","780803","0.0-13.0-2.0-1.0-0.2-1.121","null","<span style='color:red; font-size: 70px;'>错误! </span>","null","","","","","","","","","","","","","","","","","","","","","","","feedback_test"
"","","","","","psychophysics","407","782314","0.0-13.0-2.0-1.0-0.2-0.122","501","","j","","","","","","","","","","","","","key","j","16.660011111110602","624.8847706567168","347.41121033908047","j","true","img/T_ambi40.png","三角","simultaneous",""
