"success","timeout","failed_images","failed_audio","failed_video","trial_type","trial_index","time_elapsed","internal_node_id","rt","stimulus","response","value","item_width_mm","item_height_mm","item_width_px","px2mm","view_dist_mm","item_width_deg","px2deg","scale_factor","win_width_deg","win_height_deg","view_history","response_type","key_press","avg_frame_time","center_x","center_y","correct_response","correct","Image","word","condition","screen_id"
"true","false","[]","[]","[]","preload","0","39","0.0-0.0","","","","","","","","","","","","","","","","","","","","","","","","","",""
"","","","","","html-keyboard-response","1","5367","0.0-1.0","5327","
   <p>您好，欢迎参加本次实验。</p>
   <p>为充分保障您的权利，请确保您已经知晓并同意《参与实验同意书》以及《数据公开知情同意书》。</p>
   <p>如果您未见过上述内容，请咨询实验员。</p>
   <p>如果您选择继续实验，则表示您已经清楚两份知情同意书的内容并同意。</p>
   <p> <div style = ""color: green""><按任意键至下页></div> </p>
   ","enter","","","","","","","","","","","","","","","","","","","","","","",""
"","","","","","html-keyboard-response","2","6048","0.0-2.0","681","
   <p>本实验首先需要您填写一些基本个人信息。</p>
   <p> <div style = ""color: green""><按任意键至下页></div></p>
   ","enter","","","","","","","","","","","","","","","","","","","","","","",""
"","","","","","call-function","3","6048","0.0-3.0-0.0","","","","","","","","","","","","","","","","","","","","","","","","","",""
"","","","","","survey-html-form","4","10157","0.0-3.0-1.0","4108","","{""Q0"":""27""}","","","","","","","","","","","","","","","","","","","","","","",""
"","","","","","html-button-response","5","10837","0.0-3.0-2.0","678","<p style = 'color : white'>您的性别</p>","1","","","","","","","","","","","","","","","","","","","","","","",""
"","","","","","survey-html-form","6","13797","0.0-3.0-3.0","2959","","{""Q0"":""2002""}","","","","","","","","","","","","","","","","","","","","","","",""
"","","","","","survey-html-form","7","16109","0.0-3.0-4.0","2311","","{""Q0"":""5""}","","","","","","","","","","","","","","","","","","","","","","",""
"","","","","","virtual-chinrest","8","156806","0.0-4.0","140696","","","","85.6","53.98","467.3958577594949","5.455017968545829","523.5","9.347917155189897","50","0.8065967931491397","29.8","15.08","","","","","","","","","","","",""
"true","","","","","fullscreen","9","165223","0.0-5.0","","","","","","","","","","","","","","","","","","","","","","","","","",""
"","","","","","instructions","10","270317","0.0-6.0","105092","","","","","","","","","","","","","","[{""page_index"":0,""viewing_time"":7212},{""page_index"":1,""viewing_time"":32863},{""page_index"":2,""viewing_time"":12760},{""page_index"":1,""viewing_time"":12345},{""page_index"":2,""viewing_time"":3584},{""page_index"":3,""viewing_time"":36327}]","","","","","","","","","","",""
"","","","","","psychophysics","11","272984","0.0-7.0-0.0-0.0","null","","null","","","","","","","","","","","","","key","null","16.666113924050535","768","428","f","false","img/C_ambi40.png","三角","prac_image_first",""
"","","","","","html-keyboard-response","12","273286","0.0-7.0-0.0-1.0","null","<span class='add_' style='color:yellow; font-size: 70px;'> 太慢! </span>","null","","","","","","","","","","","","","","","","","","","","","","","feedback_test"
"","","","","","psychophysics","13","275106","0.0-7.0-0.0-0.1","656","","j","","","","","","","","","","","","","key","j","16.666083333333113","768","428","j","true","img/C_ambi40.png","圆形","prac_image_first",""
"","","","","","html-keyboard-response","14","275412","0.0-7.0-0.0-1.1","null","<span style='color:GreenYellow; font-size: 70px;'>正确! </span>","null","","","","","","","","","","","","","","","","","","","","","","","feedback_test"
"","","","","","psychophysics","15","277276","0.0-7.0-0.0-0.2","709","","j","","","","","","","","","","","","","key","j","16.666036036035973","768","428","j","true","img/T_ambi40.png","三角","prac_image_first",""
"","","","","","html-keyboard-response","16","277588","0.0-7.0-0.0-1.2","null","<span style='color:GreenYellow; font-size: 70px;'>正确! </span>","null","","","","","","","","","","","","","","","","","","","","","","","feedback_test"
"","","","","","psychophysics","17","279323","0.0-7.0-0.0-0.3","576","","f","","","","","","","","","","","","","key","f","16.665825242718604","768","428","j","false","img/S_ambi40.png","方形","prac_image_first",""
"","","","","","html-keyboard-response","18","279625","0.0-7.0-0.0-1.3","null","<span style='color:red; font-size: 70px;'>错误! </span>","null","","","","","","","","","","","","","","","","","","","","","","","feedback_test"
"","","","","","psychophysics","19","281524","0.0-7.0-0.0-0.4","741","","f","","","","","","","","","","","","","key","f","16.66578761061944","768","428","f","true","img/C_ambi40.png","方形","prac_image_first",""
"","","","","","html-keyboard-response","20","281836","0.0-7.0-0.0-1.4","null","<span style='color:GreenYellow; font-size: 70px;'>正确! </span>","null","","","","","","","","","","","","","","","","","","","","","","","feedback_test"
"","","","","","psychophysics","21","283707","0.0-7.0-0.0-0.5","719","","j","","","","","","","","","","","","","key","j","16.666549549549757","768","428","f","false","img/S_ambi40.png","圆形","prac_image_first",""
"","","","","","html-keyboard-response","22","284016","0.0-7.0-0.0-1.5","null","<span style='color:red; font-size: 70px;'>错误! </span>","null","","","","","","","","","","","","","","","","","","","","","","","feedback_test"
"","","","","","psychophysics","23","285856","0.0-7.0-0.0-0.6","689","","f","","","","","","","","","","","","","key","f","16.665954128440166","768","428","j","false","img/C_ambi40.png","圆形","prac_image_first",""
"","","","","","html-keyboard-response","24","286164","0.0-7.0-0.0-1.6","null","<span style='color:red; font-size: 70px;'>错误! </span>","null","","","","","","","","","","","","","","","","","","","","","","","feedback_test"
"","","","","","psychophysics","25","287988","0.0-7.0-0.0-0.7","672","","j","","","","","","","","","","","","","key","j","16.543768518518643","768","428","j","true","img/T_ambi40.png","三角","prac_image_first",""
"","","","","","html-keyboard-response","26","288295","0.0-7.0-0.0-1.7","null","<span style='color:GreenYellow; font-size: 70px;'>正确! </span>","null","","","","","","","","","","","","","","","","","","","","","","","feedback_test"
"","","","","","psychophysics","27","290201","0.0-7.0-0.0-0.8","752","","f","","","","","","","","","","","","","key","f","16.664947368421085","768","428","f","true","img/T_ambi40.png","方形","prac_image_first",""
"","","","","","html-keyboard-response","28","290505","0.0-7.0-0.0-1.8","null","<span style='color:GreenYellow; font-size: 70px;'>正确! </span>","null","","","","","","","","","","","","","","","","","","","","","","","feedback_test"
"","","","","","psychophysics","29","292270","0.0-7.0-0.0-0.9","613","","f","","","","","","","","","","","","","key","f","16.66485714285712","768","428","f","true","img/S_ambi40.png","三角","prac_image_first",""
"","","","","","html-keyboard-response","30","292576","0.0-7.0-0.0-1.9","null","<span style='color:GreenYellow; font-size: 70px;'>正确! </span>","null","","","","","","","","","","","","","","","","","","","","","","","feedback_test"
"","","","","","psychophysics","31","294381","0.0-7.0-0.0-0.10","649","","j","","","","","","","","","","","","","key","j","16.666056074766185","768","428","j","true","img/S_ambi40.png","方形","prac_image_first",""
"","","","","","html-keyboard-response","32","294693","0.0-7.0-0.0-1.10","null","<span style='color:GreenYellow; font-size: 70px;'>正确! </span>","null","","","","","","","","","","","","","","","","","","","","","","","feedback_test"
"","","","","","psychophysics","33","296473","0.0-7.0-0.0-0.11","624","","f","","","","","","","","","","","","","key","f","16.66508490566048","768","428","f","true","img/T_ambi40.png","圆形","prac_image_first",""
"","","","","","html-keyboard-response","34","296776","0.0-7.0-0.0-1.11","null","<span style='color:GreenYellow; font-size: 70px;'>正确! </span>","null","","","","","","","","","","","","","","","","","","","","","","","feedback_test"
"","","","","","psychophysics","35","298629","0.0-7.0-0.0-0.12","685","","f","","","","","","","","","","","","","key","f","16.666063636363567","768","428","f","true","img/T_ambi40.png","方形","prac_image_first",""
"","","","","","html-keyboard-response","36","298937","0.0-7.0-0.0-1.12","null","<span style='color:GreenYellow; font-size: 70px;'>正确! </span>","null","","","","","","","","","","","","","","","","","","","","","","","feedback_test"
"","","","","","psychophysics","37","300765","0.0-7.0-0.0-0.13","676","","j","","","","","","","","","","","","","key","j","16.665685185184916","768","428","j","true","img/T_ambi40.png","三角","prac_image_first",""
"","","","","","html-keyboard-response","38","301069","0.0-7.0-0.0-1.13","null","<span style='color:GreenYellow; font-size: 70px;'>正确! </span>","null","","","","","","","","","","","","","","","","","","","","","","","feedback_test"
"","","","","","psychophysics","39","303002","0.0-7.0-0.0-0.14","770","","j","","","","","","","","","","","","","key","j","16.66534782608708","768","428","j","true","img/C_ambi40.png","圆形","prac_image_first",""
"","","","","","html-keyboard-response","40","303313","0.0-7.0-0.0-1.14","null","<span style='color:GreenYellow; font-size: 70px;'>正确! </span>","null","","","","","","","","","","","","","","","","","","","","","","","feedback_test"
"","","","","","psychophysics","41","305037","0.0-7.0-0.0-0.15","573","","j","","","","","","","","","","","","","key","j","16.534127450980105","768","428","j","true","img/C_ambi40.png","圆形","prac_image_first",""
"","","","","","html-keyboard-response","42","305352","0.0-7.0-0.0-1.15","null","<span style='color:GreenYellow; font-size: 70px;'>正确! </span>","null","","","","","","","","","","","","","","","","","","","","","","","feedback_test"
"","","","","","psychophysics","43","307253","0.0-7.0-0.0-0.16","749","","f","","","","","","","","","","","","","key","f","16.664831858406984","768","428","f","true","img/S_ambi40.png","圆形","prac_image_first",""
"","","","","","html-keyboard-response","44","307557","0.0-7.0-0.0-1.16","null","<span style='color:GreenYellow; font-size: 70px;'>正确! </span>","null","","","","","","","","","","","","","","","","","","","","","","","feedback_test"
"","","","","","psychophysics","45","309471","0.0-7.0-0.0-0.17","761","","f","","","","","","","","","","","","","key","f","16.665947368421097","768","428","f","true","img/C_ambi40.png","三角","prac_image_first",""
"","","","","","html-keyboard-response","46","309784","0.0-7.0-0.0-1.17","null","<span style='color:GreenYellow; font-size: 70px;'>正确! </span>","null","","","","","","","","","","","","","","","","","","","","","","","feedback_test"
"","","","","","psychophysics","47","311431","0.0-7.0-0.0-0.18","483","","j","","","","","","","","","","","","","key","j","16.665762886597616","768","428","j","true","img/S_ambi40.png","方形","prac_image_first",""
"","","","","","html-keyboard-response","48","311744","0.0-7.0-0.0-1.18","null","<span style='color:GreenYellow; font-size: 70px;'>正确! </span>","null","","","","","","","","","","","","","","","","","","","","","","","feedback_test"
"","","","","","psychophysics","49","313447","0.0-7.0-0.0-0.19","549","","f","","","","","","","","","","","","","key","f","16.666059405940565","768","428","f","true","img/S_ambi40.png","三角","prac_image_first",""
"","","","","","html-keyboard-response","50","313757","0.0-7.0-0.0-1.19","null","<span style='color:GreenYellow; font-size: 70px;'>正确! </span>","null","","","","","","","","","","","","","","","","","","","","","","","feedback_test"
"","","","","","psychophysics","51","315428","0.0-7.0-0.0-0.20","519","","j","","","","","","","","","","","","","key","j","16.6663131313128","768","428","j","true","img/T_ambi40.png","三角","prac_image_first",""
"","","","","","html-keyboard-response","52","315733","0.0-7.0-0.0-1.20","null","<span style='color:GreenYellow; font-size: 70px;'>正确! </span>","null","","","","","","","","","","","","","","","","","","","","","","","feedback_test"
"","","","","","psychophysics","53","317660","0.0-7.0-0.0-0.21","773","","j","","","","","","","","","","","","","key","j","16.664710526315805","768","428","j","true","img/S_ambi40.png","方形","prac_image_first",""
"","","","","","html-keyboard-response","54","317963","0.0-7.0-0.0-1.21","null","<span style='color:GreenYellow; font-size: 70px;'>正确! </span>","null","","","","","","","","","","","","","","","","","","","","","","","feedback_test"
"","","","","","psychophysics","55","319757","0.0-7.0-0.0-0.22","642","","f","","","","","","","","","","","","","key","f","16.54788679245284","768","428","f","true","img/T_ambi40.png","圆形","prac_image_first",""
"","","","","","html-keyboard-response","56","320070","0.0-7.0-0.0-1.22","null","<span style='color:GreenYellow; font-size: 70px;'>正确! </span>","null","","","","","","","","","","","","","","","","","","","","","","","feedback_test"
"","","","","","psychophysics","57","321823","0.0-7.0-0.0-0.23","601","","f","","","","","","","","","","","","","key","f","16.66575961538463","768","428","f","true","img/C_ambi40.png","方形","prac_image_first",""
"","","","","","html-keyboard-response","58","322137","0.0-7.0-0.0-1.23","null","<span style='color:GreenYellow; font-size: 70px;'>正确! </span>","null","","","","","","","","","","","","","","","","","","","","","","","feedback_test"
"","","","","","html-keyboard-response","59","330552","0.0-8.0","8412","<style>.context{color:white; font-size: 35px; line-height:40px}</style>                            <div><p class='context'>您正确回答了83% 的试次。</p><p class='context'>您的平均反应时为660毫秒。</p><p class='context'>恭喜您完成这一阶段的练习。按任意键进入<span style='color: yellow;'>先文字后图形条件</span>的练习。</p></div>","enter","","","","","","","","","","","","","","","","","","","","","","",""
"","","","","","psychophysics","60","332274","0.0-9.0-0.0-0.0","564","","f","","","","","","","","","","","","","key","f","16.665323529411882","768","428","f","true","img/S_ambi40.png","三角","prac_word_first",""
"","","","","","html-keyboard-response","61","332580","0.0-9.0-0.0-1.0","null","<span style='color:GreenYellow; font-size: 70px;'>正确! </span>","null","","","","","","","","","","","","","","","","","","","","","","","feedback_test"
"","","","","","psychophysics","62","334275","0.0-9.0-0.0-0.1","544","","f","","","","","","","","","","","","","key","f","16.666020000000135","768","428","f","true","img/T_ambi40.png","方形","prac_word_first",""
"","","","","","html-keyboard-response","63","334584","0.0-9.0-0.0-1.1","null","<span style='color:GreenYellow; font-size: 70px;'>正确! </span>","null","","","","","","","","","","","","","","","","","","","","","","","feedback_test"
"","","","","","psychophysics","64","336267","0.0-9.0-0.0-0.2","531","","j","","","","","","","","","","","","","key","j","16.66454000000027","768","428","j","true","img/C_ambi40.png","圆形","prac_word_first",""
"","","","","","html-keyboard-response","65","336572","0.0-9.0-0.0-1.2","null","<span style='color:GreenYellow; font-size: 70px;'>正确! </span>","null","","","","","","","","","","","","","","","","","","","","","","","feedback_test"
"","","","","","psychophysics","66","338201","0.0-9.0-0.0-0.3","470","","j","","","","","","","","","","","","","key","j","16.66589690721654","768","428","j","true","img/T_ambi40.png","三角","prac_word_first",""
"","","","","","html-keyboard-response","67","338506","0.0-9.0-0.0-1.3","null","<span style='color:GreenYellow; font-size: 70px;'>正确! </span>","null","","","","","","","","","","","","","","","","","","","","","","","feedback_test"
"","","","","","psychophysics","68","340100","0.0-9.0-0.0-0.4","436","","j","","","","","","","","","","","","","key","j","16.663863157895147","768","428","j","true","img/C_ambi40.png","圆形","prac_word_first",""
"","","","","","html-keyboard-response","69","340416","0.0-9.0-0.0-1.4","null","<span style='color:GreenYellow; font-size: 70px;'>正确! </span>","null","","","","","","","","","","","","","","","","","","","","","","","feedback_test"
"","","","","","psychophysics","70","342157","0.0-9.0-0.0-0.5","577","","f","","","","","","","","","","","","","key","f","16.664417475728133","768","428","f","true","img/C_ambi40.png","方形","prac_word_first",""
"","","","","","html-keyboard-response","71","342467","0.0-9.0-0.0-1.5","null","<span style='color:GreenYellow; font-size: 70px;'>正确! </span>","null","","","","","","","","","","","","","","","","","","","","","","","feedback_test"
"","","","","","psychophysics","72","344132","0.0-9.0-0.0-0.6","502","","f","","","","","","","","","","","","","key","f","16.665939393938952","768","428","f","true","img/C_ambi40.png","三角","prac_word_first",""
"","","","","","html-keyboard-response","73","344440","0.0-9.0-0.0-1.6","null","<span style='color:GreenYellow; font-size: 70px;'>正确! </span>","null","","","","","","","","","","","","","","","","","","","","","","","feedback_test"
"","","","","","psychophysics","74","346004","0.0-9.0-0.0-0.7","407","","f","","","","","","","","","","","","","key","f","16.66612903225819","768","428","j","false","img/T_ambi40.png","三角","prac_word_first",""
"","","","","","html-keyboard-response","75","346315","0.0-9.0-0.0-1.7","null","<span style='color:red; font-size: 70px;'>错误! </span>","null","","","","","","","","","","","","","","","","","","","","","","","feedback_test"
"","","","","","psychophysics","76","348021","0.0-9.0-0.0-0.8","554","","f","","","","","","","","","","","","","key","f","16.665920792078936","768","428","f","true","img/S_ambi40.png","圆形","prac_word_first",""
"","","","","","html-keyboard-response","77","348331","0.0-9.0-0.0-1.8","null","<span style='color:GreenYellow; font-size: 70px;'>正确! </span>","null","","","","","","","","","","","","","","","","","","","","","","","feedback_test"
"","","","","","psychophysics","78","349920","0.0-9.0-0.0-0.9","434","","j","","","","","","","","","","","","","key","j","16.6658617021272","768","428","j","true","img/S_ambi40.png","方形","prac_word_first",""
"","","","","","html-keyboard-response","79","350229","0.0-9.0-0.0-1.9","null","<span style='color:GreenYellow; font-size: 70px;'>正确! </span>","null","","","","","","","","","","","","","","","","","","","","","","","feedback_test"
"","","","","","psychophysics","80","351946","0.0-9.0-0.0-0.10","565","","f","","","","","","","","","","","","","key","f","16.531970297029623","768","428","f","true","img/T_ambi40.png","圆形","prac_word_first",""
"","","","","","html-keyboard-response","81","352249","0.0-9.0-0.0-1.10","null","<span style='color:GreenYellow; font-size: 70px;'>正确! </span>","null","","","","","","","","","","","","","","","","","","","","","","","feedback_test"
"","","","","","psychophysics","82","353927","0.0-9.0-0.0-0.11","517","","j","","","","","","","","","","","","","key","j","16.665989898989505","768","428","j","true","img/S_ambi40.png","方形","prac_word_first",""
"","","","","","html-keyboard-response","83","354233","0.0-9.0-0.0-1.11","null","<span style='color:GreenYellow; font-size: 70px;'>正确! </span>","null","","","","","","","","","","","","","","","","","","","","","","","feedback_test"
"","","","","","psychophysics","84","355900","0.0-9.0-0.0-0.12","503","","f","","","","","","","","","","","","","key","f","16.66626262626284","768","428","f","true","img/T_ambi40.png","方形","prac_word_first",""
"","","","","","html-keyboard-response","85","356207","0.0-9.0-0.0-1.12","null","<span style='color:GreenYellow; font-size: 70px;'>正确! </span>","null","","","","","","","","","","","","","","","","","","","","","","","feedback_test"
"","","","","","psychophysics","86","358025","0.0-9.0-0.0-0.13","662","","f","","","","","","","","","","","","","key","f","16.665898148148294","768","428","f","true","img/C_ambi40.png","三角","prac_word_first",""
"","","","","","html-keyboard-response","87","358336","0.0-9.0-0.0-1.13","null","<span style='color:GreenYellow; font-size: 70px;'>正确! </span>","null","","","","","","","","","","","","","","","","","","","","","","","feedback_test"
"","","","","","psychophysics","88","360052","0.0-9.0-0.0-0.14","564","","j","","","","","","","","","","","","","key","j","16.666264705882092","768","428","j","true","img/T_ambi40.png","三角","prac_word_first",""
"","","","","","html-keyboard-response","89","360359","0.0-9.0-0.0-1.14","null","<span style='color:GreenYellow; font-size: 70px;'>正确! </span>","null","","","","","","","","","","","","","","","","","","","","","","","feedback_test"
"","","","","","psychophysics","90","361983","0.0-9.0-0.0-0.15","470","","j","","","","","","","","","","","","","key","j","16.665515463918055","768","428","j","true","img/S_ambi40.png","方形","prac_word_first",""
"","","","","","html-keyboard-response","91","362289","0.0-9.0-0.0-1.15","null","<span style='color:GreenYellow; font-size: 70px;'>正确! </span>","null","","","","","","","","","","","","","","","","","","","","","","","feedback_test"
"","","","","","psychophysics","92","363903","0.0-9.0-0.0-0.16","457","","j","","","","","","","","","","","","","key","j","16.665510416666923","768","428","j","true","img/C_ambi40.png","圆形","prac_word_first",""
"","","","","","html-keyboard-response","93","364211","0.0-9.0-0.0-1.16","null","<span style='color:GreenYellow; font-size: 70px;'>正确! </span>","null","","","","","","","","","","","","","","","","","","","","","","","feedback_test"
"","","","","","psychophysics","94","365881","0.0-9.0-0.0-0.17","518","","j","","","","","","","","","","","","","key","j","16.52781818181775","768","428","j","true","img/T_ambi40.png","三角","prac_word_first",""
"","","","","","html-keyboard-response","95","366187","0.0-9.0-0.0-1.17","null","<span style='color:GreenYellow; font-size: 70px;'>正确! </span>","null","","","","","","","","","","","","","","","","","","","","","","","feedback_test"
"","","","","","psychophysics","96","367777","0.0-9.0-0.0-0.18","433","","j","","","","","","","","","","","","","key","j","16.66632978723414","768","428","j","true","img/C_ambi40.png","圆形","prac_word_first",""
"","","","","","html-keyboard-response","97","368092","0.0-9.0-0.0-1.18","null","<span style='color:GreenYellow; font-size: 70px;'>正确! </span>","null","","","","","","","","","","","","","","","","","","","","","","","feedback_test"
"","","","","","psychophysics","98","369863","0.0-9.0-0.0-0.19","617","","f","","","","","","","","","","","","","key","f","16.665962264150984","768","428","f","true","img/T_ambi40.png","圆形","prac_word_first",""
"","","","","","html-keyboard-response","99","370175","0.0-9.0-0.0-1.19","null","<span style='color:GreenYellow; font-size: 70px;'>正确! </span>","null","","","","","","","","","","","","","","","","","","","","","","","feedback_test"
"","","","","","psychophysics","100","371919","0.0-9.0-0.0-0.20","590","","f","","","","","","","","","","","","","key","f","16.665336538461606","768","428","f","true","img/S_ambi40.png","三角","prac_word_first",""
"","","","","","html-keyboard-response","101","372229","0.0-9.0-0.0-1.20","null","<span style='color:GreenYellow; font-size: 70px;'>正确! </span>","null","","","","","","","","","","","","","","","","","","","","","","","feedback_test"
"","","","","","psychophysics","102","374005","0.0-9.0-0.0-0.21","625","","f","","","","","","","","","","","","","key","f","16.66631428571418","768","428","f","true","img/S_ambi40.png","圆形","prac_word_first",""
"","","","","","html-keyboard-response","103","374314","0.0-9.0-0.0-1.21","null","<span style='color:GreenYellow; font-size: 70px;'>正确! </span>","null","","","","","","","","","","","","","","","","","","","","","","","feedback_test"
"","","","","","psychophysics","104","375932","0.0-9.0-0.0-0.22","466","","j","","","","","","","","","","","","","key","j","16.665937499999927","768","428","j","true","img/S_ambi40.png","方形","prac_word_first",""
"","","","","","html-keyboard-response","105","376244","0.0-9.0-0.0-1.22","null","<span style='color:GreenYellow; font-size: 70px;'>正确! </span>","null","","","","","","","","","","","","","","","","","","","","","","","feedback_test"
"","","","","","psychophysics","106","377978","0.0-9.0-0.0-0.23","582","","f","","","","","","","","","","","","","key","f","16.53233333333343","768","428","f","true","img/C_ambi40.png","方形","prac_word_first",""
"","","","","","html-keyboard-response","107","378287","0.0-9.0-0.0-1.23","null","<span style='color:GreenYellow; font-size: 70px;'>正确! </span>","null","","","","","","","","","","","","","","","","","","","","","","","feedback_test"
"","","","","","html-keyboard-response","108","384457","0.0-10.0","6168","<style>.context{color:white; font-size: 35px; line-height:40px}</style>                            <div><p class='context'>您正确回答了96% 的试次。</p><p class='context'>您的平均反应时为530毫秒。</p><p class='context'>恭喜您完成练习。按任意键进入<span style='color: yellow;'>图形和文字同时呈现条件</span>的练习。</p></div>","enter","","","","","","","","","","","","","","","","","","","","","","",""
"","","","","","psychophysics","109","386227","0.0-11.0-0.0-0.0","765","","j","","","","","","","","","","","","","key","j","16.666238095237695","768","428","j","true","img/C_ambi40.png","圆形","prac_simultaneous",""
"","","","","","html-keyboard-response","110","386541","0.0-11.0-0.0-1.0","null","<span style='color:GreenYellow; font-size: 70px;'>正确! </span>","null","","","","","","","","","","","","","","","","","","","","","","","feedback_test"
"","","","","","psychophysics","111","388019","0.0-11.0-0.0-0.1","474","","j","","","","","","","","","","","","","key","j","16.666306818181923","768","428","j","true","img/S_ambi40.png","方形","prac_simultaneous",""
"","","","","","html-keyboard-response","112","388324","0.0-11.0-0.0-1.1","null","<span style='color:GreenYellow; font-size: 70px;'>正确! </span>","null","","","","","","","","","","","","","","","","","","","","","","","feedback_test"
"","","","","","psychophysics","113","389889","0.0-11.0-0.0-0.2","560","","j","","","","","","","","","","","","","key","j","16.665946236559346","768","428","f","false","img/T_ambi40.png","方形","prac_simultaneous",""
"","","","","","html-keyboard-response","114","390204","0.0-11.0-0.0-1.2","null","<span style='color:red; font-size: 70px;'>错误! </span>","null","","","","","","","","","","","","","","","","","","","","","","","feedback_test"
"","","","","","psychophysics","115","391936","0.0-11.0-0.0-0.3","724","","f","","","","","","","","","","","","","key","f","16.66625242718457","768","428","f","true","img/C_ambi40.png","方形","prac_simultaneous",""
"","","","","","html-keyboard-response","116","392239","0.0-11.0-0.0-1.3","null","<span style='color:GreenYellow; font-size: 70px;'>正确! </span>","null","","","","","","","","","","","","","","","","","","","","","","","feedback_test"
"","","","","","psychophysics","117","393841","0.0-11.0-0.0-0.4","596","","f","","","","","","","","","","","","","key","f","16.66469473684219","768","428","f","true","img/S_ambi40.png","三角","prac_simultaneous",""
"","","","","","html-keyboard-response","118","394153","0.0-11.0-0.0-1.4","null","<span style='color:GreenYellow; font-size: 70px;'>正确! </span>","null","","","","","","","","","","","","","","","","","","","","","","","feedback_test"
"","","","","","psychophysics","119","395948","0.0-11.0-0.0-0.5","787","","f","","","","","","","","","","","","","key","f","16.66597196261701","768","428","f","true","img/C_ambi40.png","三角","prac_simultaneous",""
"","","","","","html-keyboard-response","120","396250","0.0-11.0-0.0-1.5","null","<span style='color:GreenYellow; font-size: 70px;'>正确! </span>","null","","","","","","","","","","","","","","","","","","","","","","","feedback_test"
"","","","","","psychophysics","121","397853","0.0-11.0-0.0-0.6","592","","j","","","","","","","","","","","","","key","j","16.66621052631557","768","428","j","true","img/T_ambi40.png","三角","prac_simultaneous",""
"","","","","","html-keyboard-response","122","398163","0.0-11.0-0.0-1.6","null","<span style='color:GreenYellow; font-size: 70px;'>正确! </span>","null","","","","","","","","","","","","","","","","","","","","","","","feedback_test"
"","","","","","psychophysics","123","399724","0.0-11.0-0.0-0.7","549","","f","","","","","","","","","","","","","key","f","16.665989130434237","768","428","f","true","img/T_ambi40.png","圆形","prac_simultaneous",""
"","","","","","html-keyboard-response","124","400034","0.0-11.0-0.0-1.7","null","<span style='color:GreenYellow; font-size: 70px;'>正确! </span>","null","","","","","","","","","","","","","","","","","","","","","","","feedback_test"
"","","","","","psychophysics","125","401917","0.0-11.0-0.0-0.8","872","","f","","","","","","","","","","","","","key","f","16.66516964285724","768","428","f","true","img/S_ambi40.png","圆形","prac_simultaneous",""
"","","","","","html-keyboard-response","126","402228","0.0-11.0-0.0-1.8","null","<span style='color:GreenYellow; font-size: 70px;'>正确! </span>","null","","","","","","","","","","","","","","","","","","","","","","","feedback_test"
"","","","","","psychophysics","127","403877","0.0-11.0-0.0-0.9","641","","j","","","","","","","","","","","","","key","j","16.66605154639134","768","428","j","true","img/C_ambi40.png","圆形","prac_simultaneous",""
"","","","","","html-keyboard-response","128","404187","0.0-11.0-0.0-1.9","null","<span style='color:GreenYellow; font-size: 70px;'>正确! </span>","null","","","","","","","","","","","","","","","","","","","","","","","feedback_test"
"","","","","","psychophysics","129","405708","0.0-11.0-0.0-0.10","514","","j","","","","","","","","","","","","","key","j","16.66617777777784","768","428","j","true","img/T_ambi40.png","三角","prac_simultaneous",""
"","","","","","html-keyboard-response","130","406022","0.0-11.0-0.0-1.10","null","<span style='color:GreenYellow; font-size: 70px;'>正确! </span>","null","","","","","","","","","","","","","","","","","","","","","","","feedback_test"
"","","","","","psychophysics","131","407500","0.0-11.0-0.0-0.11","473","","j","","","","","","","","","","","","","key","j","16.665909090908826","768","428","j","true","img/S_ambi40.png","方形","prac_simultaneous",""
"","","","","","html-keyboard-response","132","407808","0.0-11.0-0.0-1.11","null","<span style='color:GreenYellow; font-size: 70px;'>正确! </span>","null","","","","","","","","","","","","","","","","","","","","","","","feedback_test"
"","","","","","psychophysics","133","409405","0.0-11.0-0.0-0.12","595","","j","","","","","","","","","","","","","key","j","16.665052631578874","768","428","j","true","img/T_ambi40.png","三角","prac_simultaneous",""
"","","","","","html-keyboard-response","134","409707","0.0-11.0-0.0-1.12","null","<span style='color:GreenYellow; font-size: 70px;'>正确! </span>","null","","","","","","","","","","","","","","","","","","","","","","","feedback_test"
"","","","","","psychophysics","135","411283","0.0-11.0-0.0-0.13","572","","f","","","","","","","","","","","","","key","f","16.665180851063848","768","428","f","true","img/T_ambi40.png","圆形","prac_simultaneous",""
"","","","","","html-keyboard-response","136","411586","0.0-11.0-0.0-1.13","null","<span style='color:GreenYellow; font-size: 70px;'>正确! </span>","null","","","","","","","","","","","","","","","","","","","","","","","feedback_test"
"","","","","","psychophysics","137","413178","0.0-11.0-0.0-0.14","584","","j","","","","","","","","","","","","","key","j","16.664789473684504","768","428","j","true","img/T_ambi40.png","三角","prac_simultaneous",""
"","","","","","html-keyboard-response","138","413480","0.0-11.0-0.0-1.14","null","<span style='color:GreenYellow; font-size: 70px;'>正确! </span>","null","","","","","","","","","","","","","","","","","","","","","","","feedback_test"
"","","","","","psychophysics","139","415290","0.0-11.0-0.0-0.15","799","","f","","","","","","","","","","","","","key","f","16.666158878505033","768","428","f","true","img/C_ambi40.png","三角","prac_simultaneous",""
"","","","","","html-keyboard-response","140","415606","0.0-11.0-0.0-1.15","null","<span style='color:GreenYellow; font-size: 70px;'>正确! </span>","null","","","","","","","","","","","","","","","","","","","","","","","feedback_test"
"","","","","","psychophysics","141","417135","0.0-11.0-0.0-0.16","524","","j","","","","","","","","","","","","","key","j","16.664219780219973","768","428","j","true","img/S_ambi40.png","方形","prac_simultaneous",""
"","","","","","html-keyboard-response","142","417442","0.0-11.0-0.0-1.16","null","<span style='color:GreenYellow; font-size: 70px;'>正确! </span>","null","","","","","","","","","","","","","","","","","","","","","","","feedback_test"
"","","","","","psychophysics","143","419097","0.0-11.0-0.0-0.17","654","","j","","","","","","","","","","","","","key","j","16.531744897959527","768","428","j","true","img/C_ambi40.png","圆形","prac_simultaneous",""
"","","","","","html-keyboard-response","144","419407","0.0-11.0-0.0-1.17","null","<span style='color:GreenYellow; font-size: 70px;'>正确! </span>","null","","","","","","","","","","","","","","","","","","","","","","","feedback_test"
"","","","","","psychophysics","145","421114","0.0-11.0-0.0-0.18","703","","f","","","","","","","","","","","","","key","f","16.66678217821812","768","428","f","true","img/S_ambi40.png","圆形","prac_simultaneous",""
"","","","","","html-keyboard-response","146","421430","0.0-11.0-0.0-1.18","null","<span style='color:GreenYellow; font-size: 70px;'>正确! </span>","null","","","","","","","","","","","","","","","","","","","","","","","feedback_test"
"","","","","","psychophysics","147","423080","0.0-11.0-0.0-0.19","640","","j","","","","","","","","","","","","","key","j","16.666683673469603","768","428","j","true","img/C_ambi40.png","圆形","prac_simultaneous",""
"","","","","","html-keyboard-response","148","423389","0.0-11.0-0.0-1.19","null","<span style='color:GreenYellow; font-size: 70px;'>正确! </span>","null","","","","","","","","","","","","","","","","","","","","","","","feedback_test"
"","","","","","psychophysics","149","425066","0.0-11.0-0.0-0.20","672","","f","","","","","","","","","","","","","key","f","16.66515999999945","768","428","f","true","img/T_ambi40.png","方形","prac_simultaneous",""
"","","","","","html-keyboard-response","150","425369","0.0-11.0-0.0-1.20","null","<span style='color:GreenYellow; font-size: 70px;'>正确! </span>","null","","","","","","","","","","","","","","","","","","","","","","","feedback_test"
"","","","","","psychophysics","151","427062","0.0-11.0-0.0-0.21","686","","f","","","","","","","","","","","","","key","f","16.665950980392402","768","428","f","true","img/C_ambi40.png","方形","prac_simultaneous",""
"","","","","","html-keyboard-response","152","427368","0.0-11.0-0.0-1.21","null","<span style='color:GreenYellow; font-size: 70px;'>正确! </span>","null","","","","","","","","","","","","","","","","","","","","","","","feedback_test"
"","","","","","psychophysics","153","429067","0.0-11.0-0.0-0.22","689","","f","","","","","","","","","","","","","key","f","16.666277227723292","768","428","f","true","img/S_ambi40.png","三角","prac_simultaneous",""
"","","","","","html-keyboard-response","154","429383","0.0-11.0-0.0-1.22","null","<span style='color:GreenYellow; font-size: 70px;'>正确! </span>","null","","","","","","","","","","","","","","","","","","","","","","","feedback_test"
"","","","","","psychophysics","155","431015","0.0-11.0-0.0-0.23","621","","j","","","","","","","","","","","","","key","j","16.66610309278314","768","428","j","true","img/S_ambi40.png","方形","prac_simultaneous",""
"","","","","","html-keyboard-response","156","431323","0.0-11.0-0.0-1.23","null","<span style='color:GreenYellow; font-size: 70px;'>正确! </span>","null","","","","","","","","","","","","","","","","","","","","","","","feedback_test"
"","","","","","html-keyboard-response","157","477142","0.0-12.0","45816","<style>.context{color:white; font-size: 35px; line-height:40px}</style>                            <div><p class='context'>您正确回答了96% 的试次。</p><p class='context'>您的平均反应时为640毫秒。</p><p class='context'>恭喜您完成练习。按任意键进入正式实验。</p><p class='footer' style='font-size: 35px; line-height:40px;'>请在进入正式实验实验之前将您的<span style='color: lightgreen;'>食指</span>放在电脑键盘的相应键位上进行按键。</p>","enter","","","","","","","","","","","","","","","","","","","","","","",""
"","","","","","html-keyboard-response","158","482761","0.0-13.0-1.0-0.0","5616","
    <p>请您将手指放在按键上，准备进入呈现顺序为<span style='color: yellow;'>先文字后图形条件</span>的正式匹配任务</p>
    <p> <div style = ""color: green""><按任意键进入下一阶段的匹配任务></div></p>
    ","enter","","","","","","","","","","","","","","","","","","","","","","",""
"","","","","","psychophysics","159","484447","0.0-13.0-1.0-1.0-0.0-0.0","529","","j","","","","","","","","","","","","","key","j","16.66594999999972","768","428","j","true","img/C_ambi40.png","圆形","word_first",""
"","","","","","html-keyboard-response","160","484758","0.0-13.0-1.0-1.0-0.0-1.0","null","<span style='color:GreenYellow; font-size: 70px;'>正确! </span>","null","","","","","","","","","","","","","","","","","","","","","","","feedback_test"
"","","","","","psychophysics","161","486444","0.0-13.0-1.0-1.0-0.0-0.1","533","","f","","","","","","","","","","","","","key","f","16.66630999999994","768","428","f","true","img/S_ambi40.png","三角","word_first",""
"","","","","","html-keyboard-response","162","486750","0.0-13.0-1.0-1.0-0.0-1.1","null","<span style='color:GreenYellow; font-size: 70px;'>正确! </span>","null","","","","","","","","","","","","","","","","","","","","","","","feedback_test"
"","","","","","psychophysics","163","488399","0.0-13.0-1.0-1.0-0.0-0.2","493","","f","","","","","","","","","","","","","key","f","16.66566326530598","768","428","f","true","img/T_ambi40.png","圆形","word_first",""
"","","","","","html-keyboard-response","164","488715","0.0-13.0-1.0-1.0-0.0-1.2","null","<span style='color:GreenYellow; font-size: 70px;'>正确! </span>","null","","","","","","","","","","","","","","","","","","","","","","","feedback_test"
"","","","","","psychophysics","165","490404","0.0-13.0-1.0-1.0-0.0-0.3","537","","f","","","","","","","","","","","","","key","f","16.664449999999487","768","428","f","true","img/C_ambi40.png","三角","word_first",""
"","","","","","html-keyboard-response","166","490705","0.0-13.0-1.0-1.0-0.0-1.3","null","<span style='color:GreenYellow; font-size: 70px;'>正确! </span>","null","","","","","","","","","","","","","","","","","","","","","","","feedback_test"
"","","","","","psychophysics","167","492486","0.0-13.0-1.0-1.0-0.0-0.4","628","","f","","","","","","","","","","","","","key","f","16.66594339622611","768","428","f","true","img/S_ambi40.png","圆形","word_first",""
"","","","","","html-keyboard-response","168","492790","0.0-13.0-1.0-1.0-0.0-1.4","null","<span style='color:GreenYellow; font-size: 70px;'>正确! </span>","null","","","","","","","","","","","","","","","","","","","","","","","feedback_test"
"","","","","","psychophysics","169","494517","0.0-13.0-1.0-1.0-0.0-0.5","576","","f","","","","","","","","","","","","","key","f","16.665245098039033","768","428","f","true","img/T_ambi40.png","方形","word_first",""
"","","","","","html-keyboard-response","170","494825","0.0-13.0-1.0-1.0-0.0-1.5","null","<span style='color:GreenYellow; font-size: 70px;'>正确! </span>","null","","","","","","","","","","","","","","","","","","","","","","","feedback_test"
"","","","","","psychophysics","171","496453","0.0-13.0-1.0-1.0-0.0-0.6","475","","j","","","","","","","","","","","","","key","j","16.66582291666661","768","428","j","true","img/C_ambi40.png","圆形","word_first",""
"","","","","","html-keyboard-response","172","496768","0.0-13.0-1.0-1.0-0.0-1.6","null","<span style='color:GreenYellow; font-size: 70px;'>正确! </span>","null","","","","","","","","","","","","","","","","","","","","","","","feedback_test"
"","","","","","psychophysics","173","498426","0.0-13.0-1.0-1.0-0.0-0.7","505","","j","","","","","","","","","","","","","key","j","16.666141414141162","768","428","j","true","img/S_ambi40.png","方形","word_first",""
"","","","","","html-keyboard-response","174","498746","0.0-13.0-1.0-1.0-0.0-1.7","null","<span style='color:GreenYellow; font-size: 70px;'>正确! </span>","null","","","","","","","","","","","","","","","","","","","","","","","feedback_test"
"","","","","","psychophysics","175","500421","0.0-13.0-1.0-1.0-0.0-0.8","524","","f","","","","","","","","","","","","","key","f","16.665787878787885","768","428","f","true","img/C_ambi40.png","方形","word_first",""
"","","","","","html-keyboard-response","176","500734","0.0-13.0-1.0-1.0-0.0-1.8","null","<span style='color:GreenYellow; font-size: 70px;'>正确! </span>","null","","","","","","","","","","","","","","","","","","","","","","","feedback_test"
"","","","","","psychophysics","177","502367","0.0-13.0-1.0-1.0-0.0-0.9","479","","j","","","","","","","","","","","","","key","j","16.665742268041136","768","428","j","true","img/S_ambi40.png","方形","word_first",""
"","","","","","html-keyboard-response","178","502680","0.0-13.0-1.0-1.0-0.0-1.9","null","<span style='color:GreenYellow; font-size: 70px;'>正确! </span>","null","","","","","","","","","","","","","","","","","","","","","","","feedback_test"
"","","","","","psychophysics","179","504363","0.0-13.0-1.0-1.0-0.0-0.10","523","","j","","","","","","","","","","","","","key","j","16.665659999999917","768","428","j","true","img/T_ambi40.png","三角","word_first",""
"","","","","","html-keyboard-response","180","504670","0.0-13.0-1.0-1.0-0.0-1.10","null","<span style='color:GreenYellow; font-size: 70px;'>正确! </span>","null","","","","","","","","","","","","","","","","","","","","","","","feedback_test"
"","","","","","psychophysics","181","506265","0.0-13.0-1.0-1.0-0.0-0.11","442","","j","","","","","","","","","","","","","key","j","16.6660947368419","768","428","j","true","img/T_ambi40.png","三角","word_first",""
"","","","","","html-keyboard-response","182","506581","0.0-13.0-1.0-1.0-0.0-1.11","null","<span style='color:GreenYellow; font-size: 70px;'>正确! </span>","null","","","","","","","","","","","","","","","","","","","","","","","feedback_test"
"","","","","","psychophysics","183","508297","0.0-13.0-1.0-1.0-0.0-0.12","561","","j","","","","","","","","","","","","","key","j","16.665931372548904","768","428","j","true","img/C_ambi40.png","圆形","word_first",""
"","","","","","html-keyboard-response","184","508610","0.0-13.0-1.0-1.0-0.0-1.12","null","<span style='color:GreenYellow; font-size: 70px;'>正确! </span>","null","","","","","","","","","","","","","","","","","","","","","","","feedback_test"
"","","","","","psychophysics","185","510268","0.0-13.0-1.0-1.0-0.0-0.13","494","","j","","","","","","","","","","","","","key","j","16.666346938775767","768","428","j","true","img/S_ambi40.png","方形","word_first",""
"","","","","","html-keyboard-response","186","510573","0.0-13.0-1.0-1.0-0.0-1.13","null","<span style='color:GreenYellow; font-size: 70px;'>正确! </span>","null","","","","","","","","","","","","","","","","","","","","","","","feedback_test"
"","","","","","psychophysics","187","512254","0.0-13.0-1.0-1.0-0.0-0.14","529","","j","","","","","","","","","","","","","key","j","16.666212121211696","768","428","j","true","img/T_ambi40.png","三角","word_first",""
"","","","","","html-keyboard-response","188","512568","0.0-13.0-1.0-1.0-0.0-1.14","null","<span style='color:GreenYellow; font-size: 70px;'>正确! </span>","null","","","","","","","","","","","","","","","","","","","","","","","feedback_test"
"","","","","","psychophysics","189","514311","0.0-13.0-1.0-1.0-0.0-0.15","588","","f","","","","","","","","","","","","","key","f","16.664307692307585","768","428","f","true","img/C_ambi40.png","方形","word_first",""
"","","","","","html-keyboard-response","190","514617","0.0-13.0-1.0-1.0-0.0-1.15","null","<span style='color:GreenYellow; font-size: 70px;'>正确! </span>","null","","","","","","","","","","","","","","","","","","","","","","","feedback_test"
"","","","","","psychophysics","191","516235","0.0-13.0-1.0-1.0-0.0-0.16","468","","j","","","","","","","","","","","","","key","j","16.666062500000407","768","428","j","true","img/T_ambi40.png","三角","word_first",""
"","","","","","html-keyboard-response","192","516546","0.0-13.0-1.0-1.0-0.0-1.16","null","<span style='color:GreenYellow; font-size: 70px;'>正确! </span>","null","","","","","","","","","","","","","","","","","","","","","","","feedback_test"
"","","","","","psychophysics","193","518171","0.0-13.0-1.0-1.0-0.0-0.17","465","","j","","","","","","","","","","","","","key","j","16.66601041666642","768","428","j","true","img/C_ambi40.png","圆形","word_first",""
"","","","","","html-keyboard-response","194","518487","0.0-13.0-1.0-1.0-0.0-1.17","null","<span style='color:GreenYellow; font-size: 70px;'>正确! </span>","null","","","","","","","","","","","","","","","","","","","","","","","feedback_test"
"","","","","","psychophysics","195","520233","0.0-13.0-1.0-1.0-0.0-0.18","593","","f","","","","","","","","","","","","","key","f","16.666192307692164","768","428","f","true","img/C_ambi40.png","三角","word_first",""
"","","","","","html-keyboard-response","196","520537","0.0-13.0-1.0-1.0-0.0-1.18","null","<span style='color:GreenYellow; font-size: 70px;'>正确! </span>","null","","","","","","","","","","","","","","","","","","","","","","","feedback_test"
"","","","","","psychophysics","197","522154","0.0-13.0-1.0-1.0-0.0-0.19","465","","j","","","","","","","","","","","","","key","j","16.66576041666667","768","428","j","true","img/S_ambi40.png","方形","word_first",""
"","","","","","html-keyboard-response","198","522461","0.0-13.0-1.0-1.0-0.0-1.19","null","<span style='color:GreenYellow; font-size: 70px;'>正确! </span>","null","","","","","","","","","","","","","","","","","","","","","","","feedback_test"
"","","","","","psychophysics","199","524155","0.0-13.0-1.0-1.0-0.0-0.20","539","","f","","","","","","","","","","","","","key","f","16.665819999999368","768","428","f","true","img/T_ambi40.png","圆形","word_first",""
"","","","","","html-keyboard-response","200","524458","0.0-13.0-1.0-1.0-0.0-1.20","null","<span style='color:GreenYellow; font-size: 70px;'>正确! </span>","null","","","","","","","","","","","","","","","","","","","","","","","feedback_test"
"","","","","","psychophysics","201","526273","0.0-13.0-1.0-1.0-0.0-0.21","650","","f","","","","","","","","","","","","","key","f","16.66619626168166","768","428","f","true","img/S_ambi40.png","三角","word_first",""
"","","","","","html-keyboard-response","202","526588","0.0-13.0-1.0-1.0-0.0-1.21","null","<span style='color:GreenYellow; font-size: 70px;'>正确! </span>","null","","","","","","","","","","","","","","","","","","","","","","","feedback_test"
"","","","","","psychophysics","203","528258","0.0-13.0-1.0-1.0-0.0-0.22","519","","f","","","","","","","","","","","","","key","f","16.666090909091785","768","428","f","true","img/S_ambi40.png","圆形","word_first",""
"","","","","","html-keyboard-response","204","528565","0.0-13.0-1.0-1.0-0.0-1.22","null","<span style='color:GreenYellow; font-size: 70px;'>正确! </span>","null","","","","","","","","","","","","","","","","","","","","","","","feedback_test"
"","","","","","psychophysics","205","530225","0.0-13.0-1.0-1.0-0.0-0.23","502","","f","","","","","","","","","","","","","key","f","16.667060606060502","768","428","f","true","img/T_ambi40.png","方形","word_first",""
"","","","","","html-keyboard-response","206","530537","0.0-13.0-1.0-1.0-0.0-1.23","null","<span style='color:GreenYellow; font-size: 70px;'>正确! </span>","null","","","","","","","","","","","","","","","","","","","","","","","feedback_test"
"","","","","","psychophysics","207","532271","0.0-13.0-1.0-1.0-0.0-0.24","582","","f","","","","","","","","","","","","","key","f","16.53800980392136","768","428","f","true","img/T_ambi40.png","方形","word_first",""
"","","","","","html-keyboard-response","208","532580","0.0-13.0-1.0-1.0-0.0-1.24","null","<span style='color:GreenYellow; font-size: 70px;'>正确! </span>","null","","","","","","","","","","","","","","","","","","","","","","","feedback_test"
"","","","","","psychophysics","209","534263","0.0-13.0-1.0-1.0-0.0-0.25","527","","f","","","","","","","","","","","","","key","f","16.66412999999942","768","428","f","true","img/T_ambi40.png","圆形","word_first",""
"","","","","","html-keyboard-response","210","534578","0.0-13.0-1.0-1.0-0.0-1.25","null","<span style='color:GreenYellow; font-size: 70px;'>正确! </span>","null","","","","","","","","","","","","","","","","","","","","","","","feedback_test"
"","","","","","psychophysics","211","536274","0.0-13.0-1.0-1.0-0.0-0.26","535","","f","","","","","","","","","","","","","key","f","16.66598019801947","768","428","f","true","img/C_ambi40.png","三角","word_first",""
"","","","","","html-keyboard-response","212","536587","0.0-13.0-1.0-1.0-0.0-1.26","null","<span style='color:GreenYellow; font-size: 70px;'>正确! </span>","null","","","","","","","","","","","","","","","","","","","","","","","feedback_test"
"","","","","","psychophysics","213","538189","0.0-13.0-1.0-1.0-0.0-0.27","450","","j","","","","","","","","","","","","","key","j","16.530170212766066","768","428","j","true","img/C_ambi40.png","圆形","word_first",""
"","","","","","html-keyboard-response","214","538494","0.0-13.0-1.0-1.0-0.0-1.27","null","<span style='color:GreenYellow; font-size: 70px;'>正确! </span>","null","","","","","","","","","","","","","","","","","","","","","","","feedback_test"
"","","","","","psychophysics","215","540131","0.0-13.0-1.0-1.0-0.0-0.28","475","","j","","","","","","","","","","","","","key","j","16.666309278350344","768","428","j","true","img/S_ambi40.png","方形","word_first",""
"","","","","","html-keyboard-response","216","540434","0.0-13.0-1.0-1.0-0.0-1.28","null","<span style='color:GreenYellow; font-size: 70px;'>正确! </span>","null","","","","","","","","","","","","","","","","","","","","","","","feedback_test"
"","","","","","psychophysics","217","542111","0.0-13.0-1.0-1.0-0.0-0.29","527","","j","","","","","","","","","","","","","key","j","16.66438000000082","768","428","j","true","img/T_ambi40.png","三角","word_first",""
"","","","","","html-keyboard-response","218","542424","0.0-13.0-1.0-1.0-0.0-1.29","null","<span style='color:GreenYellow; font-size: 70px;'>正确! </span>","null","","","","","","","","","","","","","","","","","","","","","","","feedback_test"
"","","","","","psychophysics","219","544094","0.0-13.0-1.0-1.0-0.0-0.30","516","","f","","","","","","","","","","","","","key","f","16.666030303029476","768","428","f","true","img/S_ambi40.png","圆形","word_first",""
"","","","","","html-keyboard-response","220","544408","0.0-13.0-1.0-1.0-0.0-1.30","null","<span style='color:GreenYellow; font-size: 70px;'>正确! </span>","null","","","","","","","","","","","","","","","","","","","","","","","feedback_test"
"","","","","","psychophysics","221","546066","0.0-13.0-1.0-1.0-0.0-0.31","502","","j","","","","","","","","","","","","","key","j","16.665816326530614","768","428","j","true","img/C_ambi40.png","圆形","word_first",""
"","","","","","html-keyboard-response","222","546371","0.0-13.0-1.0-1.0-0.0-1.31","null","<span style='color:GreenYellow; font-size: 70px;'>正确! </span>","null","","","","","","","","","","","","","","","","","","","","","","","feedback_test"
"","","","","","psychophysics","223","548055","0.0-13.0-1.0-1.0-0.0-0.32","533","","f","","","","","","","","","","","","","key","f","16.665858585857833","768","428","f","true","img/S_ambi40.png","三角","word_first",""
"","","","","","html-keyboard-response","224","548360","0.0-13.0-1.0-1.0-0.0-1.32","null","<span style='color:GreenYellow; font-size: 70px;'>正确! </span>","null","","","","","","","","","","","","","","","","","","","","","","","feedback_test"
"","","","","","psychophysics","225","550182","0.0-13.0-1.0-1.0-0.0-0.33","669","","f","","","","","","","","","","","","","key","f","16.666083333333653","768","428","f","true","img/C_ambi40.png","方形","word_first",""
"","","","","","html-keyboard-response","226","550491","0.0-13.0-1.0-1.0-0.0-1.33","null","<span style='color:GreenYellow; font-size: 70px;'>正确! </span>","null","","","","","","","","","","","","","","","","","","","","","","","feedback_test"
"","","","","","psychophysics","227","552097","0.0-13.0-1.0-1.0-0.0-0.34","442","","j","","","","","","","","","","","","","key","j","16.66588421052714","768","428","j","true","img/S_ambi40.png","方形","word_first",""
"","","","","","html-keyboard-response","228","552406","0.0-13.0-1.0-1.0-0.0-1.34","null","<span style='color:GreenYellow; font-size: 70px;'>正确! </span>","null","","","","","","","","","","","","","","","","","","","","","","","feedback_test"
"","","","","","psychophysics","229","554054","0.0-13.0-1.0-1.0-0.0-0.35","497","","j","","","","","","","","","","","","","key","j","16.66601030927838","768","428","j","true","img/T_ambi40.png","三角","word_first",""
"","","","","","html-keyboard-response","230","554363","0.0-13.0-1.0-1.0-0.0-1.35","null","<span style='color:GreenYellow; font-size: 70px;'>正确! </span>","null","","","","","","","","","","","","","","","","","","","","","","","feedback_test"
"","","","","","psychophysics","231","556063","0.0-13.0-1.0-1.0-0.0-0.36","541","","f","","","","","","","","","","","","","key","f","16.665792079207876","768","428","f","true","img/S_ambi40.png","三角","word_first",""
"","","","","","html-keyboard-response","232","556370","0.0-13.0-1.0-1.0-0.0-1.36","null","<span style='color:GreenYellow; font-size: 70px;'>正确! </span>","null","","","","","","","","","","","","","","","","","","","","","","","feedback_test"
"","","","","","psychophysics","233","558322","0.0-13.0-1.0-1.0-0.0-0.37","801","","f","","","","","","","","","","","","","key","f","16.66580172413699","768","428","f","true","img/S_ambi40.png","圆形","word_first",""
"","","","","","html-keyboard-response","234","558626","0.0-13.0-1.0-1.0-0.0-1.37","null","<span style='color:GreenYellow; font-size: 70px;'>正确! </span>","null","","","","","","","","","","","","","","","","","","","","","","","feedback_test"
"","","","","","psychophysics","235","560344","0.0-13.0-1.0-1.0-0.0-0.38","563","","f","","","","","","","","","","","","","key","f","16.663441176470325","768","428","f","true","img/T_ambi40.png","圆形","word_first",""
"","","","","","html-keyboard-response","236","560650","0.0-13.0-1.0-1.0-0.0-1.38","null","<span style='color:GreenYellow; font-size: 70px;'>正确! </span>","null","","","","","","","","","","","","","","","","","","","","","","","feedback_test"
"","","","","","psychophysics","237","562449","0.0-13.0-1.0-1.0-0.0-0.39","646","","f","","","","","","","","","","","","","key","f","16.66459813084079","768","428","f","true","img/C_ambi40.png","三角","word_first",""
"","","","","","html-keyboard-response","238","562755","0.0-13.0-1.0-1.0-0.0-1.39","null","<span style='color:GreenYellow; font-size: 70px;'>正确! </span>","null","","","","","","","","","","","","","","","","","","","","","","","feedback_test"
"","","","","","psychophysics","239","564480","0.0-13.0-1.0-1.0-0.0-0.40","574","","j","","","","","","","","","","","","","key","j","16.66589215686248","768","428","j","true","img/C_ambi40.png","圆形","word_first",""
"","","","","","html-keyboard-response","240","564795","0.0-13.0-1.0-1.0-0.0-1.40","null","<span style='color:GreenYellow; font-size: 70px;'>正确! </span>","null","","","","","","","","","","","","","","","","","","","","","","","feedback_test"
"","","","","","psychophysics","241","566443","0.0-13.0-1.0-1.0-0.0-0.41","497","","j","","","","","","","","","","","","","key","j","16.66571428571419","768","428","j","true","img/C_ambi40.png","圆形","word_first",""
"","","","","","html-keyboard-response","242","566755","0.0-13.0-1.0-1.0-0.0-1.41","null","<span style='color:GreenYellow; font-size: 70px;'>正确! </span>","null","","","","","","","","","","","","","","","","","","","","","","","feedback_test"
"","","","","","psychophysics","243","568428","0.0-13.0-1.0-1.0-0.0-0.42","522","","f","","","","","","","","","","","","","key","f","16.665707070707352","768","428","f","true","img/C_ambi40.png","方形","word_first",""
"","","","","","html-keyboard-response","244","568740","0.0-13.0-1.0-1.0-0.0-1.42","null","<span style='color:GreenYellow; font-size: 70px;'>正确! </span>","null","","","","","","","","","","","","","","","","","","","","","","","feedback_test"
"","","","","","psychophysics","245","570380","0.0-13.0-1.0-1.0-0.0-0.43","475","","j","","","","","","","","","","","","","key","j","16.66601030927838","768","428","j","true","img/T_ambi40.png","三角","word_first",""
"","","","","","html-keyboard-response","246","570686","0.0-13.0-1.0-1.0-0.0-1.43","null","<span style='color:GreenYellow; font-size: 70px;'>正确! </span>","null","","","","","","","","","","","","","","","","","","","","","","","feedback_test"
"","","","","","psychophysics","247","572410","0.0-13.0-1.0-1.0-0.0-0.44","572","","j","","","","","","","","","","","","","key","j","16.66614705882396","768","428","j","true","img/T_ambi40.png","三角","word_first",""
"","","","","","html-keyboard-response","248","572722","0.0-13.0-1.0-1.0-0.0-1.44","null","<span style='color:GreenYellow; font-size: 70px;'>正确! </span>","null","","","","","","","","","","","","","","","","","","","","","","","feedback_test"
"","","","","","psychophysics","249","574422","0.0-13.0-1.0-1.0-0.0-0.45","534","","j","","","","","","","","","","","","","key","j","16.665881188119542","768","428","j","true","img/S_ambi40.png","方形","word_first",""
"","","","","","html-keyboard-response","250","574739","0.0-13.0-1.0-1.0-0.0-1.45","null","<span style='color:GreenYellow; font-size: 70px;'>正确! </span>","null","","","","","","","","","","","","","","","","","","","","","","","feedback_test"
"","","","","","psychophysics","251","576453","0.0-13.0-1.0-1.0-0.0-0.46","549","","f","","","","","","","","","","","","","key","f","16.665940594058345","768","428","f","true","img/T_ambi40.png","方形","word_first",""
"","","","","","html-keyboard-response","252","576762","0.0-13.0-1.0-1.0-0.0-1.46","null","<span style='color:GreenYellow; font-size: 70px;'>正确! </span>","null","","","","","","","","","","","","","","","","","","","","","","","feedback_test"
"","","","","","psychophysics","253","578365","0.0-13.0-1.0-1.0-0.0-0.47","445","","j","","","","","","","","","","","","","key","j","16.666210526314956","768","428","j","true","img/S_ambi40.png","方形","word_first",""
"","","","","","html-keyboard-response","254","578673","0.0-13.0-1.0-1.0-0.0-1.47","null","<span style='color:GreenYellow; font-size: 70px;'>正确! </span>","null","","","","","","","","","","","","","","","","","","","","","","","feedback_test"
"","","","","","psychophysics","255","580358","0.0-13.0-1.0-1.0-0.0-0.48","533","","f","","","","","","","","","","","","","key","f","16.664290000000037","768","428","f","true","img/C_ambi40.png","三角","word_first",""
"","","","","","html-keyboard-response","256","580666","0.0-13.0-1.0-1.0-0.0-1.48","null","<span style='color:GreenYellow; font-size: 70px;'>正确! </span>","null","","","","","","","","","","","","","","","","","","","","","","","feedback_test"
"","","","","","psychophysics","257","582382","0.0-13.0-1.0-1.0-0.0-0.49","562","","f","","","","","","","","","","","","","key","f","16.663019607843392","768","428","f","true","img/S_ambi40.png","圆形","word_first",""
"","","","","","html-keyboard-response","258","582689","0.0-13.0-1.0-1.0-0.0-1.49","null","<span style='color:GreenYellow; font-size: 70px;'>正确! </span>","null","","","","","","","","","","","","","","","","","","","","","","","feedback_test"
"","","","","","psychophysics","259","584293","0.0-13.0-1.0-1.0-0.0-0.50","443","","j","","","","","","","","","","","","","key","j","16.66599999999897","768","428","j","true","img/S_ambi40.png","方形","word_first",""
"","","","","","html-keyboard-response","260","584594","0.0-13.0-1.0-1.0-0.0-1.50","null","<span style='color:GreenYellow; font-size: 70px;'>正确! </span>","null","","","","","","","","","","","","","","","","","","","","","","","feedback_test"
"","","","","","psychophysics","261","586149","0.0-13.0-1.0-1.0-0.0-0.51","395","","j","","","","","","","","","","","","","key","j","16.666108695652245","768","428","j","true","img/S_ambi40.png","方形","word_first",""
"","","","","","html-keyboard-response","262","586455","0.0-13.0-1.0-1.0-0.0-1.51","null","<span style='color:GreenYellow; font-size: 70px;'>正确! </span>","null","","","","","","","","","","","","","","","","","","","","","","","feedback_test"
"","","","","","psychophysics","263","587965","0.0-13.0-1.0-1.0-0.0-0.52","357","","j","","","","","","","","","","","","","key","j","16.665999999999727","768","428","f","false","img/T_ambi40.png","方形","word_first",""
"","","","","","html-keyboard-response","264","588277","0.0-13.0-1.0-1.0-0.0-1.52","null","<span style='color:red; font-size: 70px;'>错误! </span>","null","","","","","","","","","","","","","","","","","","","","","","","feedback_test"
"","","","","","psychophysics","265","590052","0.0-13.0-1.0-1.0-0.0-0.53","624","","f","","","","","","","","","","","","","key","f","16.66395238095207","768","428","f","true","img/S_ambi40.png","三角","word_first",""
"","","","","","html-keyboard-response","266","590360","0.0-13.0-1.0-1.0-0.0-1.53","null","<span style='color:GreenYellow; font-size: 70px;'>正确! </span>","null","","","","","","","","","","","","","","","","","","","","","","","feedback_test"
"","","","","","psychophysics","267","592083","0.0-13.0-1.0-1.0-0.0-0.54","563","","j","","","","","","","","","","","","","key","j","16.66594117647037","768","428","j","true","img/T_ambi40.png","三角","word_first",""
"","","","","","html-keyboard-response","268","592385","0.0-13.0-1.0-1.0-0.0-1.54","null","<span style='color:GreenYellow; font-size: 70px;'>正确! </span>","null","","","","","","","","","","","","","","","","","","","","","","","feedback_test"
"","","","","","psychophysics","269","594029","0.0-13.0-1.0-1.0-0.0-0.55","493","","j","","","","","","","","","","","","","key","j","16.532443298970243","768","428","j","true","img/C_ambi40.png","圆形","word_first",""
"","","","","","html-keyboard-response","270","594342","0.0-13.0-1.0-1.0-0.0-1.55","null","<span style='color:GreenYellow; font-size: 70px;'>正确! </span>","null","","","","","","","","","","","","","","","","","","","","","","","feedback_test"
"","","","","","psychophysics","271","596135","0.0-13.0-1.0-1.0-0.0-0.56","632","","f","","","","","","","","","","","","","key","f","16.665292452829714","768","428","f","true","img/T_ambi40.png","圆形","word_first",""
"","","","","","html-keyboard-response","272","596452","0.0-13.0-1.0-1.0-0.0-1.56","null","<span style='color:GreenYellow; font-size: 70px;'>正确! </span>","null","","","","","","","","","","","","","","","","","","","","","","","feedback_test"
"","","","","","psychophysics","273","598232","0.0-13.0-1.0-1.0-0.0-0.57","629","","f","","","","","","","","","","","","","key","f","16.541009523809354","768","428","f","true","img/C_ambi40.png","方形","word_first",""
"","","","","","html-keyboard-response","274","598547","0.0-13.0-1.0-1.0-0.0-1.57","null","<span style='color:GreenYellow; font-size: 70px;'>正确! </span>","null","","","","","","","","","","","","","","","","","","","","","","","feedback_test"
"","","","","","psychophysics","275","600174","0.0-13.0-1.0-1.0-0.0-0.58","470","","j","","","","","","","","","","","","","key","j","16.665597938145176","768","428","j","true","img/T_ambi40.png","三角","word_first",""
"","","","","","html-keyboard-response","276","600476","0.0-13.0-1.0-1.0-0.0-1.58","null","<span style='color:GreenYellow; font-size: 70px;'>正确! </span>","null","","","","","","","","","","","","","","","","","","","","","","","feedback_test"
"","","","","","psychophysics","277","602129","0.0-13.0-1.0-1.0-0.0-0.59","499","","j","","","","","","","","","","","","","key","j","16.66583673469366","768","428","j","true","img/C_ambi40.png","圆形","word_first",""
"","","","","","html-keyboard-response","278","602438","0.0-13.0-1.0-1.0-0.0-1.59","null","<span style='color:GreenYellow; font-size: 70px;'>正确! </span>","null","","","","","","","","","","","","","","","","","","","","","","","feedback_test"
"","","","","","html-keyboard-response","279","605354","0.0-13.0-1.0-1.0-1.0","2914","<style>.context{color:white; font-size: 35px; line-height:40px}</style>                            <div><p class='context'>您正确回答了98% 的试次。</p><p class='context'>您的平均反应时为533毫秒。</p><p class='context'>请按任意键进入休息</p></div>","enter","","","","","","","","","","","","","","","","","","","","","","",""
"","","","","","html-button-response","280","669230","0.0-13.0-1.0-1.0-2.0","63874","
                    <p>您当前还剩余3组实验</p>
                    <p>现在是休息时间，当您结束休息后，您可以点击 结束休息 按钮 继续</p>
                    <p>建议休息时间还剩余<span id=""iii"">60</span>秒</p>","0","","","","","","","","","","","","","","","","","","","","","","",""
"","","","","","psychophysics","281","671293","0.0-13.0-1.0-1.0-0.1-0.60","911","","f","","","","","","","","","","","","","key","f","16.66619512195154","768","428","f","true","img/S_ambi40.png","圆形","word_first",""
"","","","","","html-keyboard-response","282","671597","0.0-13.0-1.0-1.0-0.1-1.60","null","<span style='color:GreenYellow; font-size: 70px;'>正确! </span>","null","","","","","","","","","","","","","","","","","","","","","","","feedback_test"
"","","","","","psychophysics","283","673335","0.0-13.0-1.0-1.0-0.1-0.61","585","","f","","","","","","","","","","","","","key","f","16.666278846154455","768","428","f","true","img/S_ambi40.png","三角","word_first",""
"","","","","","html-keyboard-response","284","673638","0.0-13.0-1.0-1.0-0.1-1.61","null","<span style='color:GreenYellow; font-size: 70px;'>正确! </span>","null","","","","","","","","","","","","","","","","","","","","","","","feedback_test"
"","","","","","psychophysics","285","675271","0.0-13.0-1.0-1.0-0.1-0.62","471","","j","","","","","","","","","","","","","key","j","16.66616494845378","768","428","j","true","img/C_ambi40.png","圆形","word_first",""
"","","","","","html-keyboard-response","286","675585","0.0-13.0-1.0-1.0-0.1-1.62","null","<span style='color:GreenYellow; font-size: 70px;'>正确! </span>","null","","","","","","","","","","","","","","","","","","","","","","","feedback_test"
"","","","","","psychophysics","287","677231","0.0-13.0-1.0-1.0-0.1-0.63","493","","f","","","","","","","","","","","","","key","f","16.66603092783486","768","428","f","true","img/T_ambi40.png","圆形","word_first",""
"","","","","","html-keyboard-response","288","677533","0.0-13.0-1.0-1.0-0.1-1.63","null","<span style='color:GreenYellow; font-size: 70px;'>正确! </span>","null","","","","","","","","","","","","","","","","","","","","","","","feedback_test"
"","","","","","psychophysics","289","679183","0.0-13.0-1.0-1.0-0.1-0.64","499","","f","","","","","","","","","","","","","key","f","16.66625773195854","768","428","f","true","img/C_ambi40.png","方形","word_first",""
"","","","","","html-keyboard-response","290","679485","0.0-13.0-1.0-1.0-0.1-1.64","null","<span style='color:GreenYellow; font-size: 70px;'>正确! </span>","null","","","","","","","","","","","","","","","","","","","","","","","feedback_test"
"","","","","","psychophysics","291","681163","0.0-13.0-1.0-1.0-0.1-0.65","516","","f","","","","","","","","","","","","","key","f","16.666131313131757","768","428","f","true","img/T_ambi40.png","方形","word_first",""
"","","","","","html-keyboard-response","292","681473","0.0-13.0-1.0-1.0-0.1-1.65","null","<span style='color:GreenYellow; font-size: 70px;'>正确! </span>","null","","","","","","","","","","","","","","","","","","","","","","","feedback_test"
"","","","","","psychophysics","293","683036","0.0-13.0-1.0-1.0-0.1-0.66","403","","f","","","","","","","","","","","","","key","f","16.6649999999997","768","428","j","false","img/S_ambi40.png","方形","word_first",""
"","","","","","html-keyboard-response","294","683338","0.0-13.0-1.0-1.0-0.1-1.66","null","<span style='color:red; font-size: 70px;'>错误! </span>","null","","","","","","","","","","","","","","","","","","","","","","","feedback_test"
"","","","","","psychophysics","295","684981","0.0-13.0-1.0-1.0-0.1-0.67","489","","j","","","","","","","","","","","","","key","j","16.66608247422666","768","428","j","true","img/T_ambi40.png","三角","word_first",""
"","","","","","html-keyboard-response","296","685284","0.0-13.0-1.0-1.0-0.1-1.67","null","<span style='color:GreenYellow; font-size: 70px;'>正确! </span>","null","","","","","","","","","","","","","","","","","","","","","","","feedback_test"
"","","","","","psychophysics","297","686923","0.0-13.0-1.0-1.0-0.1-0.68","487","","j","","","","","","","","","","","","","key","j","16.66613402061846","768","428","j","true","img/C_ambi40.png","圆形","word_first",""
"","","","","","html-keyboard-response","298","687227","0.0-13.0-1.0-1.0-0.1-1.68","null","<span style='color:GreenYellow; font-size: 70px;'>正确! </span>","null","","","","","","","","","","","","","","","","","","","","","","","feedback_test"
"","","","","","psychophysics","299","688924","0.0-13.0-1.0-1.0-0.1-0.69","542","","j","","","","","","","","","","","","","key","j","16.664465346534985","768","428","j","true","img/T_ambi40.png","三角","word_first",""
"","","","","","html-keyboard-response","300","689235","0.0-13.0-1.0-1.0-0.1-1.69","null","<span style='color:GreenYellow; font-size: 70px;'>正确! </span>","null","","","","","","","","","","","","","","","","","","","","","","","feedback_test"
"","","","","","psychophysics","301","690921","0.0-13.0-1.0-1.0-0.1-0.70","532","","j","","","","","","","","","","","","","key","j","16.66601000000024","768","428","j","true","img/S_ambi40.png","方形","word_first",""
"","","","","","html-keyboard-response","302","691231","0.0-13.0-1.0-1.0-0.1-1.70","null","<span style='color:GreenYellow; font-size: 70px;'>正确! </span>","null","","","","","","","","","","","","","","","","","","","","","","","feedback_test"
"","","","","","psychophysics","303","692981","0.0-13.0-1.0-1.0-0.1-0.71","599","","f","","","","","","","","","","","","","key","f","16.665990291262787","768","428","f","true","img/C_ambi40.png","三角","word_first",""
"","","","","","html-keyboard-response","304","693285","0.0-13.0-1.0-1.0-0.1-1.71","null","<span style='color:GreenYellow; font-size: 70px;'>正确! </span>","null","","","","","","","","","","","","","","","","","","","","","","","feedback_test"
"","","","","","psychophysics","305","695117","0.0-13.0-1.0-1.0-0.1-0.72","681","","f","","","","","","","","","","","","","key","f","16.665990825688013","768","428","f","true","img/T_ambi40.png","方形","word_first",""
"","","","","","html-keyboard-response","306","695431","0.0-13.0-1.0-1.0-0.1-1.72","null","<span style='color:GreenYellow; font-size: 70px;'>正确! </span>","null","","","","","","","","","","","","","","","","","","","","","","","feedback_test"
"","","","","","psychophysics","307","697163","0.0-13.0-1.0-1.0-0.1-0.73","581","","f","","","","","","","","","","","","","key","f","16.665970588235332","768","428","f","true","img/C_ambi40.png","方形","word_first",""
"","","","","","html-keyboard-response","308","697468","0.0-13.0-1.0-1.0-0.1-1.73","null","<span style='color:GreenYellow; font-size: 70px;'>正确! </span>","null","","","","","","","","","","","","","","","","","","","","","","","feedback_test"
"","","","","","psychophysics","309","699270","0.0-13.0-1.0-1.0-0.1-0.74","638","","j","","","","","","","","","","","","","key","j","16.66568224299068","768","428","j","true","img/S_ambi40.png","方形","word_first",""
"","","","","","html-keyboard-response","310","699584","0.0-13.0-1.0-1.0-0.1-1.74","null","<span style='color:GreenYellow; font-size: 70px;'>正确! </span>","null","","","","","","","","","","","","","","","","","","","","","","","feedback_test"
"","","","","","psychophysics","311","701196","0.0-13.0-1.0-1.0-0.1-0.75","447","","j","","","","","","","","","","","","","key","j","16.666221052631247","768","428","j","true","img/S_ambi40.png","方形","word_first",""
"","","","","","html-keyboard-response","312","701511","0.0-13.0-1.0-1.0-0.1-1.75","null","<span style='color:GreenYellow; font-size: 70px;'>正确! </span>","null","","","","","","","","","","","","","","","","","","","","","","","feedback_test"
"","","","","","psychophysics","313","703177","0.0-13.0-1.0-1.0-0.1-0.76","512","","f","","","","","","","","","","","","","key","f","16.665979797978924","768","428","f","true","img/S_ambi40.png","圆形","word_first",""
"","","","","","html-keyboard-response","314","703480","0.0-13.0-1.0-1.0-0.1-1.76","null","<span style='color:GreenYellow; font-size: 70px;'>正确! </span>","null","","","","","","","","","","","","","","","","","","","","","","","feedback_test"
"","","","","","psychophysics","315","705228","0.0-13.0-1.0-1.0-0.1-0.77","596","","f","","","","","","","","","","","","","key","f","16.54251456310638","768","428","f","true","img/S_ambi40.png","三角","word_first",""
"","","","","","html-keyboard-response","316","705530","0.0-13.0-1.0-1.0-0.1-1.77","null","<span style='color:GreenYellow; font-size: 70px;'>正确! </span>","null","","","","","","","","","","","","","","","","","","","","","","","feedback_test"
"","","","","","psychophysics","317","707235","0.0-13.0-1.0-1.0-0.1-0.78","554","","j","","","","","","","","","","","","","key","j","16.537732673267197","768","428","j","true","img/T_ambi40.png","三角","word_first",""
"","","","","","html-keyboard-response","318","707540","0.0-13.0-1.0-1.0-0.1-1.78","null","<span style='color:GreenYellow; font-size: 70px;'>正确! </span>","null","","","","","","","","","","","","","","","","","","","","","","","feedback_test"
"","","","","","psychophysics","319","709130","0.0-13.0-1.0-1.0-0.1-0.79","440","","j","","","","","","","","","","","","","key","j","16.66476595744694","768","428","j","true","img/T_ambi40.png","三角","word_first",""
"","","","","","html-keyboard-response","320","709437","0.0-13.0-1.0-1.0-0.1-1.79","null","<span style='color:GreenYellow; font-size: 70px;'>正确! </span>","null","","","","","","","","","","","","","","","","","","","","","","","feedback_test"
"","","","","","psychophysics","321","711112","0.0-13.0-1.0-1.0-0.1-0.80","514","","f","","","","","","","","","","","","","key","f","16.665949494949533","768","428","f","true","img/T_ambi40.png","圆形","word_first",""
"","","","","","html-keyboard-response","322","711427","0.0-13.0-1.0-1.0-0.1-1.80","null","<span style='color:GreenYellow; font-size: 70px;'>正确! </span>","null","","","","","","","","","","","","","","","","","","","","","","","feedback_test"
"","","","","","psychophysics","323","713028","0.0-13.0-1.0-1.0-0.1-0.81","448","","j","","","","","","","","","","","","","key","j","16.666189473683602","768","428","j","true","img/C_ambi40.png","圆形","word_first",""
"","","","","","html-keyboard-response","324","713342","0.0-13.0-1.0-1.0-0.1-1.81","null","<span style='color:GreenYellow; font-size: 70px;'>正确! </span>","null","","","","","","","","","","","","","","","","","","","","","","","feedback_test"
"","","","","","psychophysics","325","715036","0.0-13.0-1.0-1.0-0.1-0.82","538","","f","","","","","","","","","","","","","key","f","16.6662673267333","768","428","f","true","img/C_ambi40.png","三角","word_first",""
"","","","","","html-keyboard-response","326","715347","0.0-13.0-1.0-1.0-0.1-1.82","null","<span style='color:GreenYellow; font-size: 70px;'>正确! </span>","null","","","","","","","","","","","","","","","","","","","","","","","feedback_test"
"","","","","","psychophysics","327","717026","0.0-13.0-1.0-1.0-0.1-0.83","528","","j","","","","","","","","","","","","","key","j","16.666070707070624","768","428","j","true","img/C_ambi40.png","圆形","word_first",""
"","","","","","html-keyboard-response","328","717336","0.0-13.0-1.0-1.0-0.1-1.83","null","<span style='color:GreenYellow; font-size: 70px;'>正确! </span>","null","","","","","","","","","","","","","","","","","","","","","","","feedback_test"
"","","","","","psychophysics","329","718957","0.0-13.0-1.0-1.0-0.1-0.84","459","","j","","","","","","","","","","","","","key","j","16.666041666666086","768","428","j","true","img/T_ambi40.png","三角","word_first",""
"","","","","","html-keyboard-response","330","719263","0.0-13.0-1.0-1.0-0.1-1.84","null","<span style='color:GreenYellow; font-size: 70px;'>正确! </span>","null","","","","","","","","","","","","","","","","","","","","","","","feedback_test"
"","","","","","psychophysics","331","721414","0.0-13.0-1.0-1.0-0.1-0.85","1000","","f","","","","","","","","","","","","","key","f","16.66607086614185","768","428","f","true","img/T_ambi40.png","方形","word_first",""
"","","","","","html-keyboard-response","332","721720","0.0-13.0-1.0-1.0-0.1-1.85","null","<span style='color:GreenYellow; font-size: 70px;'>正确! </span>","null","","","","","","","","","","","","","","","","","","","","","","","feedback_test"
"","","","","","psychophysics","333","723555","0.0-13.0-1.0-1.0-0.1-0.86","684","","f","","","","","","","","","","","","","key","f","16.665935779817044","768","428","f","true","img/C_ambi40.png","方形","word_first",""
"","","","","","html-keyboard-response","334","723862","0.0-13.0-1.0-1.0-0.1-1.86","null","<span style='color:GreenYellow; font-size: 70px;'>正确! </span>","null","","","","","","","","","","","","","","","","","","","","","","","feedback_test"
"","","","","","psychophysics","335","725496","0.0-13.0-1.0-1.0-0.1-0.87","483","","j","","","","","","","","","","","","","key","j","16.665762886597015","768","428","j","true","img/C_ambi40.png","圆形","word_first",""
"","","","","","html-keyboard-response","336","725804","0.0-13.0-1.0-1.0-0.1-1.87","null","<span style='color:GreenYellow; font-size: 70px;'>正确! </span>","null","","","","","","","","","","","","","","","","","","","","","","","feedback_test"
"","","","","","psychophysics","337","727478","0.0-13.0-1.0-1.0-0.1-0.88","522","","f","","","","","","","","","","","","","key","f","16.66592929292837","768","428","f","true","img/S_ambi40.png","三角","word_first",""
"","","","","","html-keyboard-response","338","727780","0.0-13.0-1.0-1.0-0.1-1.88","null","<span style='color:GreenYellow; font-size: 70px;'>正确! </span>","null","","","","","","","","","","","","","","","","","","","","","","","feedback_test"
"","","","","","psychophysics","339","729378","0.0-13.0-1.0-1.0-0.1-0.89","447","","j","","","","","","","","","","","","","key","j","16.666436170211725","768","428","j","true","img/T_ambi40.png","三角","word_first",""
"","","","","","html-keyboard-response","340","729681","0.0-13.0-1.0-1.0-0.1-1.89","null","<span style='color:GreenYellow; font-size: 70px;'>正确! </span>","null","","","","","","","","","","","","","","","","","","","","","","","feedback_test"
"","","","","","psychophysics","341","731501","0.0-13.0-1.0-1.0-0.1-0.90","668","","f","","","","","","","","","","","","","key","f","16.666055555555634","768","428","f","true","img/S_ambi40.png","圆形","word_first",""
"","","","","","html-keyboard-response","342","731812","0.0-13.0-1.0-1.0-0.1-1.90","null","<span style='color:GreenYellow; font-size: 70px;'>正确! </span>","null","","","","","","","","","","","","","","","","","","","","","","","feedback_test"
"","","","","","psychophysics","343","733607","0.0-13.0-1.0-1.0-0.1-0.91","643","","f","","","","","","","","","","","","","key","f","16.541792452830673","768","428","j","false","img/S_ambi40.png","方形","word_first",""
"","","","","","html-keyboard-response","344","733916","0.0-13.0-1.0-1.0-0.1-1.91","null","<span style='color:red; font-size: 70px;'>错误! </span>","null","","","","","","","","","","","","","","","","","","","","","","","feedback_test"
"","","","","","psychophysics","345","735818","0.0-13.0-1.0-1.0-0.1-0.92","738","","f","","","","","","","","","","","","","key","f","16.66531858407064","768","428","f","true","img/C_ambi40.png","三角","word_first",""
"","","","","","html-keyboard-response","346","736125","0.0-13.0-1.0-1.0-0.1-1.92","null","<span style='color:GreenYellow; font-size: 70px;'>正确! </span>","null","","","","","","","","","","","","","","","","","","","","","","","feedback_test"
"","","","","","psychophysics","347","737758","0.0-13.0-1.0-1.0-0.1-0.93","478","","j","","","","","","","","","","","","","key","j","16.665876288659458","768","428","j","true","img/S_ambi40.png","方形","word_first",""
"","","","","","html-keyboard-response","348","738065","0.0-13.0-1.0-1.0-0.1-1.93","null","<span style='color:GreenYellow; font-size: 70px;'>正确! </span>","null","","","","","","","","","","","","","","","","","","","","","","","feedback_test"
"","","","","","psychophysics","349","739856","0.0-13.0-1.0-1.0-0.1-0.94","626","","j","","","","","","","","","","","","","key","j","16.664528301887362","768","428","j","true","img/C_ambi40.png","圆形","word_first",""
"","","","","","html-keyboard-response","350","740166","0.0-13.0-1.0-1.0-0.1-1.94","null","<span style='color:GreenYellow; font-size: 70px;'>正确! </span>","null","","","","","","","","","","","","","","","","","","","","","","","feedback_test"
"","","","","","psychophysics","351","741876","0.0-13.0-1.0-1.0-0.1-0.95","549","","f","","","","","","","","","","","","","key","f","16.665831683167845","768","428","f","true","img/T_ambi40.png","圆形","word_first",""
"","","","","","html-keyboard-response","352","742185","0.0-13.0-1.0-1.0-0.1-1.95","null","<span style='color:GreenYellow; font-size: 70px;'>正确! </span>","null","","","","","","","","","","","","","","","","","","","","","","","feedback_test"
"","","","","","psychophysics","353","743812","0.0-13.0-1.0-1.0-0.1-0.96","466","","j","","","","","","","","","","","","","key","j","16.666072916666355","768","428","j","true","img/C_ambi40.png","圆形","word_first",""
"","","","","","html-keyboard-response","354","744126","0.0-13.0-1.0-1.0-0.1-1.96","null","<span style='color:GreenYellow; font-size: 70px;'>正确! </span>","null","","","","","","","","","","","","","","","","","","","","","","","feedback_test"
"","","","","","psychophysics","355","745869","0.0-13.0-1.0-1.0-0.1-0.97","589","","f","","","","","","","","","","","","","key","f","16.66505769230739","768","428","f","true","img/C_ambi40.png","方形","word_first",""
"","","","","","html-keyboard-response","356","746178","0.0-13.0-1.0-1.0-0.1-1.97","null","<span style='color:GreenYellow; font-size: 70px;'>正确! </span>","null","","","","","","","","","","","","","","","","","","","","","","","feedback_test"
"","","","","","psychophysics","357","747895","0.0-13.0-1.0-1.0-0.1-0.98","565","","j","","","","","","","","","","","","","key","j","16.542603960395606","768","428","j","true","img/S_ambi40.png","方形","word_first",""
"","","","","","html-keyboard-response","358","748202","0.0-13.0-1.0-1.0-0.1-1.98","null","<span style='color:GreenYellow; font-size: 70px;'>正确! </span>","null","","","","","","","","","","","","","","","","","","","","","","","feedback_test"
"","","","","","psychophysics","359","749826","0.0-13.0-1.0-1.0-0.1-0.99","470","","j","","","","","","","","","","","","","key","j","16.666124999999738","768","428","j","true","img/S_ambi40.png","方形","word_first",""
"","","","","","html-keyboard-response","360","750134","0.0-13.0-1.0-1.0-0.1-1.99","null","<span style='color:GreenYellow; font-size: 70px;'>正确! </span>","null","","","","","","","","","","","","","","","","","","","","","","","feedback_test"
"","","","","","psychophysics","361","751872","0.0-13.0-1.0-1.0-0.1-0.100","576","","f","","","","","","","","","","","","","key","f","16.66582524271917","768","428","f","true","img/T_ambi40.png","方形","word_first",""
"","","","","","html-keyboard-response","362","752187","0.0-13.0-1.0-1.0-0.1-1.100","null","<span style='color:GreenYellow; font-size: 70px;'>正确! </span>","null","","","","","","","","","","","","","","","","","","","","","","","feedback_test"
"","","","","","psychophysics","363","753954","0.0-13.0-1.0-1.0-0.1-0.101","614","","f","","","","","","","","","","","","","key","f","16.666028571429308","768","428","f","true","img/S_ambi40.png","三角","word_first",""
"","","","","","html-keyboard-response","364","754259","0.0-13.0-1.0-1.0-0.1-1.101","null","<span style='color:GreenYellow; font-size: 70px;'>正确! </span>","null","","","","","","","","","","","","","","","","","","","","","","","feedback_test"
"","","","","","psychophysics","365","755985","0.0-13.0-1.0-1.0-0.1-0.102","573","","f","","","","","","","","","","","","","key","f","16.66628155339785","768","428","f","true","img/C_ambi40.png","三角","word_first",""
"","","","","","html-keyboard-response","366","756298","0.0-13.0-1.0-1.0-0.1-1.102","null","<span style='color:GreenYellow; font-size: 70px;'>正确! </span>","null","","","","","","","","","","","","","","","","","","","","","","","feedback_test"
"","","","","","psychophysics","367","757982","0.0-13.0-1.0-1.0-0.1-0.103","531","","j","","","","","","","","","","","","","key","j","16.665729999999748","768","428","j","true","img/T_ambi40.png","三角","word_first",""
"","","","","","html-keyboard-response","368","758287","0.0-13.0-1.0-1.0-0.1-1.103","null","<span style='color:GreenYellow; font-size: 70px;'>正确! </span>","null","","","","","","","","","","","","","","","","","","","","","","","feedback_test"
"","","","","","psychophysics","369","760192","0.0-13.0-1.0-1.0-0.1-0.104","746","","j","","","","","","","","","","","","","key","j","16.66580530973378","768","428","j","true","img/T_ambi40.png","三角","word_first",""
"","","","","","html-keyboard-response","370","760507","0.0-13.0-1.0-1.0-0.1-1.104","null","<span style='color:GreenYellow; font-size: 70px;'>正确! </span>","null","","","","","","","","","","","","","","","","","","","","","","","feedback_test"
"","","","","","psychophysics","371","762223","0.0-13.0-1.0-1.0-0.1-0.105","563","","f","","","","","","","","","","","","","key","f","16.665745098038816","768","428","f","true","img/S_ambi40.png","圆形","word_first",""
"","","","","","html-keyboard-response","372","762543","0.0-13.0-1.0-1.0-0.1-1.105","null","<span style='color:GreenYellow; font-size: 70px;'>正确! </span>","null","","","","","","","","","","","","","","","","","","","","","","","feedback_test"
"","","","","","psychophysics","373","764290","0.0-13.0-1.0-1.0-0.1-0.106","594","","f","","","","","","","","","","","","","key","f","16.543378640776634","768","428","f","true","img/T_ambi40.png","圆形","word_first",""
"","","","","","html-keyboard-response","374","764600","0.0-13.0-1.0-1.0-0.1-1.106","null","<span style='color:GreenYellow; font-size: 70px;'>正确! </span>","null","","","","","","","","","","","","","","","","","","","","","","","feedback_test"
"","","","","","psychophysics","375","766367","0.0-13.0-1.0-1.0-0.1-0.107","614","","j","","","","","","","","","","","","","key","j","16.665552380952672","768","428","j","true","img/C_ambi40.png","圆形","word_first",""
"","","","","","html-keyboard-response","376","766672","0.0-13.0-1.0-1.0-0.1-1.107","null","<span style='color:GreenYellow; font-size: 70px;'>正确! </span>","null","","","","","","","","","","","","","","","","","","","","","","","feedback_test"
"","","","","","psychophysics","377","768277","0.0-13.0-1.0-1.0-0.1-0.108","453","","j","","","","","","","","","","","","","key","j","16.665852631579497","768","428","j","true","img/C_ambi40.png","圆形","word_first",""
"","","","","","html-keyboard-response","378","768586","0.0-13.0-1.0-1.0-0.1-1.108","null","<span style='color:GreenYellow; font-size: 70px;'>正确! </span>","null","","","","","","","","","","","","","","","","","","","","","","","feedback_test"
"","","","","","psychophysics","379","770273","0.0-13.0-1.0-1.0-0.1-0.109","533","","f","","","","","","","","","","","","","key","f","16.66609000000055","768","428","f","true","img/T_ambi40.png","圆形","word_first",""
"","","","","","html-keyboard-response","380","770576","0.0-13.0-1.0-1.0-0.1-1.109","null","<span style='color:GreenYellow; font-size: 70px;'>正确! </span>","null","","","","","","","","","","","","","","","","","","","","","","","feedback_test"
"","","","","","psychophysics","381","772194","0.0-13.0-1.0-1.0-0.1-0.110","465","","j","","","","","","","","","","","","","key","j","16.666041666666086","768","428","j","true","img/T_ambi40.png","三角","word_first",""
"","","","","","html-keyboard-response","382","772501","0.0-13.0-1.0-1.0-0.1-1.110","null","<span style='color:GreenYellow; font-size: 70px;'>正确! </span>","null","","","","","","","","","","","","","","","","","","","","","","","feedback_test"
"","","","","","psychophysics","383","774210","0.0-13.0-1.0-1.0-0.1-0.111","556","","j","","","","","","","","","","","","","key","j","16.666019801980596","768","428","j","true","img/S_ambi40.png","方形","word_first",""
"","","","","","html-keyboard-response","384","774511","0.0-13.0-1.0-1.0-0.1-1.111","null","<span style='color:GreenYellow; font-size: 70px;'>正确! </span>","null","","","","","","","","","","","","","","","","","","","","","","","feedback_test"
"","","","","","psychophysics","385","776237","0.0-13.0-1.0-1.0-0.1-0.112","575","","f","","","","","","","","","","","","","key","f","16.66586274509752","768","428","f","true","img/S_ambi40.png","三角","word_first",""
"","","","","","html-keyboard-response","386","776543","0.0-13.0-1.0-1.0-0.1-1.112","null","<span style='color:GreenYellow; font-size: 70px;'>正确! </span>","null","","","","","","","","","","","","","","","","","","","","","","","feedback_test"
"","","","","","psychophysics","387","778243","0.0-13.0-1.0-1.0-0.1-0.113","549","","j","","","","","","","","","","","","","key","j","16.66593069306893","768","428","j","true","img/T_ambi40.png","三角","word_first",""
"","","","","","html-keyboard-response","388","778551","0.0-13.0-1.0-1.0-0.1-1.113","null","<span style='color:GreenYellow; font-size: 70px;'>正确! </span>","null","","","","","","","","","","","","","","","","","","","","","","","feedback_test"
"","","","","","psychophysics","389","780266","0.0-13.0-1.0-1.0-0.1-0.114","562","","j","","","","","","","","","","","","","key","j","16.664901960783812","768","428","j","true","img/C_ambi40.png","圆形","word_first",""
"","","","","","html-keyboard-response","390","780572","0.0-13.0-1.0-1.0-0.1-1.114","null","<span style='color:GreenYellow; font-size: 70px;'>正确! </span>","null","","","","","","","","","","","","","","","","","","","","","","","feedback_test"
"","","","","","psychophysics","391","782335","0.0-13.0-1.0-1.0-0.1-0.115","607","","f","","","","","","","","","","","","","key","f","16.664980952380713","768","428","f","true","img/S_ambi40.png","圆形","word_first",""
"","","","","","html-keyboard-response","392","782647","0.0-13.0-1.0-1.0-0.1-1.115","null","<span style='color:GreenYellow; font-size: 70px;'>正确! </span>","null","","","","","","","","","","","","","","","","","","","","","","","feedback_test"
"","","","","","psychophysics","393","784767","0.0-13.0-1.0-1.0-0.1-0.116","968","","f","","","","","","","","","","","","","key","f","16.665928571428623","768","428","f","true","img/C_ambi40.png","三角","word_first",""
"","","","","","html-keyboard-response","394","785075","0.0-13.0-1.0-1.0-0.1-1.116","null","<span style='color:GreenYellow; font-size: 70px;'>正确! </span>","null","","","","","","","","","","","","","","","","","","","","","","","feedback_test"
"","","","","","psychophysics","395","786769","0.0-13.0-1.0-1.0-0.1-0.117","541","","j","","","","","","","","","","","","","key","j","16.664801980198206","768","428","j","true","img/S_ambi40.png","方形","word_first",""
"","","","","","html-keyboard-response","396","787076","0.0-13.0-1.0-1.0-0.1-1.117","null","<span style='color:GreenYellow; font-size: 70px;'>正确! </span>","null","","","","","","","","","","","","","","","","","","","","","","","feedback_test"
"","","","","","psychophysics","397","788884","0.0-13.0-1.0-1.0-0.1-0.118","656","","f","","","","","","","","","","","","","key","f","16.54851401869151","768","428","f","true","img/T_ambi40.png","方形","word_first",""
"","","","","","html-keyboard-response","398","789190","0.0-13.0-1.0-1.0-0.1-1.118","null","<span style='color:GreenYellow; font-size: 70px;'>正确! </span>","null","","","","","","","","","","","","","","","","","","","","","","","feedback_test"
"","","","","","psychophysics","399","791016","0.0-13.0-1.0-1.0-0.1-0.119","675","","f","","","","","","","","","","","","","key","f","16.666137614678334","768","428","f","true","img/C_ambi40.png","方形","word_first",""
"","","","","","html-keyboard-response","400","791333","0.0-13.0-1.0-1.0-0.1-1.119","null","<span style='color:GreenYellow; font-size: 70px;'>正确! </span>","null","","","","","","","","","","","","","","","","","","","","","","","feedback_test"
"","","","","","html-keyboard-response","401","793957","0.0-13.0-1.0-1.0-1.1","2624","<style>.context{color:white; font-size: 35px; line-height:40px}</style>                            <div><p class='context'>您正确回答了97% 的试次。</p><p class='context'>您的平均反应时为574毫秒。</p><p class='context'>请按任意键进入休息</p></div>","enter","","","","","","","","","","","","","","","","","","","","","","",""
"","","","","","html-button-response","402","856814","0.0-13.0-1.0-1.0-2.1","62854","
                    <p>您当前还剩余2组实验</p>
                    <p>现在是休息时间，当您结束休息后，您可以点击 结束休息 按钮 继续</p>
                    <p>建议休息时间还剩余<span id=""iii"">60</span>秒</p>","0","","","","","","","","","","","","","","","","","","","","","","",""
"","","","","","psychophysics","403","858549","0.0-13.0-1.0-1.0-0.2-0.120","574","","j","","","","","","","","","","","","","key","j","16.666708737863814","768","428","j","true","img/S_ambi40.png","方形","word_first",""
"","","","","","html-keyboard-response","404","858859","0.0-13.0-1.0-1.0-0.2-1.120","null","<span style='color:GreenYellow; font-size: 70px;'>正确! </span>","null","","","","","","","","","","","","","","","","","","","","","","","feedback_test"
"","","","","","psychophysics","405","860635","0.0-13.0-1.0-1.0-0.2-0.121","625","","f","","","","","","","","","","","","","key","f","16.66620000000001","768","428","f","true","img/T_ambi40.png","圆形","word_first",""
"","","","","","html-keyboard-response","406","860942","0.0-13.0-1.0-1.0-0.2-1.121","null","<span style='color:GreenYellow; font-size: 70px;'>正确! </span>","null","","","","","","","","","","","","","","","","","","","","","","","feedback_test"
"","","","","","psychophysics","407","862721","0.0-13.0-1.0-1.0-0.2-0.122","628","","f","","","","","","","","","","","","","key","f","16.66610476190468","768","428","f","true","img/C_ambi40.png","三角","word_first",""
"","","","","","html-keyboard-response","408","863030","0.0-13.0-1.0-1.0-0.2-1.122","null","<span style='color:GreenYellow; font-size: 70px;'>正确! </span>","null","","","","","","","","","","","","","","","","","","","","","","","feedback_test"
"","","","","","psychophysics","409","864734","0.0-13.0-1.0-1.0-0.2-0.123","542","","j","","","","","","","","","","","","","key","j","16.666059405940565","768","428","f","false","img/S_ambi40.png","圆形","word_first",""
"","","","","","html-keyboard-response","410","865035","0.0-13.0-1.0-1.0-0.2-1.123","null","<span style='color:red; font-size: 70px;'>错误! </span>","null","","","","","","","","","","","","","","","","","","","","","","","feedback_test"
"","","","","","psychophysics","411","866659","0.0-13.0-1.0-1.0-0.2-0.124","472","","j","","","","","","","","","","","","","key","j","16.66611340206198","768","428","j","true","img/S_ambi40.png","方形","word_first",""
"","","","","","html-keyboard-response","412","866965","0.0-13.0-1.0-1.0-0.2-1.124","null","<span style='color:GreenYellow; font-size: 70px;'>正确! </span>","null","","","","","","","","","","","","","","","","","","","","","","","feedback_test"
"","","","","","psychophysics","413","868715","0.0-13.0-1.0-1.0-0.2-0.125","590","","j","","","","","","","","","","","","","key","j","16.666269230769384","768","428","j","true","img/C_ambi40.png","圆形","word_first",""
"","","","","","html-keyboard-response","414","869030","0.0-13.0-1.0-1.0-0.2-1.125","null","<span style='color:GreenYellow; font-size: 70px;'>正确! </span>","null","","","","","","","","","","","","","","","","","","","","","","","feedback_test"
"","","","","","psychophysics","415","870800","0.0-13.0-1.0-1.0-0.2-0.126","600","","f","","","","","","","","","","","","","key","f","16.665951923077674","768","428","f","true","img/C_ambi40.png","方形","word_first",""
"","","","","","html-keyboard-response","416","871110","0.0-13.0-1.0-1.0-0.2-1.126","null","<span style='color:GreenYellow; font-size: 70px;'>正确! </span>","null","","","","","","","","","","","","","","","","","","","","","","","feedback_test"
"","","","","","psychophysics","417","872772","0.0-13.0-1.0-1.0-0.2-0.127","511","","j","","","","","","","","","","","","","key","j","16.666295918367556","768","428","j","true","img/T_ambi40.png","三角","word_first",""
"","","","","","html-keyboard-response","418","873074","0.0-13.0-1.0-1.0-0.2-1.127","null","<span style='color:GreenYellow; font-size: 70px;'>正确! </span>","null","","","","","","","","","","","","","","","","","","","","","","","feedback_test"
"","","","","","psychophysics","419","874749","0.0-13.0-1.0-1.0-0.2-0.128","524","","j","","","","","","","","","","","","","key","j","16.66609090909061","768","428","j","true","img/T_ambi40.png","三角","word_first",""
"","","","","","html-keyboard-response","420","875062","0.0-13.0-1.0-1.0-0.2-1.128","null","<span style='color:GreenYellow; font-size: 70px;'>正确! </span>","null","","","","","","","","","","","","","","","","","","","","","","","feedback_test"
"","","","","","psychophysics","421","876830","0.0-13.0-1.0-1.0-0.2-0.129","617","","f","","","","","","","","","","","","","key","f","16.66597142857167","768","428","f","true","img/S_ambi40.png","三角","word_first",""
"","","","","","html-keyboard-response","422","877133","0.0-13.0-1.0-1.0-0.2-1.129","null","<span style='color:GreenYellow; font-size: 70px;'>正确! </span>","null","","","","","","","","","","","","","","","","","","","","","","","feedback_test"
"","","","","","psychophysics","423","878906","0.0-13.0-1.0-1.0-0.2-0.130","615","","j","","","","","","","","","","","","","key","j","16.66593333333398","768","428","j","true","img/C_ambi40.png","圆形","word_first",""
"","","","","","html-keyboard-response","424","879212","0.0-13.0-1.0-1.0-0.2-1.130","null","<span style='color:GreenYellow; font-size: 70px;'>正确! </span>","null","","","","","","","","","","","","","","","","","","","","","","","feedback_test"
"","","","","","psychophysics","425","880923","0.0-13.0-1.0-1.0-0.2-0.131","557","","f","","","","","","","","","","","","","key","f","16.665029702969772","768","428","f","true","img/T_ambi40.png","方形","word_first",""
"","","","","","html-keyboard-response","426","881235","0.0-13.0-1.0-1.0-0.2-1.131","null","<span style='color:GreenYellow; font-size: 70px;'>正确! </span>","null","","","","","","","","","","","","","","","","","","","","","","","feedback_test"
"","","","","","psychophysics","427","882931","0.0-13.0-1.0-1.0-0.2-0.132","544","","j","","","","","","","","","","","","","key","j","16.665762376237318","768","428","j","true","img/S_ambi40.png","方形","word_first",""
"","","","","","html-keyboard-response","428","883242","0.0-13.0-1.0-1.0-0.2-1.132","null","<span style='color:GreenYellow; font-size: 70px;'>正确! </span>","null","","","","","","","","","","","","","","","","","","","","","","","feedback_test"
"","","","","","psychophysics","429","884900","0.0-13.0-1.0-1.0-0.2-0.133","493","","j","","","","","","","","","","","","","key","j","16.66571428571419","768","428","j","true","img/C_ambi40.png","圆形","word_first",""
"","","","","","html-keyboard-response","430","885201","0.0-13.0-1.0-1.0-0.2-1.133","null","<span style='color:GreenYellow; font-size: 70px;'>正确! </span>","null","","","","","","","","","","","","","","","","","","","","","","","feedback_test"
"","","","","","psychophysics","431","886934","0.0-13.0-1.0-1.0-0.2-0.134","579","","f","","","","","","","","","","","","","key","f","16.66630097087337","768","428","f","true","img/T_ambi40.png","方形","word_first",""
"","","","","","html-keyboard-response","432","887241","0.0-13.0-1.0-1.0-0.2-1.134","null","<span style='color:GreenYellow; font-size: 70px;'>正确! </span>","null","","","","","","","","","","","","","","","","","","","","","","","feedback_test"
