"success","timeout","failed_images","failed_audio","failed_video","trial_type","trial_index","time_elapsed","internal_node_id","rt","stimulus","response","value","item_width_mm","item_height_mm","item_width_px","px2mm","view_dist_mm","item_width_deg","px2deg","scale_factor","win_width_deg","win_height_deg","view_history","response_type","key_press","avg_frame_time","center_x","center_y","correct_response","correct","Image","word","condition","screen_id"
"true","false","[]","[]","[]","preload","0","2139","0.0-0.0","","","","","","","","","","","","","","","","","","","","","","","","","",""
"","","","","","html-keyboard-response","1","68218","0.0-1.0","66076","
   <p>您好，欢迎参加本次实验。</p>
   <p>为充分保障您的权利，请确保您已经知晓并同意《参与实验同意书》以及《数据公开知情同意书》。</p>
   <p>如果您未见过上述内容，请咨询实验员。</p>
   <p>如果您选择继续实验，则表示您已经清楚两份知情同意书的内容并同意。</p>
   <p> <div style = ""color: green""><按任意键至下页></div> </p>
   ","l","","","","","","","","","","","","","","","","","","","","","","",""
"","","","","","html-keyboard-response","2","74248","0.0-2.0","6030","
   <p>本实验首先需要您填写一些基本个人信息。</p>
   <p> <div style = ""color: green""><按任意键至下页></div></p>
   ","m","","","","","","","","","","","","","","","","","","","","","","",""
"","","","","","call-function","3","74250","0.0-3.0-0.0","","","","","","","","","","","","","","","","","","","","","","","","","",""
"","","","","","survey-html-form","4","80790","0.0-3.0-1.0","6538","","{""Q0"":""12""}","","","","","","","","","","","","","","","","","","","","","","",""
"","","","","","html-button-response","5","82099","0.0-3.0-2.0","1308","<p style = 'color : white'>您的性别</p>","1","","","","","","","","","","","","","","","","","","","","","","",""
"","","","","","survey-html-form","6","86654","0.0-3.0-3.0","4553","","{""Q0"":""2002""}","","","","","","","","","","","","","","","","","","","","","","",""
"","","","","","survey-html-form","7","91031","0.0-3.0-4.0","4376","","{""Q0"":""5""}","","","","","","","","","","","","","","","","","","","","","","",""
"","","","","","virtual-chinrest","8","304452","0.0-4.0","213420","","","","85.6","53.98","425.7981462299419","4.978733532740727","574.86","8.515962924598838","50","0.9018357721844805","30.72","14.28","","","","","","","","","","","",""
"true","","","","","fullscreen","9","313412","0.0-5.0","","","","","","","","","","","","","","","","","","","","","","","","","",""
"","","","","","instructions","10","399383","0.0-6.0","85970","","","","","","","","","","","","","","[{""page_index"":0,""viewing_time"":9174},{""page_index"":1,""viewing_time"":43033},{""page_index"":2,""viewing_time"":28524},{""page_index"":3,""viewing_time"":5238}]","","","","","","","","","","",""
"","","","","","psychophysics","11","402045","0.0-7.0-0.0-0.0","null","","null","","","","","","","","","","","","","key","null","16.666430379746664","768","428","j","false","img/C_ambi40.png","方形","prac_image_first",""
"","","","","","html-keyboard-response","12","402367","0.0-7.0-0.0-1.0","null","<span class='add_' style='color:yellow; font-size: 70px;'> 太慢! </span>","null","","","","","","","","","","","","","","","","","","","","","","","feedback_test"
"","","","","","psychophysics","13","405028","0.0-7.0-0.0-0.1","null","","null","","","","","","","","","","","","","key","null","16.6665759493672","768","428","j","false","img/S_ambi40.png","圆形","prac_image_first",""
"","","","","","html-keyboard-response","14","405338","0.0-7.0-0.0-1.1","null","<span class='add_' style='color:yellow; font-size: 70px;'> 太慢! </span>","null","","","","","","","","","","","","","","","","","","","","","","","feedback_test"
"","","","","","psychophysics","15","407322","0.0-7.0-0.0-0.2","827","","f","","","","","","","","","","","","","key","f","16.66711864406756","768","428","f","true","img/C_ambi40.png","圆形","prac_image_first",""
"","","","","","html-keyboard-response","16","407634","0.0-7.0-0.0-1.2","null","<span style='color:GreenYellow; font-size: 70px;'>正确! </span>","null","","","","","","","","","","","","","","","","","","","","","","","feedback_test"
"","","","","","psychophysics","17","409297","0.0-7.0-0.0-0.3","504","","j","","","","","","","","","","","","","key","j","16.665333333332914","768","428","f","false","img/S_ambi40.png","方形","prac_image_first",""
"","","","","","html-keyboard-response","18","409617","0.0-7.0-0.0-1.3","null","<span style='color:red; font-size: 70px;'>错误! </span>","null","","","","","","","","","","","","","","","","","","","","","","","feedback_test"
"","","","","","psychophysics","19","411057","0.0-7.0-0.0-0.4","287","","f","","","","","","","","","","","","","key","f","16.667623529412015","768","428","f","true","img/S_ambi40.png","方形","prac_image_first",""
"","","","","","html-keyboard-response","20","411375","0.0-7.0-0.0-1.4","null","<span style='color:GreenYellow; font-size: 70px;'>正确! </span>","null","","","","","","","","","","","","","","","","","","","","","","","feedback_test"
"","","","","","psychophysics","21","412812","0.0-7.0-0.0-0.5","284","","f","","","","","","","","","","","","","key","f","16.671639534883706","768","428","f","true","img/C_ambi40.png","圆形","prac_image_first",""
"","","","","","html-keyboard-response","22","413121","0.0-7.0-0.0-1.5","null","<span style='color:GreenYellow; font-size: 70px;'>正确! </span>","null","","","","","","","","","","","","","","","","","","","","","","","feedback_test"
"","","","","","psychophysics","23","414457","0.0-7.0-0.0-0.6","180","","f","","","","","","","","","","","","","key","f","16.664936708860377","768","428","f","true","img/T_ambi40.png","三角","prac_image_first",""
"","","","","","html-keyboard-response","24","414768","0.0-7.0-0.0-1.6","null","<span style='color:yellow; font-size: 70px;'>过快! </span>","null","","","","","","","","","","","","","","","","","","","","","","","feedback_test"
"","","","","","psychophysics","25","416067","0.0-7.0-0.0-0.7","140","","f","","","","","","","","","","","","","key","f","16.66653246753214","768","428","f","true","img/T_ambi40.png","三角","prac_image_first",""
"","","","","","html-keyboard-response","26","416381","0.0-7.0-0.0-1.7","null","<span style='color:yellow; font-size: 70px;'>过快! </span>","null","","","","","","","","","","","","","","","","","","","","","","","feedback_test"
"","","","","","psychophysics","27","417973","0.0-7.0-0.0-0.8","429","","j","","","","","","","","","","","","","key","j","16.66688297872315","768","428","j","true","img/C_ambi40.png","三角","prac_image_first",""
"","","","","","html-keyboard-response","28","418287","0.0-7.0-0.0-1.8","null","<span style='color:GreenYellow; font-size: 70px;'>正确! </span>","null","","","","","","","","","","","","","","","","","","","","","","","feedback_test"
"","","","","","psychophysics","29","420010","0.0-7.0-0.0-0.9","565","","j","","","","","","","","","","","","","key","j","16.66661764705878","768","428","j","true","img/T_ambi40.png","方形","prac_image_first",""
"","","","","","html-keyboard-response","30","420325","0.0-7.0-0.0-1.9","null","<span style='color:GreenYellow; font-size: 70px;'>正确! </span>","null","","","","","","","","","","","","","","","","","","","","","","","feedback_test"
"","","","","","psychophysics","31","422019","0.0-7.0-0.0-0.10","542","","f","","","","","","","","","","","","","key","f","16.664029702970108","768","428","j","false","img/S_ambi40.png","三角","prac_image_first",""
"","","","","","html-keyboard-response","32","422336","0.0-7.0-0.0-1.10","null","<span style='color:red; font-size: 70px;'>错误! </span>","null","","","","","","","","","","","","","","","","","","","","","","","feedback_test"
"","","","","","psychophysics","33","424449","0.0-7.0-0.0-0.11","955","","j","","","","","","","","","","","","","key","j","16.66734920634929","768","428","j","true","img/T_ambi40.png","圆形","prac_image_first",""
"","","","","","html-keyboard-response","34","424763","0.0-7.0-0.0-1.11","null","<span style='color:GreenYellow; font-size: 70px;'>正确! </span>","null","","","","","","","","","","","","","","","","","","","","","","","feedback_test"
"","","","","","psychophysics","35","426537","0.0-7.0-0.0-0.12","612","","j","","","","","","","","","","","","","key","j","16.661580952381094","768","428","j","true","img/C_ambi40.png","三角","prac_image_first",""
"","","","","","html-keyboard-response","36","426855","0.0-7.0-0.0-1.12","null","<span style='color:GreenYellow; font-size: 70px;'>正确! </span>","null","","","","","","","","","","","","","","","","","","","","","","","feedback_test"
"","","","","","psychophysics","37","428628","0.0-7.0-0.0-0.13","617","","j","","","","","","","","","","","","","key","j","16.665180952380787","768","428","f","false","img/T_ambi40.png","三角","prac_image_first",""
"","","","","","html-keyboard-response","38","428938","0.0-7.0-0.0-1.13","null","<span style='color:red; font-size: 70px;'>错误! </span>","null","","","","","","","","","","","","","","","","","","","","","","","feedback_test"
"","","","","","psychophysics","39","430791","0.0-7.0-0.0-0.14","699","","j","","","","","","","","","","","","","key","j","16.667090909090952","768","428","f","false","img/C_ambi40.png","圆形","prac_image_first",""
"","","","","","html-keyboard-response","40","431101","0.0-7.0-0.0-1.14","null","<span style='color:red; font-size: 70px;'>错误! </span>","null","","","","","","","","","","","","","","","","","","","","","","","feedback_test"
"","","","","","psychophysics","41","432817","0.0-7.0-0.0-0.15","557","","f","","","","","","","","","","","","","key","f","16.666166666666314","768","428","f","true","img/S_ambi40.png","方形","prac_image_first",""
"","","","","","html-keyboard-response","42","433132","0.0-7.0-0.0-1.15","null","<span style='color:GreenYellow; font-size: 70px;'>正确! </span>","null","","","","","","","","","","","","","","","","","","","","","","","feedback_test"
"","","","","","psychophysics","43","435009","0.0-7.0-0.0-0.16","716","","f","","","","","","","","","","","","","key","f","16.667504504504446","768","428","j","false","img/T_ambi40.png","方形","prac_image_first",""
"","","","","","html-keyboard-response","44","435322","0.0-7.0-0.0-1.16","null","<span style='color:red; font-size: 70px;'>错误! </span>","null","","","","","","","","","","","","","","","","","","","","","","","feedback_test"
"","","","","","psychophysics","45","437259","0.0-7.0-0.0-0.17","782","","j","","","","","","","","","","","","","key","j","16.66658260869571","768","428","j","true","img/S_ambi40.png","三角","prac_image_first",""
"","","","","","html-keyboard-response","46","437564","0.0-7.0-0.0-1.17","null","<span style='color:GreenYellow; font-size: 70px;'>正确! </span>","null","","","","","","","","","","","","","","","","","","","","","","","feedback_test"
"","","","","","psychophysics","47","439772","0.0-7.0-0.0-0.18","1047","","j","","","","","","","","","","","","","key","j","16.66665648854958","768","428","j","true","img/C_ambi40.png","方形","prac_image_first",""
"","","","","","html-keyboard-response","48","440078","0.0-7.0-0.0-1.18","null","<span style='color:GreenYellow; font-size: 70px;'>正确! </span>","null","","","","","","","","","","","","","","","","","","","","","","","feedback_test"
"","","","","","psychophysics","49","441786","0.0-7.0-0.0-0.19","543","","f","","","","","","","","","","","","","key","f","16.66551485148519","768","428","f","true","img/C_ambi40.png","圆形","prac_image_first",""
"","","","","","html-keyboard-response","50","442102","0.0-7.0-0.0-1.19","null","<span style='color:GreenYellow; font-size: 70px;'>正确! </span>","null","","","","","","","","","","","","","","","","","","","","","","","feedback_test"
"","","","","","psychophysics","51","444212","0.0-7.0-0.0-0.20","954","","f","","","","","","","","","","","","","key","f","16.66570634920647","768","428","f","true","img/S_ambi40.png","方形","prac_image_first",""
"","","","","","html-keyboard-response","52","444519","0.0-7.0-0.0-1.20","null","<span style='color:GreenYellow; font-size: 70px;'>正确! </span>","null","","","","","","","","","","","","","","","","","","","","","","","feedback_test"
"","","","","","psychophysics","53","446191","0.0-7.0-0.0-0.21","514","","j","","","","","","","","","","","","","key","j","16.666030303030652","768","428","j","true","img/T_ambi40.png","圆形","prac_image_first",""
"","","","","","html-keyboard-response","54","446513","0.0-7.0-0.0-1.21","null","<span style='color:GreenYellow; font-size: 70px;'>正确! </span>","null","","","","","","","","","","","","","","","","","","","","","","","feedback_test"
"","","","","","psychophysics","55","448190","0.0-7.0-0.0-0.22","518","","f","","","","","","","","","","","","","key","f","16.66718181818218","768","428","f","true","img/T_ambi40.png","三角","prac_image_first",""
"","","","","","html-keyboard-response","56","448499","0.0-7.0-0.0-1.22","null","<span style='color:GreenYellow; font-size: 70px;'>正确! </span>","null","","","","","","","","","","","","","","","","","","","","","","","feedback_test"
"","","","","","psychophysics","57","450108","0.0-7.0-0.0-0.23","447","","j","","","","","","","","","","","","","key","j","16.666221052631858","768","428","j","true","img/S_ambi40.png","圆形","prac_image_first",""
"","","","","","html-keyboard-response","58","450423","0.0-7.0-0.0-1.23","null","<span style='color:GreenYellow; font-size: 70px;'>正确! </span>","null","","","","","","","","","","","","","","","","","","","","","","","feedback_test"
"","","","","","html-keyboard-response","59","462841","0.0-8.0","12416","<style>.context{color:white; font-size: 35px; line-height:40px}</style>                            <div><p class='context'>您正确回答了71% 的试次。</p><p class='context'>您的平均反应时为567毫秒。</p><p class='context'>恭喜您完成这一阶段的练习。按任意键进入<span style='color: yellow;'>先文字后图形条件</span>的练习。</p></div>","j","","","","","","","","","","","","","","","","","","","","","","",""
"","","","","","psychophysics","60","464361","0.0-9.0-0.0-0.0","356","","f","","","","","","","","","","","","","key","f","16.66452747252757","768","428","f","true","img/S_ambi40.png","方形","prac_word_first",""
"","","","","","html-keyboard-response","61","464676","0.0-9.0-0.0-1.0","null","<span style='color:GreenYellow; font-size: 70px;'>正确! </span>","null","","","","","","","","","","","","","","","","","","","","","","","feedback_test"
"","","","","","psychophysics","62","466253","0.0-9.0-0.0-0.1","426","","j","","","","","","","","","","","","","key","j","16.66760215053763","768","428","f","false","img/T_ambi40.png","三角","prac_word_first",""
"","","","","","html-keyboard-response","63","466575","0.0-9.0-0.0-1.1","null","<span style='color:red; font-size: 70px;'>错误! </span>","null","","","","","","","","","","","","","","","","","","","","","","","feedback_test"
"","","","","","psychophysics","64","468213","0.0-9.0-0.0-0.2","486","","f","","","","","","","","","","","","","key","f","16.667071428571052","768","428","f","true","img/S_ambi40.png","方形","prac_word_first",""
"","","","","","html-keyboard-response","65","468523","0.0-9.0-0.0-1.2","null","<span style='color:GreenYellow; font-size: 70px;'>正确! </span>","null","","","","","","","","","","","","","","","","","","","","","","","feedback_test"
"","","","","","psychophysics","66","470127","0.0-9.0-0.0-0.3","451","","j","","","","","","","","","","","","","key","j","16.666593750000175","768","428","f","false","img/C_ambi40.png","圆形","prac_word_first",""
"","","","","","html-keyboard-response","67","470441","0.0-9.0-0.0-1.3","null","<span style='color:red; font-size: 70px;'>错误! </span>","null","","","","","","","","","","","","","","","","","","","","","","","feedback_test"
"","","","","","psychophysics","68","472273","0.0-9.0-0.0-0.4","680","","j","","","","","","","","","","","","","key","j","16.662908256881114","768","428","j","true","img/S_ambi40.png","三角","prac_word_first",""
"","","","","","html-keyboard-response","69","472579","0.0-9.0-0.0-1.4","null","<span style='color:GreenYellow; font-size: 70px;'>正确! </span>","null","","","","","","","","","","","","","","","","","","","","","","","feedback_test"
"","","","","","psychophysics","70","474191","0.0-9.0-0.0-0.5","451","","f","","","","","","","","","","","","","key","f","16.66944210526325","768","428","f","true","img/T_ambi40.png","三角","prac_word_first",""
"","","","","","html-keyboard-response","71","474503","0.0-9.0-0.0-1.5","null","<span style='color:GreenYellow; font-size: 70px;'>正确! </span>","null","","","","","","","","","","","","","","","","","","","","","","","feedback_test"
"","","","","","psychophysics","72","476335","0.0-9.0-0.0-0.6","676","","j","","","","","","","","","","","","","key","j","16.661587155963414","768","428","j","true","img/C_ambi40.png","方形","prac_word_first",""
"","","","","","html-keyboard-response","73","476651","0.0-9.0-0.0-1.6","null","<span style='color:GreenYellow; font-size: 70px;'>正确! </span>","null","","","","","","","","","","","","","","","","","","","","","","","feedback_test"
"","","","","","psychophysics","74","478357","0.0-9.0-0.0-0.7","548","","f","","","","","","","","","","","","","key","f","16.665019801980353","768","428","j","false","img/S_ambi40.png","圆形","prac_word_first",""
"","","","","","html-keyboard-response","75","478674","0.0-9.0-0.0-1.7","null","<span style='color:red; font-size: 70px;'>错误! </span>","null","","","","","","","","","","","","","","","","","","","","","","","feedback_test"
"","","","","","psychophysics","76","480691","0.0-9.0-0.0-0.8","865","","f","","","","","","","","","","","","","key","f","16.666616666666716","768","428","f","true","img/C_ambi40.png","圆形","prac_word_first",""
"","","","","","html-keyboard-response","77","481005","0.0-9.0-0.0-1.8","null","<span style='color:GreenYellow; font-size: 70px;'>正确! </span>","null","","","","","","","","","","","","","","","","","","","","","","","feedback_test"
"","","","","","psychophysics","78","482879","0.0-9.0-0.0-0.9","720","","j","","","","","","","","","","","","","key","j","16.666116071428405","768","428","j","true","img/C_ambi40.png","三角","prac_word_first",""
"","","","","","html-keyboard-response","79","483188","0.0-9.0-0.0-1.9","null","<span style='color:GreenYellow; font-size: 70px;'>正确! </span>","null","","","","","","","","","","","","","","","","","","","","","","","feedback_test"
"","","","","","psychophysics","80","485149","0.0-9.0-0.0-0.10","807","","j","","","","","","","","","","","","","key","j","16.666615384615437","768","428","j","true","img/T_ambi40.png","方形","prac_word_first",""
"","","","","","html-keyboard-response","81","485462","0.0-9.0-0.0-1.10","null","<span style='color:GreenYellow; font-size: 70px;'>正确! </span>","null","","","","","","","","","","","","","","","","","","","","","","","feedback_test"
"","","","","","psychophysics","82","487213","0.0-9.0-0.0-0.11","594","","j","","","","","","","","","","","","","key","j","16.66501923076934","768","428","j","true","img/T_ambi40.png","圆形","prac_word_first",""
"","","","","","html-keyboard-response","83","487536","0.0-9.0-0.0-1.11","null","<span style='color:GreenYellow; font-size: 70px;'>正确! </span>","null","","","","","","","","","","","","","","","","","","","","","","","feedback_test"
"","","","","","psychophysics","84","489321","0.0-9.0-0.0-0.12","631","","j","","","","","","","","","","","","","key","j","16.66464150943387","768","428","j","true","img/T_ambi40.png","方形","prac_word_first",""
"","","","","","html-keyboard-response","85","489632","0.0-9.0-0.0-1.12","null","<span style='color:GreenYellow; font-size: 70px;'>正确! </span>","null","","","","","","","","","","","","","","","","","","","","","","","feedback_test"
"","","","","","psychophysics","86","491629","0.0-9.0-0.0-0.13","835","","j","","","","","","","","","","","","","key","j","16.66884033613449","768","428","j","true","img/S_ambi40.png","三角","prac_word_first",""
"","","","","","html-keyboard-response","87","491936","0.0-9.0-0.0-1.13","null","<span style='color:GreenYellow; font-size: 70px;'>正确! </span>","null","","","","","","","","","","","","","","","","","","","","","","","feedback_test"
"","","","","","psychophysics","88","494005","0.0-9.0-0.0-0.14","912","","j","","","","","","","","","","","","","key","j","16.665918699186957","768","428","f","false","img/T_ambi40.png","三角","prac_word_first",""
"","","","","","html-keyboard-response","89","494314","0.0-9.0-0.0-1.14","null","<span style='color:red; font-size: 70px;'>错误! </span>","null","","","","","","","","","","","","","","","","","","","","","","","feedback_test"
"","","","","","psychophysics","90","496329","0.0-9.0-0.0-0.15","863","","j","","","","","","","","","","","","","key","j","16.66620833333339","768","428","j","true","img/S_ambi40.png","圆形","prac_word_first",""
"","","","","","html-keyboard-response","91","496635","0.0-9.0-0.0-1.15","null","<span style='color:GreenYellow; font-size: 70px;'>正确! </span>","null","","","","","","","","","","","","","","","","","","","","","","","feedback_test"
"","","","","","psychophysics","92","498450","0.0-9.0-0.0-0.16","657","","j","","","","","","","","","","","","","key","j","16.66604629629647","768","428","j","true","img/T_ambi40.png","圆形","prac_word_first",""
"","","","","","html-keyboard-response","93","498764","0.0-9.0-0.0-1.16","null","<span style='color:GreenYellow; font-size: 70px;'>正确! </span>","null","","","","","","","","","","","","","","","","","","","","","","","feedback_test"
"","","","","","psychophysics","94","500838","0.0-9.0-0.0-0.17","909","","f","","","","","","","","","","","","","key","f","16.665747967479575","768","428","f","true","img/S_ambi40.png","方形","prac_word_first",""
"","","","","","html-keyboard-response","95","501156","0.0-9.0-0.0-1.17","null","<span style='color:GreenYellow; font-size: 70px;'>正确! </span>","null","","","","","","","","","","","","","","","","","","","","","","","feedback_test"
"","","","","","psychophysics","96","503137","0.0-9.0-0.0-0.18","828","","f","","","","","","","","","","","","","key","f","16.66469491525431","768","428","f","true","img/S_ambi40.png","方形","prac_word_first",""
"","","","","","html-keyboard-response","97","503452","0.0-9.0-0.0-1.18","null","<span style='color:GreenYellow; font-size: 70px;'>正确! </span>","null","","","","","","","","","","","","","","","","","","","","","","","feedback_test"
"","","","","","psychophysics","98","505423","0.0-9.0-0.0-0.19","814","","j","","","","","","","","","","","","","key","j","16.66421367521358","768","428","f","false","img/C_ambi40.png","圆形","prac_word_first",""
"","","","","","html-keyboard-response","99","505738","0.0-9.0-0.0-1.19","null","<span style='color:red; font-size: 70px;'>错误! </span>","null","","","","","","","","","","","","","","","","","","","","","","","feedback_test"
"","","","","","psychophysics","100","507741","0.0-9.0-0.0-0.20","851","","j","","","","","","","","","","","","","key","j","16.665411764705954","768","428","j","true","img/C_ambi40.png","方形","prac_word_first",""
"","","","","","html-keyboard-response","101","508062","0.0-9.0-0.0-1.20","null","<span style='color:GreenYellow; font-size: 70px;'>正确! </span>","null","","","","","","","","","","","","","","","","","","","","","","","feedback_test"
"","","","","","psychophysics","102","510044","0.0-9.0-0.0-0.21","819","","f","","","","","","","","","","","","","key","f","16.665881355931898","768","428","f","true","img/C_ambi40.png","圆形","prac_word_first",""
"","","","","","html-keyboard-response","103","510349","0.0-9.0-0.0-1.21","null","<span style='color:GreenYellow; font-size: 70px;'>正确! </span>","null","","","","","","","","","","","","","","","","","","","","","","","feedback_test"
"","","","","","psychophysics","104","512047","0.0-9.0-0.0-0.22","538","","j","","","","","","","","","","","","","key","j","16.66986138613821","768","428","j","true","img/C_ambi40.png","三角","prac_word_first",""
"","","","","","html-keyboard-response","105","512357","0.0-9.0-0.0-1.22","null","<span style='color:GreenYellow; font-size: 70px;'>正确! </span>","null","","","","","","","","","","","","","","","","","","","","","","","feedback_test"
"","","","","","psychophysics","106","514295","0.0-9.0-0.0-0.23","786","","f","","","","","","","","","","","","","key","f","16.666999999999774","768","428","f","true","img/T_ambi40.png","三角","prac_word_first",""
"","","","","","html-keyboard-response","107","514613","0.0-9.0-0.0-1.23","null","<span style='color:GreenYellow; font-size: 70px;'>正确! </span>","null","","","","","","","","","","","","","","","","","","","","","","","feedback_test"
"","","","","","html-keyboard-response","108","519665","0.0-10.0","5050","<style>.context{color:white; font-size: 35px; line-height:40px}</style>                            <div><p class='context'>您正确回答了79% 的试次。</p><p class='context'>您的平均反应时为703毫秒。</p><p class='context'>恭喜您完成练习。按任意键进入<span style='color: yellow;'>图形和文字同时呈现条件</span>的练习。</p></div>"," ","","","","","","","","","","","","","","","","","","","","","","",""
"","","","","","psychophysics","109","521310","0.0-11.0-0.0-0.0","635","","f","","","","","","","","","","","","","key","f","16.66867346938804","768","428","f","true","img/S_ambi40.png","方形","prac_simultaneous",""
"","","","","","html-keyboard-response","110","521626","0.0-11.0-0.0-1.0","null","<span style='color:GreenYellow; font-size: 70px;'>正确! </span>","null","","","","","","","","","","","","","","","","","","","","","","","feedback_test"
"","","","","","psychophysics","111","523415","0.0-11.0-0.0-0.1","776","","f","","","","","","","","","","","","","key","f","16.66703773584911","768","428","j","false","img/C_ambi40.png","方形","prac_simultaneous",""
"","","","","","html-keyboard-response","112","523733","0.0-11.0-0.0-1.1","null","<span style='color:red; font-size: 70px;'>错误! </span>","null","","","","","","","","","","","","","","","","","","","","","","","feedback_test"
"","","","","","psychophysics","113","525811","0.0-11.0-0.0-0.2","1070","","f","","","","","","","","","","","","","key","f","16.663717741935304","768","428","j","false","img/T_ambi40.png","圆形","prac_simultaneous",""
"","","","","","html-keyboard-response","114","526129","0.0-11.0-0.0-1.2","null","<span style='color:red; font-size: 70px;'>错误! </span>","null","","","","","","","","","","","","","","","","","","","","","","","feedback_test"
"","","","","","psychophysics","115","528593","0.0-11.0-0.0-0.3","1452","","j","","","","","","","","","","","","","key","j","16.66461224489779","768","428","f","false","img/C_ambi40.png","圆形","prac_simultaneous",""
"","","","","","html-keyboard-response","116","528907","0.0-11.0-0.0-1.3","null","<span style='color:red; font-size: 70px;'>错误! </span>","null","","","","","","","","","","","","","","","","","","","","","","","feedback_test"
"","","","","","psychophysics","117","530727","0.0-11.0-0.0-0.4","818","","j","","","","","","","","","","","","","key","j","16.665009174311166","768","428","j","true","img/C_ambi40.png","三角","prac_simultaneous",""
"","","","","","html-keyboard-response","118","531035","0.0-11.0-0.0-1.4","null","<span style='color:GreenYellow; font-size: 70px;'>正确! </span>","null","","","","","","","","","","","","","","","","","","","","","","","feedback_test"
"","","","","","psychophysics","119","533015","0.0-11.0-0.0-0.5","972","","j","","","","","","","","","","","","","key","j","16.66630508474536","768","428","j","true","img/T_ambi40.png","方形","prac_simultaneous",""
"","","","","","html-keyboard-response","120","533328","0.0-11.0-0.0-1.5","null","<span style='color:GreenYellow; font-size: 70px;'>正确! </span>","null","","","","","","","","","","","","","","","","","","","","","","","feedback_test"
"","","","","","psychophysics","121","535081","0.0-11.0-0.0-0.6","743","","f","","","","","","","","","","","","","key","f","16.666019230769823","768","428","f","true","img/T_ambi40.png","三角","prac_simultaneous",""
"","","","","","html-keyboard-response","122","535389","0.0-11.0-0.0-1.6","null","<span style='color:GreenYellow; font-size: 70px;'>正确! </span>","null","","","","","","","","","","","","","","","","","","","","","","","feedback_test"
"","","","","","psychophysics","123","537239","0.0-11.0-0.0-0.7","848","","j","","","","","","","","","","","","","key","j","16.66475454545474","768","428","j","true","img/S_ambi40.png","圆形","prac_simultaneous",""
"","","","","","html-keyboard-response","124","537552","0.0-11.0-0.0-1.7","null","<span style='color:GreenYellow; font-size: 70px;'>正确! </span>","null","","","","","","","","","","","","","","","","","","","","","","","feedback_test"
"","","","","","psychophysics","125","539231","0.0-11.0-0.0-0.8","673","","f","","","","","","","","","","","","","key","f","16.666879999999654","768","428","f","true","img/T_ambi40.png","三角","prac_simultaneous",""
"","","","","","html-keyboard-response","126","539551","0.0-11.0-0.0-1.8","null","<span style='color:GreenYellow; font-size: 70px;'>正确! </span>","null","","","","","","","","","","","","","","","","","","","","","","","feedback_test"
"","","","","","psychophysics","127","541488","0.0-11.0-0.0-0.9","930","","f","","","","","","","","","","","","","key","f","16.667130434782365","768","428","f","true","img/C_ambi40.png","圆形","prac_simultaneous",""
"","","","","","html-keyboard-response","128","541801","0.0-11.0-0.0-1.9","null","<span style='color:GreenYellow; font-size: 70px;'>正确! </span>","null","","","","","","","","","","","","","","","","","","","","","","","feedback_test"
"","","","","","psychophysics","129","543789","0.0-11.0-0.0-0.10","981","","f","","","","","","","","","","","","","key","f","16.66567796610209","768","428","f","true","img/S_ambi40.png","方形","prac_simultaneous",""
"","","","","","html-keyboard-response","130","544113","0.0-11.0-0.0-1.10","null","<span style='color:GreenYellow; font-size: 70px;'>正确! </span>","null","","","","","","","","","","","","","","","","","","","","","","","feedback_test"
"","","","","","psychophysics","131","545888","0.0-11.0-0.0-0.11","763","","j","","","","","","","","","","","","","key","j","16.666285714285358","768","428","j","true","img/S_ambi40.png","三角","prac_simultaneous",""
"","","","","","html-keyboard-response","132","546206","0.0-11.0-0.0-1.11","null","<span style='color:GreenYellow; font-size: 70px;'>正确! </span>","null","","","","","","","","","","","","","","","","","","","","","","","feedback_test"
"","","","","","psychophysics","133","547942","0.0-11.0-0.0-0.12","733","","f","","","","","","","","","","","","","key","f","16.665242718445654","768","428","f","true","img/T_ambi40.png","三角","prac_simultaneous",""
"","","","","","html-keyboard-response","134","548255","0.0-11.0-0.0-1.12","null","<span style='color:GreenYellow; font-size: 70px;'>正确! </span>","null","","","","","","","","","","","","","","","","","","","","","","","feedback_test"
"","","","","","psychophysics","135","549939","0.0-11.0-0.0-0.13","680","","f","","","","","","","","","","","","","key","f","16.663370000000576","768","428","f","true","img/S_ambi40.png","方形","prac_simultaneous",""
"","","","","","html-keyboard-response","136","550248","0.0-11.0-0.0-1.13","null","<span style='color:GreenYellow; font-size: 70px;'>正确! </span>","null","","","","","","","","","","","","","","","","","","","","","","","feedback_test"
"","","","","","psychophysics","137","552195","0.0-11.0-0.0-0.14","937","","j","","","","","","","","","","","","","key","j","16.665474137931596","768","428","j","true","img/S_ambi40.png","三角","prac_simultaneous",""
"","","","","","html-keyboard-response","138","552507","0.0-11.0-0.0-1.14","null","<span style='color:GreenYellow; font-size: 70px;'>正确! </span>","null","","","","","","","","","","","","","","","","","","","","","","","feedback_test"
"","","","","","psychophysics","139","554330","0.0-11.0-0.0-0.15","822","","j","","","","","","","","","","","","","key","j","16.66206422018383","768","428","j","true","img/S_ambi40.png","圆形","prac_simultaneous",""
"","","","","","html-keyboard-response","140","554643","0.0-11.0-0.0-1.15","null","<span style='color:GreenYellow; font-size: 70px;'>正确! </span>","null","","","","","","","","","","","","","","","","","","","","","","","feedback_test"
"","","","","","psychophysics","141","556919","0.0-11.0-0.0-0.16","1268","","f","","","","","","","","","","","","","key","f","16.665762962963157","768","428","f","true","img/C_ambi40.png","圆形","prac_simultaneous",""
"","","","","","html-keyboard-response","142","557238","0.0-11.0-0.0-1.16","null","<span style='color:GreenYellow; font-size: 70px;'>正确! </span>","null","","","","","","","","","","","","","","","","","","","","","","","feedback_test"
"","","","","","psychophysics","143","559244","0.0-11.0-0.0-0.17","1003","","j","","","","","","","","","","","","","key","j","16.665650000000216","768","428","j","true","img/T_ambi40.png","方形","prac_simultaneous",""
"","","","","","html-keyboard-response","144","559560","0.0-11.0-0.0-1.17","null","<span style='color:GreenYellow; font-size: 70px;'>正确! </span>","null","","","","","","","","","","","","","","","","","","","","","","","feedback_test"
"","","","","","psychophysics","145","561460","0.0-11.0-0.0-0.18","892","","f","","","","","","","","","","","","","key","f","16.66748672566352","768","428","f","true","img/T_ambi40.png","三角","prac_simultaneous",""
"","","","","","html-keyboard-response","146","561763","0.0-11.0-0.0-1.18","null","<span style='color:GreenYellow; font-size: 70px;'>正确! </span>","null","","","","","","","","","","","","","","","","","","","","","","","feedback_test"
"","","","","","psychophysics","147","563495","0.0-11.0-0.0-0.19","721","","j","","","","","","","","","","","","","key","j","16.663514563106272","768","428","j","true","img/C_ambi40.png","方形","prac_simultaneous",""
"","","","","","html-keyboard-response","148","563814","0.0-11.0-0.0-1.19","null","<span style='color:GreenYellow; font-size: 70px;'>正确! </span>","null","","","","","","","","","","","","","","","","","","","","","","","feedback_test"
"","","","","","psychophysics","149","565587","0.0-11.0-0.0-0.20","763","","f","","","","","","","","","","","","","key","f","16.666304761904204","768","428","f","true","img/C_ambi40.png","圆形","prac_simultaneous",""
"","","","","","html-keyboard-response","150","565899","0.0-11.0-0.0-1.20","null","<span style='color:GreenYellow; font-size: 70px;'>正确! </span>","null","","","","","","","","","","","","","","","","","","","","","","","feedback_test"
"","","","","","psychophysics","151","567610","0.0-11.0-0.0-0.21","702","","j","","","","","","","","","","","","","key","j","16.666117647058996","768","428","j","true","img/T_ambi40.png","圆形","prac_simultaneous",""
"","","","","","html-keyboard-response","152","567921","0.0-11.0-0.0-1.21","null","<span style='color:GreenYellow; font-size: 70px;'>正确! </span>","null","","","","","","","","","","","","","","","","","","","","","","","feedback_test"
"","","","","","psychophysics","153","569592","0.0-11.0-0.0-0.22","667","","f","","","","","","","","","","","","","key","f","16.66457575757522","768","428","f","true","img/S_ambi40.png","方形","prac_simultaneous",""
"","","","","","html-keyboard-response","154","569910","0.0-11.0-0.0-1.22","null","<span style='color:GreenYellow; font-size: 70px;'>正确! </span>","null","","","","","","","","","","","","","","","","","","","","","","","feedback_test"
"","","","","","psychophysics","155","571630","0.0-11.0-0.0-0.23","707","","j","","","","","","","","","","","","","key","j","16.66819607843211","768","428","j","true","img/C_ambi40.png","三角","prac_simultaneous",""
"","","","","","html-keyboard-response","156","571948","0.0-11.0-0.0-1.23","null","<span style='color:GreenYellow; font-size: 70px;'>正确! </span>","null","","","","","","","","","","","","","","","","","","","","","","","feedback_test"
"","","","","","html-keyboard-response","157","577255","0.0-12.0","5306","<style>.context{color:white; font-size: 35px; line-height:40px}</style>                            <div><p class='context'>您正确回答了88% 的试次。</p><p class='context'>您的平均反应时为822毫秒。</p><p class='context'>恭喜您完成练习。按任意键进入正式实验。</p><p class='footer' style='font-size: 35px; line-height:40px;'>请在进入正式实验实验之前将您的<span style='color: lightgreen;'>食指</span>放在电脑键盘的相应键位上进行按键。</p>","j","","","","","","","","","","","","","","","","","","","","","","",""
"","","","","","html-keyboard-response","158","584720","0.0-13.0-2.0-0.0","7460","
    <p>请您将手指放在按键上，准备进入呈现顺序为<span style='color: yellow;'>图形和文字同时呈现条件</span>的正式匹配任务</p>
    <p> <div style = ""color: green""><按任意键进入下一阶段的匹配任务></div></p>
    ","j","","","","","","","","","","","","","","","","","","","","","","",""
"","","","","","psychophysics","159","586495","0.0-13.0-2.0-1.0-0.0-0.0","772","","j","","","","","","","","","","","","","key","j","16.66698113207613","768","428","j","true","img/C_ambi40.png","方形","simultaneous",""
"","","","","","html-keyboard-response","160","586805","0.0-13.0-2.0-1.0-0.0-1.0","null","<span style='color:GreenYellow; font-size: 70px;'>正确! </span>","null","","","","","","","","","","","","","","","","","","","","","","","feedback_test"
"","","","","","psychophysics","161","588441","0.0-13.0-2.0-1.0-0.0-0.1","634","","f","","","","","","","","","","","","","key","f","16.661653061223937","768","428","f","true","img/S_ambi40.png","方形","simultaneous",""
"","","","","","html-keyboard-response","162","588754","0.0-13.0-2.0-1.0-0.0-1.1","null","<span style='color:GreenYellow; font-size: 70px;'>正确! </span>","null","","","","","","","","","","","","","","","","","","","","","","","feedback_test"
"","","","","","psychophysics","163","590329","0.0-13.0-2.0-1.0-0.0-0.2","572","","f","","","","","","","","","","","","","key","f","16.66617021276591","768","428","f","true","img/T_ambi40.png","三角","simultaneous",""
"","","","","","html-keyboard-response","164","590645","0.0-13.0-2.0-1.0-0.0-1.2","null","<span style='color:GreenYellow; font-size: 70px;'>正确! </span>","null","","","","","","","","","","","","","","","","","","","","","","","feedback_test"
"","","","","","psychophysics","165","592213","0.0-13.0-2.0-1.0-0.0-0.3","559","","f","","","","","","","","","","","","","key","f","16.667182795699656","768","428","f","true","img/C_ambi40.png","圆形","simultaneous",""
"","","","","","html-keyboard-response","166","592527","0.0-13.0-2.0-1.0-0.0-1.3","null","<span style='color:GreenYellow; font-size: 70px;'>正确! </span>","null","","","","","","","","","","","","","","","","","","","","","","","feedback_test"
"","","","","","psychophysics","167","594321","0.0-13.0-2.0-1.0-0.0-0.4","785","","j","","","","","","","","","","","","","key","j","16.666037735848835","768","428","j","true","img/C_ambi40.png","三角","simultaneous",""
"","","","","","html-keyboard-response","168","594627","0.0-13.0-2.0-1.0-0.0-1.4","null","<span style='color:GreenYellow; font-size: 70px;'>正确! </span>","null","","","","","","","","","","","","","","","","","","","","","","","feedback_test"
"","","","","","psychophysics","169","596251","0.0-13.0-2.0-1.0-0.0-0.5","614","","f","","","","","","","","","","","","","key","f","16.66561458333308","768","428","f","true","img/S_ambi40.png","方形","simultaneous",""
"","","","","","html-keyboard-response","170","596559","0.0-13.0-2.0-1.0-0.0-1.5","null","<span style='color:GreenYellow; font-size: 70px;'>正确! </span>","null","","","","","","","","","","","","","","","","","","","","","","","feedback_test"
"","","","","","psychophysics","171","598121","0.0-13.0-2.0-1.0-0.0-0.6","548","","j","","","","","","","","","","","","","key","j","16.665902173913427","768","428","f","false","img/T_ambi40.png","三角","simultaneous",""
"","","","","","html-keyboard-response","172","598431","0.0-13.0-2.0-1.0-0.0-1.6","null","<span style='color:red; font-size: 70px;'>错误! </span>","null","","","","","","","","","","","","","","","","","","","","","","","feedback_test"
"","","","","","psychophysics","173","600209","0.0-13.0-2.0-1.0-0.0-0.7","769","","f","","","","","","","","","","","","","key","f","16.667235849056183","768","428","f","true","img/C_ambi40.png","圆形","simultaneous",""
"","","","","","html-keyboard-response","174","600517","0.0-13.0-2.0-1.0-0.0-1.7","null","<span style='color:GreenYellow; font-size: 70px;'>正确! </span>","null","","","","","","","","","","","","","","","","","","","","","","","feedback_test"
"","","","","","psychophysics","175","602409","0.0-13.0-2.0-1.0-0.0-0.8","885","","j","","","","","","","","","","","","","key","j","16.667035398230087","768","428","j","true","img/T_ambi40.png","方形","simultaneous",""
"","","","","","html-keyboard-response","176","602720","0.0-13.0-2.0-1.0-0.0-1.8","null","<span style='color:GreenYellow; font-size: 70px;'>正确! </span>","null","","","","","","","","","","","","","","","","","","","","","","","feedback_test"
"","","","","","psychophysics","177","604547","0.0-13.0-2.0-1.0-0.0-0.9","824","","f","","","","","","","","","","","","","key","f","16.666110091743384","768","428","j","false","img/T_ambi40.png","圆形","simultaneous",""
"","","","","","html-keyboard-response","178","604854","0.0-13.0-2.0-1.0-0.0-1.9","null","<span style='color:red; font-size: 70px;'>错误! </span>","null","","","","","","","","","","","","","","","","","","","","","","","feedback_test"
"","","","","","psychophysics","179","606789","0.0-13.0-2.0-1.0-0.0-0.10","932","","j","","","","","","","","","","","","","key","j","16.66401739130505","768","428","j","true","img/S_ambi40.png","圆形","simultaneous",""
"","","","","","html-keyboard-response","180","607109","0.0-13.0-2.0-1.0-0.0-1.10","null","<span style='color:GreenYellow; font-size: 70px;'>正确! </span>","null","","","","","","","","","","","","","","","","","","","","","","","feedback_test"
"","","","","","psychophysics","181","608884","0.0-13.0-2.0-1.0-0.0-0.11","761","","f","","","","","","","","","","","","","key","f","16.66487619047541","768","428","j","false","img/S_ambi40.png","三角","simultaneous",""
"","","","","","html-keyboard-response","182","609197","0.0-13.0-2.0-1.0-0.0-1.11","null","<span style='color:red; font-size: 70px;'>错误! </span>","null","","","","","","","","","","","","","","","","","","","","","","","feedback_test"
"","","","","","psychophysics","183","611149","0.0-13.0-2.0-1.0-0.0-0.12","943","","f","","","","","","","","","","","","","key","f","16.666155172413585","768","428","f","true","img/T_ambi40.png","三角","simultaneous",""
"","","","","","html-keyboard-response","184","611467","0.0-13.0-2.0-1.0-0.0-1.12","null","<span style='color:GreenYellow; font-size: 70px;'>正确! </span>","null","","","","","","","","","","","","","","","","","","","","","","","feedback_test"
"","","","","","psychophysics","185","613242","0.0-13.0-2.0-1.0-0.0-0.13","767","","j","","","","","","","","","","","","","key","j","16.66748113207462","768","428","j","true","img/T_ambi40.png","圆形","simultaneous",""
"","","","","","html-keyboard-response","186","613555","0.0-13.0-2.0-1.0-0.0-1.13","null","<span style='color:GreenYellow; font-size: 70px;'>正确! </span>","null","","","","","","","","","","","","","","","","","","","","","","","feedback_test"
"","","","","","psychophysics","187","615771","0.0-13.0-2.0-1.0-0.0-0.14","1215","","j","","","","","","","","","","","","","key","j","16.57040458015266","768","428","j","true","img/T_ambi40.png","方形","simultaneous",""
"","","","","","html-keyboard-response","188","616086","0.0-13.0-2.0-1.0-0.0-1.14","null","<span style='color:GreenYellow; font-size: 70px;'>正确! </span>","null","","","","","","","","","","","","","","","","","","","","","","","feedback_test"
"","","","","","psychophysics","189","617958","0.0-13.0-2.0-1.0-0.0-0.15","868","","f","","","","","","","","","","","","","key","f","16.666178571428254","768","428","f","true","img/T_ambi40.png","三角","simultaneous",""
"","","","","","html-keyboard-response","190","618272","0.0-13.0-2.0-1.0-0.0-1.15","null","<span style='color:GreenYellow; font-size: 70px;'>正确! </span>","null","","","","","","","","","","","","","","","","","","","","","","","feedback_test"
"","","","","","psychophysics","191","620181","0.0-13.0-2.0-1.0-0.0-0.16","907","","j","","","","","","","","","","","","","key","j","16.544911504424366","768","428","j","true","img/S_ambi40.png","三角","simultaneous",""
"","","","","","html-keyboard-response","192","620503","0.0-13.0-2.0-1.0-0.0-1.16","null","<span style='color:GreenYellow; font-size: 70px;'>正确! </span>","null","","","","","","","","","","","","","","","","","","","","","","","feedback_test"
"","","","","","psychophysics","193","622429","0.0-13.0-2.0-1.0-0.0-0.17","923","","f","","","","","","","","","","","","","key","f","16.666286956521926","768","428","f","true","img/C_ambi40.png","圆形","simultaneous",""
"","","","","","html-keyboard-response","194","622750","0.0-13.0-2.0-1.0-0.0-1.17","null","<span style='color:GreenYellow; font-size: 70px;'>正确! </span>","null","","","","","","","","","","","","","","","","","","","","","","","feedback_test"
"","","","","","psychophysics","195","624791","0.0-13.0-2.0-1.0-0.0-0.18","1035","","f","","","","","","","","","","","","","key","f","16.66817213114748","768","428","f","true","img/S_ambi40.png","方形","simultaneous",""
"","","","","","html-keyboard-response","196","625104","0.0-13.0-2.0-1.0-0.0-1.18","null","<span style='color:GreenYellow; font-size: 70px;'>正确! </span>","null","","","","","","","","","","","","","","","","","","","","","","","feedback_test"
"","","","","","psychophysics","197","627121","0.0-13.0-2.0-1.0-0.0-0.19","1015","","j","","","","","","","","","","","","","key","j","16.6643333333331","768","428","j","true","img/C_ambi40.png","方形","simultaneous",""
"","","","","","html-keyboard-response","198","627441","0.0-13.0-2.0-1.0-0.0-1.19","null","<span style='color:GreenYellow; font-size: 70px;'>正确! </span>","null","","","","","","","","","","","","","","","","","","","","","","","feedback_test"
"","","","","","psychophysics","199","629735","0.0-13.0-2.0-1.0-0.0-0.20","1279","","f","","","","","","","","","","","","","key","f","16.66743382352904","768","428","f","true","img/C_ambi40.png","圆形","simultaneous",""
"","","","","","html-keyboard-response","200","630056","0.0-13.0-2.0-1.0-0.0-1.20","null","<span style='color:GreenYellow; font-size: 70px;'>正确! </span>","null","","","","","","","","","","","","","","","","","","","","","","","feedback_test"
"","","","","","psychophysics","201","631936","0.0-13.0-2.0-1.0-0.0-0.21","871","","j","","","","","","","","","","","","","key","j","16.666567567567057","768","428","j","true","img/S_ambi40.png","圆形","simultaneous",""
"","","","","","html-keyboard-response","202","632252","0.0-13.0-2.0-1.0-0.0-1.21","null","<span style='color:GreenYellow; font-size: 70px;'>正确! </span>","null","","","","","","","","","","","","","","","","","","","","","","","feedback_test"
"","","","","","psychophysics","203","634079","0.0-13.0-2.0-1.0-0.0-0.22","823","","f","","","","","","","","","","","","","key","f","16.665935779817044","768","428","f","true","img/S_ambi40.png","方形","simultaneous",""
"","","","","","html-keyboard-response","204","634394","0.0-13.0-2.0-1.0-0.0-1.22","null","<span style='color:GreenYellow; font-size: 70px;'>正确! </span>","null","","","","","","","","","","","","","","","","","","","","","","","feedback_test"
"","","","","","psychophysics","205","636091","0.0-13.0-2.0-1.0-0.0-0.23","688","","j","","","","","","","","","","","","","key","j","16.666336633662674","768","428","j","true","img/C_ambi40.png","三角","simultaneous",""
"","","","","","html-keyboard-response","206","636402","0.0-13.0-2.0-1.0-0.0-1.23","null","<span style='color:GreenYellow; font-size: 70px;'>正确! </span>","null","","","","","","","","","","","","","","","","","","","","","","","feedback_test"
"","","","","","psychophysics","207","638147","0.0-13.0-2.0-1.0-0.0-0.24","741","","f","","","","","","","","","","","","","key","f","16.664846153845875","768","428","f","true","img/T_ambi40.png","三角","simultaneous",""
"","","","","","html-keyboard-response","208","638463","0.0-13.0-2.0-1.0-0.0-1.24","null","<span style='color:GreenYellow; font-size: 70px;'>正确! </span>","null","","","","","","","","","","","","","","","","","","","","","","","feedback_test"
"","","","","","psychophysics","209","640230","0.0-13.0-2.0-1.0-0.0-0.25","757","","j","","","","","","","","","","","","","key","j","16.665923809524006","768","428","j","true","img/T_ambi40.png","圆形","simultaneous",""
"","","","","","html-keyboard-response","210","640544","0.0-13.0-2.0-1.0-0.0-1.25","null","<span style='color:GreenYellow; font-size: 70px;'>正确! </span>","null","","","","","","","","","","","","","","","","","","","","","","","feedback_test"
"","","","","","psychophysics","211","642363","0.0-13.0-2.0-1.0-0.0-0.26","806","","f","","","","","","","","","","","","","key","f","16.663796296296855","768","428","f","true","img/C_ambi40.png","圆形","simultaneous",""
"","","","","","html-keyboard-response","212","642670","0.0-13.0-2.0-1.0-0.0-1.26","null","<span style='color:GreenYellow; font-size: 70px;'>正确! </span>","null","","","","","","","","","","","","","","","","","","","","","","","feedback_test"
"","","","","","psychophysics","213","644481","0.0-13.0-2.0-1.0-0.0-0.27","808","","f","","","","","","","","","","","","","key","f","16.664944444444565","768","428","f","true","img/C_ambi40.png","圆形","simultaneous",""
"","","","","","html-keyboard-response","214","644790","0.0-13.0-2.0-1.0-0.0-1.27","null","<span style='color:GreenYellow; font-size: 70px;'>正确! </span>","null","","","","","","","","","","","","","","","","","","","","","","","feedback_test"
"","","","","","psychophysics","215","646638","0.0-13.0-2.0-1.0-0.0-0.28","848","","f","","","","","","","","","","","","","key","f","16.665449541285334","768","428","f","true","img/S_ambi40.png","方形","simultaneous",""
"","","","","","html-keyboard-response","216","646950","0.0-13.0-2.0-1.0-0.0-1.28","null","<span style='color:GreenYellow; font-size: 70px;'>正确! </span>","null","","","","","","","","","","","","","","","","","","","","","","","feedback_test"
"","","","","","psychophysics","217","648579","0.0-13.0-2.0-1.0-0.0-0.29","623","","j","","","","","","","","","","","","","key","j","16.666195876289102","768","428","j","true","img/S_ambi40.png","三角","simultaneous",""
"","","","","","html-keyboard-response","218","648894","0.0-13.0-2.0-1.0-0.0-1.29","null","<span style='color:GreenYellow; font-size: 70px;'>正确! </span>","null","","","","","","","","","","","","","","","","","","","","","","","feedback_test"
"","","","","","psychophysics","219","650717","0.0-13.0-2.0-1.0-0.0-0.30","815","","j","","","","","","","","","","","","","key","j","16.666935185185004","768","428","j","true","img/S_ambi40.png","圆形","simultaneous",""
"","","","","","html-keyboard-response","220","651041","0.0-13.0-2.0-1.0-0.0-1.30","null","<span style='color:GreenYellow; font-size: 70px;'>正确! </span>","null","","","","","","","","","","","","","","","","","","","","","","","feedback_test"
"","","","","","psychophysics","221","652809","0.0-13.0-2.0-1.0-0.0-0.31","758","","j","","","","","","","","","","","","","key","j","16.665685714285686","768","428","j","true","img/C_ambi40.png","方形","simultaneous",""
"","","","","","html-keyboard-response","222","653123","0.0-13.0-2.0-1.0-0.0-1.31","null","<span style='color:GreenYellow; font-size: 70px;'>正确! </span>","null","","","","","","","","","","","","","","","","","","","","","","","feedback_test"
"","","","","","psychophysics","223","654947","0.0-13.0-2.0-1.0-0.0-0.32","824","","j","","","","","","","","","","","","","key","j","16.66373148148112","768","428","j","true","img/C_ambi40.png","三角","simultaneous",""
"","","","","","html-keyboard-response","224","655256","0.0-13.0-2.0-1.0-0.0-1.32","null","<span style='color:GreenYellow; font-size: 70px;'>正确! </span>","null","","","","","","","","","","","","","","","","","","","","","","","feedback_test"
"","","","","","psychophysics","225","657089","0.0-13.0-2.0-1.0-0.0-0.33","821","","f","","","","","","","","","","","","","key","f","16.665009174312235","768","428","f","true","img/T_ambi40.png","三角","simultaneous",""
"","","","","","html-keyboard-response","226","657402","0.0-13.0-2.0-1.0-0.0-1.33","null","<span style='color:GreenYellow; font-size: 70px;'>正确! </span>","null","","","","","","","","","","","","","","","","","","","","","","","feedback_test"
"","","","","","psychophysics","227","659317","0.0-13.0-2.0-1.0-0.0-0.34","911","","j","","","","","","","","","","","","","key","j","16.664342105263035","768","428","f","false","img/S_ambi40.png","方形","simultaneous",""
"","","","","","html-keyboard-response","228","659628","0.0-13.0-2.0-1.0-0.0-1.34","null","<span style='color:red; font-size: 70px;'>错误! </span>","null","","","","","","","","","","","","","","","","","","","","","","","feedback_test"
"","","","","","psychophysics","229","661556","0.0-13.0-2.0-1.0-0.0-0.35","915","","j","","","","","","","","","","","","","key","j","16.665412280701403","768","428","j","true","img/T_ambi40.png","方形","simultaneous",""
"","","","","","html-keyboard-response","230","661869","0.0-13.0-2.0-1.0-0.0-1.35","null","<span style='color:GreenYellow; font-size: 70px;'>正确! </span>","null","","","","","","","","","","","","","","","","","","","","","","","feedback_test"
"","","","","","psychophysics","231","663619","0.0-13.0-2.0-1.0-0.0-0.36","747","","j","","","","","","","","","","","","","key","j","16.66580769230719","768","428","j","true","img/S_ambi40.png","三角","simultaneous",""
"","","","","","html-keyboard-response","232","663936","0.0-13.0-2.0-1.0-0.0-1.36","null","<span style='color:GreenYellow; font-size: 70px;'>正确! </span>","null","","","","","","","","","","","","","","","","","","","","","","","feedback_test"
"","","","","","psychophysics","233","665880","0.0-13.0-2.0-1.0-0.0-0.37","941","","j","","","","","","","","","","","","","key","j","16.667155172413914","768","428","j","true","img/C_ambi40.png","三角","simultaneous",""
"","","","","","html-keyboard-response","234","666189","0.0-13.0-2.0-1.0-0.0-1.37","null","<span style='color:GreenYellow; font-size: 70px;'>正确! </span>","null","","","","","","","","","","","","","","","","","","","","","","","feedback_test"
"","","","","","psychophysics","235","667816","0.0-13.0-2.0-1.0-0.0-0.38","626","","f","","","","","","","","","","","","","key","f","16.667343749999418","768","428","f","true","img/C_ambi40.png","圆形","simultaneous",""
"","","","","","html-keyboard-response","236","668132","0.0-13.0-2.0-1.0-0.0-1.38","null","<span style='color:GreenYellow; font-size: 70px;'>正确! </span>","null","","","","","","","","","","","","","","","","","","","","","","","feedback_test"
"","","","","","psychophysics","237","669994","0.0-13.0-2.0-1.0-0.0-0.39","855","","f","","","","","","","","","","","","","key","f","16.666666666666668","768","428","f","true","img/T_ambi40.png","三角","simultaneous",""
"","","","","","html-keyboard-response","238","670309","0.0-13.0-2.0-1.0-0.0-1.39","null","<span style='color:GreenYellow; font-size: 70px;'>正确! </span>","null","","","","","","","","","","","","","","","","","","","","","","","feedback_test"
"","","","","","psychophysics","239","672128","0.0-13.0-2.0-1.0-0.0-0.40","805","","j","","","","","","","","","","","","","key","j","16.662740740740748","768","428","j","true","img/T_ambi40.png","圆形","simultaneous",""
"","","","","","html-keyboard-response","240","672440","0.0-13.0-2.0-1.0-0.0-1.40","null","<span style='color:GreenYellow; font-size: 70px;'>正确! </span>","null","","","","","","","","","","","","","","","","","","","","","","","feedback_test"
"","","","","","psychophysics","241","674138","0.0-13.0-2.0-1.0-0.0-0.41","684","","f","","","","","","","","","","","","","key","f","16.66890999999945","768","428","f","true","img/C_ambi40.png","圆形","simultaneous",""
"","","","","","html-keyboard-response","242","674451","0.0-13.0-2.0-1.0-0.0-1.41","null","<span style='color:GreenYellow; font-size: 70px;'>正确! </span>","null","","","","","","","","","","","","","","","","","","","","","","","feedback_test"
"","","","","","psychophysics","243","676320","0.0-13.0-2.0-1.0-0.0-0.42","864","","j","","","","","","","","","","","","","key","j","16.665756756757588","768","428","j","true","img/T_ambi40.png","方形","simultaneous",""
"","","","","","html-keyboard-response","244","676637","0.0-13.0-2.0-1.0-0.0-1.42","null","<span style='color:GreenYellow; font-size: 70px;'>正确! </span>","null","","","","","","","","","","","","","","","","","","","","","","","feedback_test"
"","","","","","psychophysics","245","678996","0.0-13.0-2.0-1.0-0.0-0.43","1357","","j","","","","","","","","","","","","","key","j","16.57753571428558","768","428","j","true","img/S_ambi40.png","圆形","simultaneous",""
"","","","","","html-keyboard-response","246","679313","0.0-13.0-2.0-1.0-0.0-1.43","null","<span style='color:GreenYellow; font-size: 70px;'>正确! </span>","null","","","","","","","","","","","","","","","","","","","","","","","feedback_test"
"","","","","","psychophysics","247","681079","0.0-13.0-2.0-1.0-0.0-0.44","757","","f","","","","","","","","","","","","","key","f","16.66712380952335","768","428","f","true","img/S_ambi40.png","方形","simultaneous",""
"","","","","","html-keyboard-response","248","681397","0.0-13.0-2.0-1.0-0.0-1.44","null","<span style='color:GreenYellow; font-size: 70px;'>正确! </span>","null","","","","","","","","","","","","","","","","","","","","","","","feedback_test"
"","","","","","psychophysics","249","683236","0.0-13.0-2.0-1.0-0.0-0.45","830","","f","","","","","","","","","","","","","key","f","16.666651376146064","768","428","f","true","img/T_ambi40.png","三角","simultaneous",""
"","","","","","html-keyboard-response","250","683545","0.0-13.0-2.0-1.0-0.0-1.45","null","<span style='color:GreenYellow; font-size: 70px;'>正确! </span>","null","","","","","","","","","","","","","","","","","","","","","","","feedback_test"
"","","","","","psychophysics","251","685204","0.0-13.0-2.0-1.0-0.0-0.46","649","","j","","","","","","","","","","","","","key","j","16.66416326530601","768","428","j","true","img/C_ambi40.png","方形","simultaneous",""
"","","","","","html-keyboard-response","252","685516","0.0-13.0-2.0-1.0-0.0-1.46","null","<span style='color:GreenYellow; font-size: 70px;'>正确! </span>","null","","","","","","","","","","","","","","","","","","","","","","","feedback_test"
"","","","","","psychophysics","253","687278","0.0-13.0-2.0-1.0-0.0-0.47","756","","f","","","","","","","","","","","","","key","f","16.663533333333078","768","428","f","true","img/S_ambi40.png","方形","simultaneous",""
"","","","","","html-keyboard-response","254","687591","0.0-13.0-2.0-1.0-0.0-1.47","null","<span style='color:GreenYellow; font-size: 70px;'>正确! </span>","null","","","","","","","","","","","","","","","","","","","","","","","feedback_test"
"","","","","","psychophysics","255","689456","0.0-13.0-2.0-1.0-0.0-0.48","859","","j","","","","","","","","","","","","","key","j","16.666108108107796","768","428","j","true","img/C_ambi40.png","方形","simultaneous",""
"","","","","","html-keyboard-response","256","689766","0.0-13.0-2.0-1.0-0.0-1.48","null","<span style='color:GreenYellow; font-size: 70px;'>正确! </span>","null","","","","","","","","","","","","","","","","","","","","","","","feedback_test"
"","","","","","psychophysics","257","691650","0.0-13.0-2.0-1.0-0.0-0.49","878","","j","","","","","","","","","","","","","key","j","16.668053571427922","768","428","j","true","img/C_ambi40.png","三角","simultaneous",""
"","","","","","html-keyboard-response","258","691958","0.0-13.0-2.0-1.0-0.0-1.49","null","<span style='color:GreenYellow; font-size: 70px;'>正确! </span>","null","","","","","","","","","","","","","","","","","","","","","","","feedback_test"
"","","","","","psychophysics","259","693920","0.0-13.0-2.0-1.0-0.0-0.50","953","","j","","","","","","","","","","","","","key","j","16.666560344827555","768","428","j","true","img/T_ambi40.png","圆形","simultaneous",""
"","","","","","html-keyboard-response","260","694228","0.0-13.0-2.0-1.0-0.0-1.50","null","<span style='color:GreenYellow; font-size: 70px;'>正确! </span>","null","","","","","","","","","","","","","","","","","","","","","","","feedback_test"
"","","","","","psychophysics","261","695882","0.0-13.0-2.0-1.0-0.0-0.51","643","","f","","","","","","","","","","","","","key","f","16.667255102041445","768","428","f","true","img/S_ambi40.png","方形","simultaneous",""
"","","","","","html-keyboard-response","262","696194","0.0-13.0-2.0-1.0-0.0-1.51","null","<span style='color:GreenYellow; font-size: 70px;'>正确! </span>","null","","","","","","","","","","","","","","","","","","","","","","","feedback_test"
"","","","","","psychophysics","263","697814","0.0-13.0-2.0-1.0-0.0-0.52","609","","f","","","","","","","","","","","","","key","f","16.6663750000007","768","428","f","true","img/C_ambi40.png","圆形","simultaneous",""
"","","","","","html-keyboard-response","264","698130","0.0-13.0-2.0-1.0-0.0-1.52","null","<span style='color:GreenYellow; font-size: 70px;'>正确! </span>","null","","","","","","","","","","","","","","","","","","","","","","","feedback_test"
"","","","","","psychophysics","265","699841","0.0-13.0-2.0-1.0-0.0-0.53","702","","f","","","","","","","","","","","","","key","f","16.666813725490332","768","428","f","true","img/S_ambi40.png","方形","simultaneous",""
"","","","","","html-keyboard-response","266","700151","0.0-13.0-2.0-1.0-0.0-1.53","null","<span style='color:GreenYellow; font-size: 70px;'>正确! </span>","null","","","","","","","","","","","","","","","","","","","","","","","feedback_test"
"","","","","","psychophysics","267","702088","0.0-13.0-2.0-1.0-0.0-0.54","933","","j","","","","","","","","","","","","","key","j","16.666747826086763","768","428","j","true","img/S_ambi40.png","圆形","simultaneous",""
"","","","","","html-keyboard-response","268","702407","0.0-13.0-2.0-1.0-0.0-1.54","null","<span style='color:GreenYellow; font-size: 70px;'>正确! </span>","null","","","","","","","","","","","","","","","","","","","","","","","feedback_test"
"","","","","","psychophysics","269","704180","0.0-13.0-2.0-1.0-0.0-0.55","759","","j","","","","","","","","","","","","","key","j","16.66504761904833","768","428","j","true","img/T_ambi40.png","方形","simultaneous",""
"","","","","","html-keyboard-response","270","704495","0.0-13.0-2.0-1.0-0.0-1.55","null","<span style='color:GreenYellow; font-size: 70px;'>正确! </span>","null","","","","","","","","","","","","","","","","","","","","","","","feedback_test"
"","","","","","psychophysics","271","706133","0.0-13.0-2.0-1.0-0.0-0.56","629","","f","","","","","","","","","","","","","key","f","16.66608247422666","768","428","f","true","img/T_ambi40.png","三角","simultaneous",""
"","","","","","html-keyboard-response","272","706445","0.0-13.0-2.0-1.0-0.0-1.56","null","<span style='color:GreenYellow; font-size: 70px;'>正确! </span>","null","","","","","","","","","","","","","","","","","","","","","","","feedback_test"
"","","","","","psychophysics","273","708341","0.0-13.0-2.0-1.0-0.0-0.57","890","","f","","","","","","","","","","","","","key","f","16.663840707965335","768","428","f","true","img/T_ambi40.png","三角","simultaneous",""
"","","","","","html-keyboard-response","274","708662","0.0-13.0-2.0-1.0-0.0-1.57","null","<span style='color:GreenYellow; font-size: 70px;'>正确! </span>","null","","","","","","","","","","","","","","","","","","","","","","","feedback_test"
"","","","","","psychophysics","275","710441","0.0-13.0-2.0-1.0-0.0-0.58","770","","j","","","","","","","","","","","","","key","j","16.66665094339658","768","428","f","false","img/C_ambi40.png","圆形","simultaneous",""
"","","","","","html-keyboard-response","276","710746","0.0-13.0-2.0-1.0-0.0-1.58","null","<span style='color:red; font-size: 70px;'>错误! </span>","null","","","","","","","","","","","","","","","","","","","","","","","feedback_test"
"","","","","","psychophysics","277","712550","0.0-13.0-2.0-1.0-0.0-0.59","795","","j","","","","","","","","","","","","","key","j","16.66154205607507","768","428","j","true","img/S_ambi40.png","三角","simultaneous",""
"","","","","","html-keyboard-response","278","712859","0.0-13.0-2.0-1.0-0.0-1.59","null","<span style='color:GreenYellow; font-size: 70px;'>正确! </span>","null","","","","","","","","","","","","","","","","","","","","","","","feedback_test"
"","","","","","html-keyboard-response","279","716225","0.0-13.0-2.0-1.0-1.0","3364","<style>.context{color:white; font-size: 35px; line-height:40px}</style>                            <div><p class='context'>您正确回答了92% 的试次。</p><p class='context'>您的平均反应时为820毫秒。</p><p class='context'>请按任意键进入休息</p></div>","j","","","","","","","","","","","","","","","","","","","","","","",""
"","","","","","html-button-response","280","778658","0.0-13.0-2.0-1.0-2.0","62429","
                    <p>您当前还剩余3组实验</p>
                    <p>现在是休息时间，当您结束休息后，您可以点击 结束休息 按钮 继续</p>
                    <p>建议休息时间还剩余<span id=""iii"">60</span>秒</p>","0","","","","","","","","","","","","","","","","","","","","","","",""
"","","","","","psychophysics","281","780301","0.0-13.0-2.0-1.0-0.1-0.60","631","","f","","","","","","","","","","","","","key","f","16.665711340205217","768","428","f","true","img/T_ambi40.png","三角","simultaneous",""
"","","","","","html-keyboard-response","282","780624","0.0-13.0-2.0-1.0-0.1-1.60","null","<span style='color:GreenYellow; font-size: 70px;'>正确! </span>","null","","","","","","","","","","","","","","","","","","","","","","","feedback_test"
"","","","","","psychophysics","283","782186","0.0-13.0-2.0-1.0-0.1-0.61","550","","f","","","","","","","","","","","","","key","f","16.66702173913085","768","428","f","true","img/S_ambi40.png","方形","simultaneous",""
"","","","","","html-keyboard-response","284","782493","0.0-13.0-2.0-1.0-0.1-1.61","null","<span style='color:GreenYellow; font-size: 70px;'>正确! </span>","null","","","","","","","","","","","","","","","","","","","","","","","feedback_test"
"","","","","","psychophysics","285","784218","0.0-13.0-2.0-1.0-0.1-0.62","714","","j","","","","","","","","","","","","","key","j","16.668696078430752","768","428","j","true","img/T_ambi40.png","圆形","simultaneous",""
"","","","","","html-keyboard-response","286","784528","0.0-13.0-2.0-1.0-0.1-1.62","null","<span style='color:GreenYellow; font-size: 70px;'>正确! </span>","null","","","","","","","","","","","","","","","","","","","","","","","feedback_test"
"","","","","","psychophysics","287","786190","0.0-13.0-2.0-1.0-0.1-0.63","653","","j","","","","","","","","","","","","","key","j","16.66412121212143","768","428","f","false","img/C_ambi40.png","圆形","simultaneous",""
"","","","","","html-keyboard-response","288","786506","0.0-13.0-2.0-1.0-0.1-1.63","null","<span style='color:red; font-size: 70px;'>错误! </span>","null","","","","","","","","","","","","","","","","","","","","","","","feedback_test"
"","","","","","psychophysics","289","788218","0.0-13.0-2.0-1.0-0.1-0.64","698","","j","","","","","","","","","","","","","key","j","16.66936633663395","768","428","j","true","img/S_ambi40.png","三角","simultaneous",""
"","","","","","html-keyboard-response","290","788537","0.0-13.0-2.0-1.0-0.1-1.64","null","<span style='color:GreenYellow; font-size: 70px;'>正确! </span>","null","","","","","","","","","","","","","","","","","","","","","","","feedback_test"
"","","","","","psychophysics","291","790318","0.0-13.0-2.0-1.0-0.1-0.65","772","","j","","","","","","","","","","","","","key","j","16.66608571428584","768","428","j","true","img/C_ambi40.png","方形","simultaneous",""
"","","","","","html-keyboard-response","292","790638","0.0-13.0-2.0-1.0-0.1-1.65","null","<span style='color:GreenYellow; font-size: 70px;'>正确! </span>","null","","","","","","","","","","","","","","","","","","","","","","","feedback_test"
"","","","","","psychophysics","293","792282","0.0-13.0-2.0-1.0-0.1-0.66","632","","f","","","","","","","","","","","","","key","f","16.663814432988634","768","428","f","true","img/S_ambi40.png","方形","simultaneous",""
"","","","","","html-keyboard-response","294","792600","0.0-13.0-2.0-1.0-0.1-1.66","null","<span style='color:GreenYellow; font-size: 70px;'>正确! </span>","null","","","","","","","","","","","","","","","","","","","","","","","feedback_test"
"","","","","","psychophysics","295","794322","0.0-13.0-2.0-1.0-0.1-0.67","720","","j","","","","","","","","","","","","","key","j","16.663902912621197","768","428","j","true","img/S_ambi40.png","圆形","simultaneous",""
"","","","","","html-keyboard-response","296","794631","0.0-13.0-2.0-1.0-0.1-1.67","null","<span style='color:GreenYellow; font-size: 70px;'>正确! </span>","null","","","","","","","","","","","","","","","","","","","","","","","feedback_test"
"","","","","","psychophysics","297","796386","0.0-13.0-2.0-1.0-0.1-0.68","749","","f","","","","","","","","","","","","","key","f","16.66662500000026","768","428","f","true","img/T_ambi40.png","三角","simultaneous",""
"","","","","","html-keyboard-response","298","796705","0.0-13.0-2.0-1.0-0.1-1.68","null","<span style='color:GreenYellow; font-size: 70px;'>正确! </span>","null","","","","","","","","","","","","","","","","","","","","","","","feedback_test"
"","","","","","psychophysics","299","798328","0.0-13.0-2.0-1.0-0.1-0.69","608","","f","","","","","","","","","","","","","key","f","16.66997916666757","768","428","f","true","img/C_ambi40.png","圆形","simultaneous",""
"","","","","","html-keyboard-response","300","798638","0.0-13.0-2.0-1.0-0.1-1.69","null","<span style='color:GreenYellow; font-size: 70px;'>正确! </span>","null","","","","","","","","","","","","","","","","","","","","","","","feedback_test"
"","","","","","psychophysics","301","800258","0.0-13.0-2.0-1.0-0.1-0.70","606","","j","","","","","","","","","","","","","key","j","16.665927083333372","768","428","j","true","img/C_ambi40.png","三角","simultaneous",""
"","","","","","html-keyboard-response","302","800567","0.0-13.0-2.0-1.0-0.1-1.70","null","<span style='color:GreenYellow; font-size: 70px;'>正确! </span>","null","","","","","","","","","","","","","","","","","","","","","","","feedback_test"
"","","","","","psychophysics","303","802312","0.0-13.0-2.0-1.0-0.1-0.71","742","","j","","","","","","","","","","","","","key","j","16.664567307692217","768","428","j","true","img/T_ambi40.png","方形","simultaneous",""
"","","","","","html-keyboard-response","304","802622","0.0-13.0-2.0-1.0-0.1-1.71","null","<span style='color:GreenYellow; font-size: 70px;'>正确! </span>","null","","","","","","","","","","","","","","","","","","","","","","","feedback_test"
"","","","","","psychophysics","305","804348","0.0-13.0-2.0-1.0-0.1-0.72","716","","j","","","","","","","","","","","","","key","j","16.666892156863184","768","428","j","true","img/C_ambi40.png","三角","simultaneous",""
"","","","","","html-keyboard-response","306","804662","0.0-13.0-2.0-1.0-0.1-1.72","null","<span style='color:GreenYellow; font-size: 70px;'>正确! </span>","null","","","","","","","","","","","","","","","","","","","","","","","feedback_test"
"","","","","","psychophysics","307","806362","0.0-13.0-2.0-1.0-0.1-0.73","693","","j","","","","","","","","","","","","","key","j","16.66715841584189","768","428","j","true","img/C_ambi40.png","方形","simultaneous",""
"","","","","","html-keyboard-response","308","806667","0.0-13.0-2.0-1.0-0.1-1.73","null","<span style='color:GreenYellow; font-size: 70px;'>正确! </span>","null","","","","","","","","","","","","","","","","","","","","","","","feedback_test"
"","","","","","psychophysics","309","808210","0.0-13.0-2.0-1.0-0.1-0.74","540","","f","","","","","","","","","","","","","key","f","16.66591304347916","768","428","f","true","img/C_ambi40.png","圆形","simultaneous",""
"","","","","","html-keyboard-response","310","808516","0.0-13.0-2.0-1.0-0.1-1.74","null","<span style='color:GreenYellow; font-size: 70px;'>正确! </span>","null","","","","","","","","","","","","","","","","","","","","","","","feedback_test"
"","","","","","psychophysics","311","810082","0.0-13.0-2.0-1.0-0.1-0.75","562","","f","","","","","","","","","","","","","key","f","16.667924731183717","768","428","f","true","img/T_ambi40.png","三角","simultaneous",""
"","","","","","html-keyboard-response","312","810387","0.0-13.0-2.0-1.0-0.1-1.75","null","<span style='color:GreenYellow; font-size: 70px;'>正确! </span>","null","","","","","","","","","","","","","","","","","","","","","","","feedback_test"
"","","","","","psychophysics","313","812164","0.0-13.0-2.0-1.0-0.1-0.76","764","","j","","","","","","","","","","","","","key","j","16.665780952381013","768","428","j","true","img/S_ambi40.png","三角","simultaneous",""
"","","","","","html-keyboard-response","314","812475","0.0-13.0-2.0-1.0-0.1-1.76","null","<span style='color:GreenYellow; font-size: 70px;'>正确! </span>","null","","","","","","","","","","","","","","","","","","","","","","","feedback_test"
"","","","","","psychophysics","315","814178","0.0-13.0-2.0-1.0-0.1-0.77","692","","f","","","","","","","","","","","","","key","f","16.666396039604937","768","428","f","true","img/T_ambi40.png","三角","simultaneous",""
"","","","","","html-keyboard-response","316","814493","0.0-13.0-2.0-1.0-0.1-1.77","null","<span style='color:GreenYellow; font-size: 70px;'>正确! </span>","null","","","","","","","","","","","","","","","","","","","","","","","feedback_test"
"","","","","","psychophysics","317","816208","0.0-13.0-2.0-1.0-0.1-0.78","705","","j","","","","","","","","","","","","","key","j","16.66622549019681","768","428","j","true","img/S_ambi40.png","圆形","simultaneous",""
"","","","","","html-keyboard-response","318","816527","0.0-13.0-2.0-1.0-0.1-1.78","null","<span style='color:GreenYellow; font-size: 70px;'>正确! </span>","null","","","","","","","","","","","","","","","","","","","","","","","feedback_test"
"","","","","","psychophysics","319","818060","0.0-13.0-2.0-1.0-0.1-0.79","523","","f","","","","","","","","","","","","","key","f","16.6649670329669","768","428","f","true","img/S_ambi40.png","方形","simultaneous",""
"","","","","","html-keyboard-response","320","818373","0.0-13.0-2.0-1.0-0.1-1.79","null","<span style='color:GreenYellow; font-size: 70px;'>正确! </span>","null","","","","","","","","","","","","","","","","","","","","","","","feedback_test"
"","","","","","psychophysics","321","819955","0.0-13.0-2.0-1.0-0.1-0.80","571","","f","","","","","","","","","","","","","key","f","16.66321276595687","768","428","f","true","img/C_ambi40.png","圆形","simultaneous",""
"","","","","","html-keyboard-response","322","820271","0.0-13.0-2.0-1.0-0.1-1.80","null","<span style='color:GreenYellow; font-size: 70px;'>正确! </span>","null","","","","","","","","","","","","","","","","","","","","","","","feedback_test"
"","","","","","psychophysics","323","821890","0.0-13.0-2.0-1.0-0.1-0.81","611","","f","","","","","","","","","","","","","key","f","16.66922916666711","768","428","f","true","img/S_ambi40.png","方形","simultaneous",""
"","","","","","html-keyboard-response","324","822202","0.0-13.0-2.0-1.0-0.1-1.81","null","<span style='color:GreenYellow; font-size: 70px;'>正确! </span>","null","","","","","","","","","","","","","","","","","","","","","","","feedback_test"
"","","","","","psychophysics","325","823836","0.0-13.0-2.0-1.0-0.1-0.82","633","","j","","","","","","","","","","","","","key","j","16.517510416666482","768","428","j","true","img/T_ambi40.png","圆形","simultaneous",""
"","","","","","html-keyboard-response","326","824147","0.0-13.0-2.0-1.0-0.1-1.82","null","<span style='color:GreenYellow; font-size: 70px;'>正确! </span>","null","","","","","","","","","","","","","","","","","","","","","","","feedback_test"
"","","","","","psychophysics","327","825850","0.0-13.0-2.0-1.0-0.1-0.83","697","","j","","","","","","","","","","","","","key","j","16.665673267326806","768","428","j","true","img/T_ambi40.png","方形","simultaneous",""
"","","","","","html-keyboard-response","328","826157","0.0-13.0-2.0-1.0-0.1-1.83","null","<span style='color:GreenYellow; font-size: 70px;'>正确! </span>","null","","","","","","","","","","","","","","","","","","","","","","","feedback_test"
"","","","","","psychophysics","329","827794","0.0-13.0-2.0-1.0-0.1-0.84","625","","j","","","","","","","","","","","","","key","j","16.664680412371606","768","428","j","true","img/C_ambi40.png","三角","simultaneous",""
"","","","","","html-keyboard-response","330","828102","0.0-13.0-2.0-1.0-0.1-1.84","null","<span style='color:GreenYellow; font-size: 70px;'>正确! </span>","null","","","","","","","","","","","","","","","","","","","","","","","feedback_test"
"","","","","","psychophysics","331","829796","0.0-13.0-2.0-1.0-0.1-0.85","693","","j","","","","","","","","","","","","","key","j","16.526149999999905","768","428","j","true","img/S_ambi40.png","圆形","simultaneous",""
"","","","","","html-keyboard-response","332","830109","0.0-13.0-2.0-1.0-0.1-1.85","null","<span style='color:GreenYellow; font-size: 70px;'>正确! </span>","null","","","","","","","","","","","","","","","","","","","","","","","feedback_test"
"","","","","","psychophysics","333","831800","0.0-13.0-2.0-1.0-0.1-0.86","681","","j","","","","","","","","","","","","","key","j","16.666540000000968","768","428","j","true","img/T_ambi40.png","方形","simultaneous",""
"","","","","","html-keyboard-response","334","832114","0.0-13.0-2.0-1.0-0.1-1.86","null","<span style='color:GreenYellow; font-size: 70px;'>正确! </span>","null","","","","","","","","","","","","","","","","","","","","","","","feedback_test"
"","","","","","psychophysics","335","833714","0.0-13.0-2.0-1.0-0.1-0.87","595","","j","","","","","","","","","","","","","key","j","16.66515789473748","768","428","j","true","img/S_ambi40.png","三角","simultaneous",""
"","","","","","html-keyboard-response","336","834027","0.0-13.0-2.0-1.0-0.1-1.87","null","<span style='color:GreenYellow; font-size: 70px;'>正确! </span>","null","","","","","","","","","","","","","","","","","","","","","","","feedback_test"
"","","","","","psychophysics","337","835764","0.0-13.0-2.0-1.0-0.1-0.88","729","","f","","","","","","","","","","","","","key","f","16.66309708737863","768","428","f","true","img/S_ambi40.png","方形","simultaneous",""
"","","","","","html-keyboard-response","338","836079","0.0-13.0-2.0-1.0-0.1-1.88","null","<span style='color:GreenYellow; font-size: 70px;'>正确! </span>","null","","","","","","","","","","","","","","","","","","","","","","","feedback_test"
"","","","","","psychophysics","339","837905","0.0-13.0-2.0-1.0-0.1-0.89","819","","f","","","","","","","","","","","","","key","f","16.663715596330018","768","428","f","true","img/C_ambi40.png","圆形","simultaneous",""
"","","","","","html-keyboard-response","340","838225","0.0-13.0-2.0-1.0-0.1-1.89","null","<span style='color:GreenYellow; font-size: 70px;'>正确! </span>","null","","","","","","","","","","","","","","","","","","","","","","","feedback_test"
"","","","","","psychophysics","341","839986","0.0-13.0-2.0-1.0-0.1-0.90","750","","j","","","","","","","","","","","","","key","j","16.665875000000458","768","428","j","true","img/C_ambi40.png","方形","simultaneous",""
"","","","","","html-keyboard-response","342","840292","0.0-13.0-2.0-1.0-0.1-1.90","null","<span style='color:GreenYellow; font-size: 70px;'>正确! </span>","null","","","","","","","","","","","","","","","","","","","","","","","feedback_test"
"","","","","","psychophysics","343","841896","0.0-13.0-2.0-1.0-0.1-0.91","596","","f","","","","","","","","","","","","","key","f","16.66225263157884","768","428","f","true","img/T_ambi40.png","三角","simultaneous",""
"","","","","","html-keyboard-response","344","842208","0.0-13.0-2.0-1.0-0.1-1.91","null","<span style='color:GreenYellow; font-size: 70px;'>正确! </span>","null","","","","","","","","","","","","","","","","","","","","","","","feedback_test"
"","","","","","psychophysics","345","843945","0.0-13.0-2.0-1.0-0.1-0.92","729","","j","","","","","","","","","","","","","key","j","16.66466990291272","768","428","j","true","img/T_ambi40.png","圆形","simultaneous",""
"","","","","","html-keyboard-response","346","844254","0.0-13.0-2.0-1.0-0.1-1.92","null","<span style='color:GreenYellow; font-size: 70px;'>正确! </span>","null","","","","","","","","","","","","","","","","","","","","","","","feedback_test"
"","","","","","psychophysics","347","845928","0.0-13.0-2.0-1.0-0.1-0.93","661","","f","","","","","","","","","","","","","key","f","16.66608080808003","768","428","f","true","img/C_ambi40.png","圆形","simultaneous",""
"","","","","","html-keyboard-response","348","846246","0.0-13.0-2.0-1.0-0.1-1.93","null","<span style='color:GreenYellow; font-size: 70px;'>正确! </span>","null","","","","","","","","","","","","","","","","","","","","","","","feedback_test"
"","","","","","psychophysics","349","847867","0.0-13.0-2.0-1.0-0.1-0.94","615","","f","","","","","","","","","","","","","key","f","16.666104166666628","768","428","f","true","img/S_ambi40.png","方形","simultaneous",""
"","","","","","html-keyboard-response","350","848177","0.0-13.0-2.0-1.0-0.1-1.94","null","<span style='color:GreenYellow; font-size: 70px;'>正确! </span>","null","","","","","","","","","","","","","","","","","","","","","","","feedback_test"
"","","","","","psychophysics","351","849677","0.0-13.0-2.0-1.0-0.1-0.95","492","","f","","","","","","","","","","","","","key","f","16.666674157303728","768","428","f","true","img/T_ambi40.png","三角","simultaneous",""
"","","","","","html-keyboard-response","352","849989","0.0-13.0-2.0-1.0-0.1-1.95","null","<span style='color:GreenYellow; font-size: 70px;'>正确! </span>","null","","","","","","","","","","","","","","","","","","","","","","","feedback_test"
"","","","","","psychophysics","353","851537","0.0-13.0-2.0-1.0-0.1-0.96","540","","f","","","","","","","","","","","","","key","f","16.666010869565703","768","428","f","true","img/C_ambi40.png","圆形","simultaneous",""
"","","","","","html-keyboard-response","354","851851","0.0-13.0-2.0-1.0-0.1-1.96","null","<span style='color:GreenYellow; font-size: 70px;'>正确! </span>","null","","","","","","","","","","","","","","","","","","","","","","","feedback_test"
"","","","","","psychophysics","355","853367","0.0-13.0-2.0-1.0-0.1-0.97","515","","j","","","","","","","","","","","","","key","j","16.5236966292141","768","428","j","true","img/C_ambi40.png","三角","simultaneous",""
"","","","","","html-keyboard-response","356","853685","0.0-13.0-2.0-1.0-0.1-1.97","null","<span style='color:GreenYellow; font-size: 70px;'>正确! </span>","null","","","","","","","","","","","","","","","","","","","","","","","feedback_test"
"","","","","","psychophysics","357","855215","0.0-13.0-2.0-1.0-0.1-0.98","519","","f","","","","","","","","","","","","","key","f","16.664677777777737","768","428","f","true","img/C_ambi40.png","圆形","simultaneous",""
"","","","","","html-keyboard-response","358","855535","0.0-13.0-2.0-1.0-0.1-1.98","null","<span style='color:GreenYellow; font-size: 70px;'>正确! </span>","null","","","","","","","","","","","","","","","","","","","","","","","feedback_test"
"","","","","","psychophysics","359","857108","0.0-13.0-2.0-1.0-0.1-0.99","561","","j","","","","","","","","","","","","","key","j","16.663881720429266","768","428","j","true","img/C_ambi40.png","方形","simultaneous",""
"","","","","","html-keyboard-response","360","857419","0.0-13.0-2.0-1.0-0.1-1.99","null","<span style='color:GreenYellow; font-size: 70px;'>正确! </span>","null","","","","","","","","","","","","","","","","","","","","","","","feedback_test"
"","","","","","psychophysics","361","859159","0.0-13.0-2.0-1.0-0.1-0.100","732","","j","","","","","","","","","","","","","key","j","16.664718446602087","768","428","j","true","img/S_ambi40.png","三角","simultaneous",""
"","","","","","html-keyboard-response","362","859468","0.0-13.0-2.0-1.0-0.1-1.100","null","<span style='color:GreenYellow; font-size: 70px;'>正确! </span>","null","","","","","","","","","","","","","","","","","","","","","","","feedback_test"
"","","","","","psychophysics","363","861090","0.0-13.0-2.0-1.0-0.1-0.101","620","","f","","","","","","","","","","","","","key","f","16.666364583333536","768","428","f","true","img/S_ambi40.png","方形","simultaneous",""
"","","","","","html-keyboard-response","364","861399","0.0-13.0-2.0-1.0-0.1-1.101","null","<span style='color:GreenYellow; font-size: 70px;'>正确! </span>","null","","","","","","","","","","","","","","","","","","","","","","","feedback_test"
"","","","","","psychophysics","365","863053","0.0-13.0-2.0-1.0-0.1-0.102","652","","f","","","","","","","","","","","","","key","f","16.66658585858555","768","428","f","true","img/S_ambi40.png","方形","simultaneous",""
"","","","","","html-keyboard-response","366","863373","0.0-13.0-2.0-1.0-0.1-1.102","null","<span style='color:GreenYellow; font-size: 70px;'>正确! </span>","null","","","","","","","","","","","","","","","","","","","","","","","feedback_test"
"","","","","","psychophysics","367","865051","0.0-13.0-2.0-1.0-0.1-0.103","666","","f","","","","","","","","","","","","","key","f","16.6659797979801","768","428","f","true","img/T_ambi40.png","三角","simultaneous",""
"","","","","","html-keyboard-response","368","865366","0.0-13.0-2.0-1.0-0.1-1.103","null","<span style='color:GreenYellow; font-size: 70px;'>正确! </span>","null","","","","","","","","","","","","","","","","","","","","","","","feedback_test"
"","","","","","psychophysics","369","866984","0.0-13.0-2.0-1.0-0.1-0.104","616","","f","","","","","","","","","","","","","key","f","16.665156249999807","768","428","f","true","img/T_ambi40.png","三角","simultaneous",""
"","","","","","html-keyboard-response","370","867298","0.0-13.0-2.0-1.0-0.1-1.104","null","<span style='color:GreenYellow; font-size: 70px;'>正确! </span>","null","","","","","","","","","","","","","","","","","","","","","","","feedback_test"
"","","","","","psychophysics","371","869081","0.0-13.0-2.0-1.0-0.1-0.105","780","","f","","","","","","","","","","","","","key","f","16.66585849056609","768","428","j","false","img/T_ambi40.png","方形","simultaneous",""
"","","","","","html-keyboard-response","372","869393","0.0-13.0-2.0-1.0-0.1-1.105","null","<span style='color:red; font-size: 70px;'>错误! </span>","null","","","","","","","","","","","","","","","","","","","","","","","feedback_test"
"","","","","","psychophysics","373","871121","0.0-13.0-2.0-1.0-0.1-0.106","721","","j","","","","","","","","","","","","","key","j","16.66675728155318","768","428","j","true","img/T_ambi40.png","圆形","simultaneous",""
"","","","","","html-keyboard-response","374","871433","0.0-13.0-2.0-1.0-0.1-1.106","null","<span style='color:GreenYellow; font-size: 70px;'>正确! </span>","null","","","","","","","","","","","","","","","","","","","","","","","feedback_test"
"","","","","","psychophysics","375","873123","0.0-13.0-2.0-1.0-0.1-0.107","689","","f","","","","","","","","","","","","","key","f","16.663089108911556","768","428","j","false","img/S_ambi40.png","圆形","simultaneous",""
"","","","","","html-keyboard-response","376","873440","0.0-13.0-2.0-1.0-0.1-1.107","null","<span style='color:red; font-size: 70px;'>错误! </span>","null","","","","","","","","","","","","","","","","","","","","","","","feedback_test"
"","","","","","psychophysics","377","875086","0.0-13.0-2.0-1.0-0.1-0.108","635","","f","","","","","","","","","","","","","key","f","16.66588775510187","768","428","f","true","img/T_ambi40.png","三角","simultaneous",""
"","","","","","html-keyboard-response","378","875406","0.0-13.0-2.0-1.0-0.1-1.108","null","<span style='color:GreenYellow; font-size: 70px;'>正确! </span>","null","","","","","","","","","","","","","","","","","","","","","","","feedback_test"
"","","","","","psychophysics","379","877025","0.0-13.0-2.0-1.0-0.1-0.109","611","","f","","","","","","","","","","","","","key","f","16.66371875000065","768","428","f","true","img/T_ambi40.png","三角","simultaneous",""
"","","","","","html-keyboard-response","380","877337","0.0-13.0-2.0-1.0-0.1-1.109","null","<span style='color:GreenYellow; font-size: 70px;'>正确! </span>","null","","","","","","","","","","","","","","","","","","","","","","","feedback_test"
"","","","","","psychophysics","381","878925","0.0-13.0-2.0-1.0-0.1-0.110","577","","j","","","","","","","","","","","","","key","j","16.666117021276495","768","428","j","true","img/S_ambi40.png","圆形","simultaneous",""
"","","","","","html-keyboard-response","382","879237","0.0-13.0-2.0-1.0-0.1-1.110","null","<span style='color:GreenYellow; font-size: 70px;'>正确! </span>","null","","","","","","","","","","","","","","","","","","","","","","","feedback_test"
"","","","","","psychophysics","383","880879","0.0-13.0-2.0-1.0-0.1-0.111","629","","f","","","","","","","","","","","","","key","f","16.6660927835043","768","428","f","true","img/S_ambi40.png","方形","simultaneous",""
"","","","","","html-keyboard-response","384","881198","0.0-13.0-2.0-1.0-0.1-1.111","null","<span style='color:GreenYellow; font-size: 70px;'>正确! </span>","null","","","","","","","","","","","","","","","","","","","","","","","feedback_test"
"","","","","","psychophysics","385","882925","0.0-13.0-2.0-1.0-0.1-0.112","724","","j","","","","","","","","","","","","","key","j","16.667194174757473","768","428","j","true","img/S_ambi40.png","三角","simultaneous",""
"","","","","","html-keyboard-response","386","883235","0.0-13.0-2.0-1.0-0.1-1.112","null","<span style='color:GreenYellow; font-size: 70px;'>正确! </span>","null","","","","","","","","","","","","","","","","","","","","","","","feedback_test"
"","","","","","psychophysics","387","885162","0.0-13.0-2.0-1.0-0.1-0.113","918","","j","","","","","","","","","","","","","key","j","16.665754385965492","768","428","j","true","img/T_ambi40.png","圆形","simultaneous",""
"","","","","","html-keyboard-response","388","885478","0.0-13.0-2.0-1.0-0.1-1.113","null","<span style='color:GreenYellow; font-size: 70px;'>正确! </span>","null","","","","","","","","","","","","","","","","","","","","","","","feedback_test"
"","","","","","psychophysics","389","887063","0.0-13.0-2.0-1.0-0.1-0.114","579","","f","","","","","","","","","","","","","key","f","16.666436170212965","768","428","f","true","img/S_ambi40.png","方形","simultaneous",""
"","","","","","html-keyboard-response","390","887373","0.0-13.0-2.0-1.0-0.1-1.114","null","<span style='color:GreenYellow; font-size: 70px;'>正确! </span>","null","","","","","","","","","","","","","","","","","","","","","","","feedback_test"
"","","","","","psychophysics","391","888945","0.0-13.0-2.0-1.0-0.1-0.115","563","","f","","","","","","","","","","","","","key","f","16.667182795699656","768","428","f","true","img/C_ambi40.png","圆形","simultaneous",""
"","","","","","html-keyboard-response","392","889258","0.0-13.0-2.0-1.0-0.1-1.115","null","<span style='color:GreenYellow; font-size: 70px;'>正确! </span>","null","","","","","","","","","","","","","","","","","","","","","","","feedback_test"
"","","","","","psychophysics","393","891055","0.0-13.0-2.0-1.0-0.1-0.116","788","","j","","","","","","","","","","","","","key","j","16.663429906541726","768","428","j","true","img/T_ambi40.png","方形","simultaneous",""
"","","","","","html-keyboard-response","394","891366","0.0-13.0-2.0-1.0-0.1-1.116","null","<span style='color:GreenYellow; font-size: 70px;'>正确! </span>","null","","","","","","","","","","","","","","","","","","","","","","","feedback_test"
"","","","","","psychophysics","395","892978","0.0-13.0-2.0-1.0-0.1-0.117","610","","f","","","","","","","","","","","","","key","f","16.528484210526376","768","428","f","true","img/C_ambi40.png","圆形","simultaneous",""
"","","","","","html-keyboard-response","396","893282","0.0-13.0-2.0-1.0-0.1-1.117","null","<span style='color:GreenYellow; font-size: 70px;'>正确! </span>","null","","","","","","","","","","","","","","","","","","","","","","","feedback_test"
"","","","","","psychophysics","397","894975","0.0-13.0-2.0-1.0-0.1-0.118","692","","j","","","","","","","","","","","","","key","j","16.666168316832216","768","428","j","true","img/C_ambi40.png","三角","simultaneous",""
"","","","","","html-keyboard-response","398","895294","0.0-13.0-2.0-1.0-0.1-1.118","null","<span style='color:GreenYellow; font-size: 70px;'>正确! </span>","null","","","","","","","","","","","","","","","","","","","","","","","feedback_test"
"","","","","","psychophysics","399","897023","0.0-13.0-2.0-1.0-0.1-0.119","723","","j","","","","","","","","","","","","","key","j","16.667271844660682","768","428","j","true","img/C_ambi40.png","方形","simultaneous",""
"","","","","","html-keyboard-response","400","897330","0.0-13.0-2.0-1.0-0.1-1.119","null","<span style='color:GreenYellow; font-size: 70px;'>正确! </span>","null","","","","","","","","","","","","","","","","","","","","","","","feedback_test"
"","","","","","html-keyboard-response","401","902707","0.0-13.0-2.0-1.0-1.1","5375","<style>.context{color:white; font-size: 35px; line-height:40px}</style>                            <div><p class='context'>您正确回答了95% 的试次。</p><p class='context'>您的平均反应时为654毫秒。</p><p class='context'>请按任意键进入休息</p></div>","j","","","","","","","","","","","","","","","","","","","","","","",""
"","","","","","html-button-response","402","963386","0.0-13.0-2.0-1.0-2.1","60674","
                    <p>您当前还剩余2组实验</p>
                    <p>现在是休息时间，当您结束休息后，您可以点击 结束休息 按钮 继续</p>
                    <p>建议休息时间还剩余<span id=""iii"">60</span>秒</p>","0","","","","","","","","","","","","","","","","","","","","","","",""
"","","","","","psychophysics","403","965471","0.0-13.0-2.0-1.0-0.2-0.120","1074","","j","","","","","","","","","","","","","key","j","16.666798387097398","768","428","j","true","img/S_ambi40.png","圆形","simultaneous",""
"","","","","","html-keyboard-response","404","965783","0.0-13.0-2.0-1.0-0.2-1.120","null","<span style='color:GreenYellow; font-size: 70px;'>正确! </span>","null","","","","","","","","","","","","","","","","","","","","","","","feedback_test"
"","","","","","psychophysics","405","967522","0.0-13.0-2.0-1.0-0.2-0.121","737","","j","","","","","","","","","","","","","key","j","16.665359223301035","768","428","j","true","img/T_ambi40.png","方形","simultaneous",""
"","","","","","html-keyboard-response","406","967835","0.0-13.0-2.0-1.0-0.2-1.121","null","<span style='color:GreenYellow; font-size: 70px;'>正确! </span>","null","","","","","","","","","","","","","","","","","","","","","","","feedback_test"
"","","","","","psychophysics","407","969402","0.0-13.0-2.0-1.0-0.2-0.122","558","","f","","","","","","","","","","","","","key","f","16.664924731182676","768","428","f","true","img/C_ambi40.png","圆形","simultaneous",""
"","","","","","html-keyboard-response","408","969716","0.0-13.0-2.0-1.0-0.2-1.122","null","<span style='color:GreenYellow; font-size: 70px;'>正确! </span>","null","","","","","","","","","","","","","","","","","","","","","","","feedback_test"
"","","","","","psychophysics","409","971430","0.0-13.0-2.0-1.0-0.2-0.123","704","","f","","","","","","","","","","","","","key","f","16.666702970297603","768","428","f","true","img/C_ambi40.png","圆形","simultaneous",""
"","","","","","html-keyboard-response","410","971740","0.0-13.0-2.0-1.0-0.2-1.123","null","<span style='color:GreenYellow; font-size: 70px;'>正确! </span>","null","","","","","","","","","","","","","","","","","","","","","","","feedback_test"
"","","","","","psychophysics","411","973310","0.0-13.0-2.0-1.0-0.2-0.124","561","","f","","","","","","","","","","","","","key","f","16.662709677419176","768","428","f","true","img/T_ambi40.png","三角","simultaneous",""
"","","","","","html-keyboard-response","412","973620","0.0-13.0-2.0-1.0-0.2-1.124","null","<span style='color:GreenYellow; font-size: 70px;'>正确! </span>","null","","","","","","","","","","","","","","","","","","","","","","","feedback_test"
"","","","","","psychophysics","413","975254","0.0-13.0-2.0-1.0-0.2-0.125","621","","j","","","","","","","","","","","","","key","j","16.664443298969083","768","428","j","true","img/T_ambi40.png","圆形","simultaneous",""
"","","","","","html-keyboard-response","414","975570","0.0-13.0-2.0-1.0-0.2-1.125","null","<span style='color:GreenYellow; font-size: 70px;'>正确! </span>","null","","","","","","","","","","","","","","","","","","","","","","","feedback_test"
"","","","","","psychophysics","415","977254","0.0-13.0-2.0-1.0-0.2-0.126","672","","j","","","","","","","","","","","","","key","j","16.665620000000345","768","428","j","true","img/S_ambi40.png","三角","simultaneous",""
"","","","","","html-keyboard-response","416","977563","0.0-13.0-2.0-1.0-0.2-1.126","null","<span style='color:GreenYellow; font-size: 70px;'>正确! </span>","null","","","","","","","","","","","","","","","","","","","","","","","feedback_test"
"","","","","","psychophysics","417","979202","0.0-13.0-2.0-1.0-0.2-0.127","636","","f","","","","","","","","","","","","","key","f","16.66647959183735","768","428","f","true","img/S_ambi40.png","方形","simultaneous",""
"","","","","","html-keyboard-response","418","979511","0.0-13.0-2.0-1.0-0.2-1.127","null","<span style='color:GreenYellow; font-size: 70px;'>正确! </span>","null","","","","","","","","","","","","","","","","","","","","","","","feedback_test"
"","","","","","psychophysics","419","981028","0.0-13.0-2.0-1.0-0.2-0.128","512","","f","","","","","","","","","","","","","key","f","16.666277777777417","768","428","f","true","img/T_ambi40.png","三角","simultaneous",""
"","","","","","html-keyboard-response","420","981332","0.0-13.0-2.0-1.0-0.2-1.128","null","<span style='color:GreenYellow; font-size: 70px;'>正确! </span>","null","","","","","","","","","","","","","","","","","","","","","","","feedback_test"
"","","","","","psychophysics","421","982985","0.0-13.0-2.0-1.0-0.2-0.129","652","","j","","","","","","","","","","","","","key","j","16.66722448979628","768","428","j","true","img/C_ambi40.png","方形","simultaneous",""
"","","","","","html-keyboard-response","422","983301","0.0-13.0-2.0-1.0-0.2-1.129","null","<span style='color:GreenYellow; font-size: 70px;'>正确! </span>","null","","","","","","","","","","","","","","","","","","","","","","","feedback_test"
"","","","","","psychophysics","423","984940","0.0-13.0-2.0-1.0-0.2-0.130","625","","j","","","","","","","","","","","","","key","j","16.66613402061846","768","428","j","true","img/C_ambi40.png","三角","simultaneous",""
"","","","","","html-keyboard-response","424","985245","0.0-13.0-2.0-1.0-0.2-1.130","null","<span style='color:GreenYellow; font-size: 70px;'>正确! </span>","null","","","","","","","","","","","","","","","","","","","","","","","feedback_test"
"","","","","","psychophysics","425","986831","0.0-13.0-2.0-1.0-0.2-0.131","583","","f","","","","","","","","","","","","","key","f","16.663851063829807","768","428","f","true","img/S_ambi40.png","方形","simultaneous",""
"","","","","","html-keyboard-response","426","987152","0.0-13.0-2.0-1.0-0.2-1.131","null","<span style='color:GreenYellow; font-size: 70px;'>正确! </span>","null","","","","","","","","","","","","","","","","","","","","","","","feedback_test"
"","","","","","psychophysics","427","988840","0.0-13.0-2.0-1.0-0.2-0.132","676","","j","","","","","","","","","","","","","key","j","16.666209999999264","768","428","j","true","img/S_ambi40.png","三角","simultaneous",""
"","","","","","html-keyboard-response","428","989154","0.0-13.0-2.0-1.0-0.2-1.132","null","<span style='color:GreenYellow; font-size: 70px;'>正确! </span>","null","","","","","","","","","","","","","","","","","","","","","","","feedback_test"
"","","","","","psychophysics","429","990896","0.0-13.0-2.0-1.0-0.2-0.133","731","","j","","","","","","","","","","","","","key","j","16.663330097087133","768","428","j","true","img/T_ambi40.png","方形","simultaneous",""
"","","","","","html-keyboard-response","430","991213","0.0-13.0-2.0-1.0-0.2-1.133","null","<span style='color:GreenYellow; font-size: 70px;'>正确! </span>","null","","","","","","","","","","","","","","","","","","","","","","","feedback_test"
"","","","","","psychophysics","431","993146","0.0-13.0-2.0-1.0-0.2-0.134","930","","j","","","","","","","","","","","","","key","j","16.664313043477822","768","428","j","true","img/T_ambi40.png","圆形","simultaneous",""
