"success","timeout","failed_images","failed_audio","failed_video","trial_type","trial_index","time_elapsed","internal_node_id","rt","stimulus","response","value","item_width_mm","item_height_mm","item_width_px","px2mm","view_dist_mm","item_width_deg","px2deg","scale_factor","win_width_deg","win_height_deg","view_history","response_type","key_press","avg_frame_time","center_x","center_y","correct_response","correct","Image","word","condition","screen_id"
"true","false","[]","[]","[]","preload","0","482","0.0-0.0","","","","","","","","","","","","","","","","","","","","","","","","","",""
"","","","","","html-keyboard-response","1","4191","0.0-1.0","3709","
   <p>您好，欢迎参加本次实验。</p>
   <p>为充分保障您的权利，请确保您已经知晓并同意《参与实验同意书》以及《数据公开知情同意书》。</p>
   <p>如果您未见过上述内容，请咨询实验员。</p>
   <p>如果您选择继续实验，则表示您已经清楚两份知情同意书的内容并同意。</p>
   <p> <div style = ""color: green""><按任意键至下页></div> </p>
   "," ","","","","","","","","","","","","","","","","","","","","","","",""
"","","","","","html-keyboard-response","2","5086","0.0-2.0","894","
   <p>本实验首先需要您填写一些基本个人信息。</p>
   <p> <div style = ""color: green""><按任意键至下页></div></p>
   "," ","","","","","","","","","","","","","","","","","","","","","","",""
"","","","","","call-function","3","5087","0.0-3.0-0.0","","","","","","","","","","","","","","","","","","","","","","","","","",""
"","","","","","survey-html-form","4","8815","0.0-3.0-1.0","3726","","{""Q0"":""8""}","","","","","","","","","","","","","","","","","","","","","","",""
"","","","","","html-button-response","5","9878","0.0-3.0-2.0","1061","<p style = 'color : white'>您的性别</p>","0","","","","","","","","","","","","","","","","","","","","","","",""
"","","","","","survey-html-form","6","13454","0.0-3.0-3.0","3575","","{""Q0"":""2000""}","","","","","","","","","","","","","","","","","","","","","","",""
"","","","","","survey-html-form","7","15800","0.0-3.0-4.0","2345","","{""Q0"":""5""}","","","","","","","","","","","","","","","","","","","","","","",""
"","","","","","virtual-chinrest","8","345511","0.0-4.0","329708","","","","85.6","53.98","343.7684811793824","4.013833104273235","712.49","6.875369623587648","49.99999999999999","1.0413985562951928","29.800000000000004","15.080000000000002","","","","","","","","","","","",""
"true","","","","","fullscreen","9","350427","0.0-5.0","","","","","","","","","","","","","","","","","","","","","","","","","",""
"","","","","","instructions","10","466987","0.0-6.0","116558","","","","","","","","","","","","","","[{""page_index"":0,""viewing_time"":3214},{""page_index"":1,""viewing_time"":85588},{""page_index"":2,""viewing_time"":23890},{""page_index"":3,""viewing_time"":3866}]","","","","","","","","","","",""
"","","","","","psychophysics","11","469654","0.0-7.0-0.0-0.0","null","","null","","","","","","","","","","","","","key","null","16.685240506329","853.3333333333334","476","j","false","img/C_ambi40.png","三角","prac_image_first",""
"","","","","","html-keyboard-response","12","469977","0.0-7.0-0.0-1.0","null","<span class='add_' style='color:yellow; font-size: 70px;'> 太慢! </span>","null","","","","","","","","","","","","","","","","","","","","","","","feedback_test"
"","","","","","psychophysics","13","472636","0.0-7.0-0.0-0.1","null","","null","","","","","","","","","","","","","key","null","16.685303797468297","853.3333333333334","476","j","false","img/T_ambi40.png","方形","prac_image_first",""
"","","","","","html-keyboard-response","14","472955","0.0-7.0-0.0-1.1","null","<span class='add_' style='color:yellow; font-size: 70px;'> 太慢! </span>","null","","","","","","","","","","","","","","","","","","","","","","","feedback_test"
"","","","","","psychophysics","15","475609","0.0-7.0-0.0-0.2","null","","null","","","","","","","","","","","","","key","null","16.685702531645664","853.3333333333334","476","f","false","img/S_ambi40.png","方形","prac_image_first",""
"","","","","","html-keyboard-response","16","475930","0.0-7.0-0.0-1.2","null","<span class='add_' style='color:yellow; font-size: 70px;'> 太慢! </span>","null","","","","","","","","","","","","","","","","","","","","","","","feedback_test"
"","","","","","psychophysics","17","477336","0.0-7.0-0.0-0.3","252","","j","","","","","","","","","","","","","key","j","16.685265060241406","853.3333333333334","476","f","false","img/T_ambi40.png","三角","prac_image_first",""
"","","","","","html-keyboard-response","18","477650","0.0-7.0-0.0-1.3","null","<span style='color:red; font-size: 70px;'>错误! </span>","null","","","","","","","","","","","","","","","","","","","","","","","feedback_test"
"","","","","","psychophysics","19","479174","0.0-7.0-0.0-0.4","370","","f","","","","","","","","","","","","","key","f","16.68537777777787","853.3333333333334","476","j","false","img/S_ambi40.png","圆形","prac_image_first",""
"","","","","","html-keyboard-response","20","479479","0.0-7.0-0.0-1.4","null","<span style='color:red; font-size: 70px;'>错误! </span>","null","","","","","","","","","","","","","","","","","","","","","","","feedback_test"
"","","","","","psychophysics","21","481049","0.0-7.0-0.0-0.5","417","","j","","","","","","","","","","","","","key","j","16.687150537634707","853.3333333333334","476","f","false","img/C_ambi40.png","圆形","prac_image_first",""
"","","","","","html-keyboard-response","22","481370","0.0-7.0-0.0-1.5","null","<span style='color:red; font-size: 70px;'>错误! </span>","null","","","","","","","","","","","","","","","","","","","","","","","feedback_test"
"","","","","","psychophysics","23","483275","0.0-7.0-0.0-0.6","751","","j","","","","","","","","","","","","","key","j","16.68451327433659","853.3333333333334","476","j","true","img/C_ambi40.png","方形","prac_image_first",""
"","","","","","html-keyboard-response","24","483582","0.0-7.0-0.0-1.6","null","<span style='color:GreenYellow; font-size: 70px;'>正确! </span>","null","","","","","","","","","","","","","","","","","","","","","","","feedback_test"
"","","","","","psychophysics","25","485300","0.0-7.0-0.0-0.7","566","","f","","","","","","","","","","","","","key","f","16.684564356435676","853.3333333333334","476","f","true","img/S_ambi40.png","方形","prac_image_first",""
"","","","","","html-keyboard-response","26","485614","0.0-7.0-0.0-1.7","null","<span style='color:GreenYellow; font-size: 70px;'>正确! </span>","null","","","","","","","","","","","","","","","","","","","","","","","feedback_test"
"","","","","","psychophysics","27","487312","0.0-7.0-0.0-0.8","534","","j","","","","","","","","","","","","","key","j","16.684811881187805","853.3333333333334","476","f","false","img/T_ambi40.png","三角","prac_image_first",""
"","","","","","html-keyboard-response","28","487627","0.0-7.0-0.0-1.8","null","<span style='color:red; font-size: 70px;'>错误! </span>","null","","","","","","","","","","","","","","","","","","","","","","","feedback_test"
"","","","","","psychophysics","29","489238","0.0-7.0-0.0-0.9","457","","j","","","","","","","","","","","","","key","j","16.68428421052614","853.3333333333334","476","f","false","img/C_ambi40.png","圆形","prac_image_first",""
"","","","","","html-keyboard-response","30","489560","0.0-7.0-0.0-1.9","null","<span style='color:red; font-size: 70px;'>错误! </span>","null","","","","","","","","","","","","","","","","","","","","","","","feedback_test"
"","","","","","psychophysics","31","491602","0.0-7.0-0.0-0.10","886","","j","","","","","","","","","","","","","key","j","16.685041322314166","853.3333333333334","476","j","true","img/S_ambi40.png","三角","prac_image_first",""
"","","","","","html-keyboard-response","32","491916","0.0-7.0-0.0-1.10","null","<span style='color:GreenYellow; font-size: 70px;'>正确! </span>","null","","","","","","","","","","","","","","","","","","","","","","","feedback_test"
"","","","","","psychophysics","33","494041","0.0-7.0-0.0-0.11","965","","j","","","","","","","","","","","","","key","j","16.68567460317475","853.3333333333334","476","j","true","img/T_ambi40.png","圆形","prac_image_first",""
"","","","","","html-keyboard-response","34","494358","0.0-7.0-0.0-1.11","null","<span style='color:GreenYellow; font-size: 70px;'>正确! </span>","null","","","","","","","","","","","","","","","","","","","","","","","feedback_test"
"","","","","","psychophysics","35","496143","0.0-7.0-0.0-0.12","631","","f","","","","","","","","","","","","","key","f","16.686943396226336","853.3333333333334","476","f","true","img/S_ambi40.png","方形","prac_image_first",""
"","","","","","html-keyboard-response","36","496465","0.0-7.0-0.0-1.12","null","<span style='color:GreenYellow; font-size: 70px;'>正确! </span>","null","","","","","","","","","","","","","","","","","","","","","","","feedback_test"
"","","","","","psychophysics","37","498581","0.0-7.0-0.0-0.13","964","","j","","","","","","","","","","","","","key","j","16.684928000000305","853.3333333333334","476","j","true","img/S_ambi40.png","圆形","prac_image_first",""
"","","","","","html-keyboard-response","38","498896","0.0-7.0-0.0-1.13","null","<span style='color:GreenYellow; font-size: 70px;'>正确! </span>","null","","","","","","","","","","","","","","","","","","","","","","","feedback_test"
"","","","","","psychophysics","39","501189","0.0-7.0-0.0-0.14","1139","","j","","","","","","","","","","","","","key","j","16.68580147058845","853.3333333333334","476","j","true","img/C_ambi40.png","方形","prac_image_first",""
"","","","","","html-keyboard-response","40","501502","0.0-7.0-0.0-1.14","null","<span style='color:GreenYellow; font-size: 70px;'>正确! </span>","null","","","","","","","","","","","","","","","","","","","","","","","feedback_test"
"","","","","","psychophysics","41","503701","0.0-7.0-0.0-0.15","1045","","f","","","","","","","","","","","","","key","f","16.685546153846484","853.3333333333334","476","f","true","img/C_ambi40.png","圆形","prac_image_first",""
"","","","","","html-keyboard-response","42","504018","0.0-7.0-0.0-1.15","null","<span style='color:GreenYellow; font-size: 70px;'>正确! </span>","null","","","","","","","","","","","","","","","","","","","","","","","feedback_test"
"","","","","","psychophysics","43","506034","0.0-7.0-0.0-0.16","862","","j","","","","","","","","","","","","","key","j","16.685283333333793","853.3333333333334","476","j","true","img/T_ambi40.png","圆形","prac_image_first",""
"","","","","","html-keyboard-response","44","506344","0.0-7.0-0.0-1.16","null","<span style='color:GreenYellow; font-size: 70px;'>正确! </span>","null","","","","","","","","","","","","","","","","","","","","","","","feedback_test"
"","","","","","psychophysics","45","508266","0.0-7.0-0.0-0.17","768","","f","","","","","","","","","","","","","key","f","16.684394736841664","853.3333333333334","476","f","true","img/T_ambi40.png","三角","prac_image_first",""
"","","","","","html-keyboard-response","46","508572","0.0-7.0-0.0-1.17","null","<span style='color:GreenYellow; font-size: 70px;'>正确! </span>","null","","","","","","","","","","","","","","","","","","","","","","","feedback_test"
"","","","","","psychophysics","47","510485","0.0-7.0-0.0-0.18","756","","j","","","","","","","","","","","","","key","j","16.685456140350812","853.3333333333334","476","j","true","img/S_ambi40.png","三角","prac_image_first",""
"","","","","","html-keyboard-response","48","510788","0.0-7.0-0.0-1.18","null","<span style='color:GreenYellow; font-size: 70px;'>正确! </span>","null","","","","","","","","","","","","","","","","","","","","","","","feedback_test"
"","","","","","psychophysics","49","512906","0.0-7.0-0.0-0.19","965","","j","","","","","","","","","","","","","key","j","16.684992063491666","853.3333333333334","476","j","true","img/T_ambi40.png","方形","prac_image_first",""
"","","","","","html-keyboard-response","50","513225","0.0-7.0-0.0-1.19","null","<span style='color:GreenYellow; font-size: 70px;'>正确! </span>","null","","","","","","","","","","","","","","","","","","","","","","","feedback_test"
"","","","","","psychophysics","51","515298","0.0-7.0-0.0-0.20","918","","f","","","","","","","","","","","","","key","f","16.68493495934938","853.3333333333334","476","f","true","img/C_ambi40.png","圆形","prac_image_first",""
"","","","","","html-keyboard-response","52","515614","0.0-7.0-0.0-1.20","null","<span style='color:GreenYellow; font-size: 70px;'>正确! </span>","null","","","","","","","","","","","","","","","","","","","","","","","feedback_test"
"","","","","","psychophysics","53","518269","0.0-7.0-0.0-0.21","null","","null","","","","","","","","","","","","","key","null","17.57520666666678","853.3333333333334","476","f","false","img/T_ambi40.png","三角","prac_image_first",""
"","","","","","html-keyboard-response","54","518578","0.0-7.0-0.0-1.21","null","<span class='add_' style='color:yellow; font-size: 70px;'> 太慢! </span>","null","","","","","","","","","","","","","","","","","","","","","","","feedback_test"
"","","","","","psychophysics","55","521236","0.0-7.0-0.0-0.22","null","","null","","","","","","","","","","","","","key","null","16.685196202531635","853.3333333333334","476","f","false","img/S_ambi40.png","方形","prac_image_first",""
"","","","","","html-keyboard-response","56","521549","0.0-7.0-0.0-1.22","null","<span class='add_' style='color:yellow; font-size: 70px;'> 太慢! </span>","null","","","","","","","","","","","","","","","","","","","","","","","feedback_test"
"","","","","","psychophysics","57","524206","0.0-7.0-0.0-0.23","null","","null","","","","","","","","","","","","","key","null","16.79145859872624","853.3333333333334","476","j","false","img/C_ambi40.png","三角","prac_image_first",""
"","","","","","html-keyboard-response","58","524511","0.0-7.0-0.0-1.23","null","<span class='add_' style='color:yellow; font-size: 70px;'> 太慢! </span>","null","","","","","","","","","","","","","","","","","","","","","","","feedback_test"
"","","","","","html-keyboard-response","59","549541","0.0-7.0-1.0-0.0","25025","<style>.context{color:white; font-size: 35px; line-height:40px}</style>                            <div><p class='context'>您正确回答了54% 的试次。</p><p class='context'>您的平均反应时为863毫秒。</p>","enter","","","","","","","","","","","","","","","","","","","","","","",""
"","","","","","instructions","60","565515","0.0-7.0-1.0-1.0","15969","","","","","","","","","","","","","","[{""page_index"":0,""viewing_time"":6950},{""page_index"":1,""viewing_time"":6510},{""page_index"":2,""viewing_time"":2508}]","","","","","","","","","","",""
"","","","","","psychophysics","61","568173","0.0-7.1-0.1-0.24","null","","null","","","","","","","","","","","","","key","null","16.68399999999954","960","536","j","false","img/T_ambi40.png","圆形","prac_image_first",""
"","","","","","html-keyboard-response","62","568482","0.0-7.1-0.1-1.24","null","<span class='add_' style='color:yellow; font-size: 70px;'> 太慢! </span>","null","","","","","","","","","","","","","","","","","","","","","","","feedback_test"
"","","","","","psychophysics","63","570364","0.0-7.1-0.1-0.25","731","","f","","","","","","","","","","","","","key","f","16.684531531531597","960","536","j","false","img/C_ambi40.png","三角","prac_image_first",""
"","","","","","html-keyboard-response","64","570681","0.0-7.1-0.1-1.25","null","<span style='color:red; font-size: 70px;'>错误! </span>","null","","","","","","","","","","","","","","","","","","","","","","","feedback_test"
"","","","","","psychophysics","65","572488","0.0-7.1-0.1-0.26","654","","f","","","","","","","","","","","","","key","f","16.685934579439426","960","536","f","true","img/C_ambi40.png","圆形","prac_image_first",""
"","","","","","html-keyboard-response","66","572801","0.0-7.1-0.1-1.26","null","<span style='color:GreenYellow; font-size: 70px;'>正确! </span>","null","","","","","","","","","","","","","","","","","","","","","","","feedback_test"
"","","","","","psychophysics","67","574748","0.0-7.1-0.1-0.27","795","","f","","","","","","","","","","","","","key","f","16.685695652173752","960","536","f","true","img/S_ambi40.png","方形","prac_image_first",""
"","","","","","html-keyboard-response","68","575065","0.0-7.1-0.1-1.27","null","<span style='color:GreenYellow; font-size: 70px;'>正确! </span>","null","","","","","","","","","","","","","","","","","","","","","","","feedback_test"
"","","","","","psychophysics","69","577726","0.0-7.1-0.1-0.28","null","","null","","","","","","","","","","","","","key","null","16.60051265822744","960","536","j","false","img/C_ambi40.png","方形","prac_image_first",""
"","","","","","html-keyboard-response","70","578034","0.0-7.1-0.1-1.28","null","<span class='add_' style='color:yellow; font-size: 70px;'> 太慢! </span>","null","","","","","","","","","","","","","","","","","","","","","","","feedback_test"
"","","","","","psychophysics","71","579786","0.0-7.1-0.1-0.29","598","","f","","","","","","","","","","","","","key","f","16.68541346153898","960","536","f","true","img/T_ambi40.png","三角","prac_image_first",""
"","","","","","html-keyboard-response","72","580092","0.0-7.1-0.1-1.29","null","<span style='color:GreenYellow; font-size: 70px;'>正确! </span>","null","","","","","","","","","","","","","","","","","","","","","","","feedback_test"
"","","","","","psychophysics","73","582745","0.0-7.1-0.1-0.30","null","","null","","","","","","","","","","","","","key","null","16.684537974683586","960","536","j","false","img/S_ambi40.png","三角","prac_image_first",""
"","","","","","html-keyboard-response","74","583064","0.0-7.1-0.1-1.30","null","<span class='add_' style='color:yellow; font-size: 70px;'> 太慢! </span>","null","","","","","","","","","","","","","","","","","","","","","","","feedback_test"
"","","","","","psychophysics","75","585718","0.0-7.1-0.1-0.31","null","","null","","","","","","","","","","","","","key","null","16.684968354430968","960","536","j","false","img/T_ambi40.png","方形","prac_image_first",""
"","","","","","html-keyboard-response","76","586033","0.0-7.1-0.1-1.31","null","<span class='add_' style='color:yellow; font-size: 70px;'> 太慢! </span>","null","","","","","","","","","","","","","","","","","","","","","","","feedback_test"
"","","","","","psychophysics","77","587785","0.0-7.1-0.1-0.32","600","","f","","","","","","","","","","","","","key","f","16.685307692307667","960","536","f","true","img/S_ambi40.png","方形","prac_image_first",""
"","","","","","html-keyboard-response","78","588095","0.0-7.1-0.1-1.32","null","<span style='color:GreenYellow; font-size: 70px;'>正确! </span>","null","","","","","","","","","","","","","","","","","","","","","","","feedback_test"
"","","","","","psychophysics","79","589924","0.0-7.1-0.1-0.33","674","","f","","","","","","","","","","","","","key","f","16.685908256881493","960","536","f","true","img/T_ambi40.png","三角","prac_image_first",""
"","","","","","html-keyboard-response","80","590232","0.0-7.1-0.1-1.33","null","<span style='color:GreenYellow; font-size: 70px;'>正确! </span>","null","","","","","","","","","","","","","","","","","","","","","","","feedback_test"
"","","","","","psychophysics","81","592314","0.0-7.1-0.1-0.34","929","","j","","","","","","","","","","","","","key","j","16.578658536584797","960","536","j","true","img/S_ambi40.png","圆形","prac_image_first",""
"","","","","","html-keyboard-response","82","592628","0.0-7.1-0.1-1.34","null","<span style='color:GreenYellow; font-size: 70px;'>正确! </span>","null","","","","","","","","","","","","","","","","","","","","","","","feedback_test"
"","","","","","psychophysics","83","594598","0.0-7.1-0.1-0.35","818","","f","","","","","","","","","","","","","key","f","16.685982905982986","960","536","f","true","img/C_ambi40.png","圆形","prac_image_first",""
"","","","","","html-keyboard-response","84","594907","0.0-7.1-0.1-1.35","null","<span style='color:GreenYellow; font-size: 70px;'>正确! </span>","null","","","","","","","","","","","","","","","","","","","","","","","feedback_test"
"","","","","","psychophysics","85","596686","0.0-7.1-0.1-0.36","622","","f","","","","","","","","","","","","","key","f","16.68604761904793","960","536","f","true","img/T_ambi40.png","三角","prac_image_first",""
"","","","","","html-keyboard-response","86","596998","0.0-7.1-0.1-1.36","null","<span style='color:GreenYellow; font-size: 70px;'>正确! </span>","null","","","","","","","","","","","","","","","","","","","","","","","feedback_test"
"","","","","","psychophysics","87","599208","0.0-7.1-0.1-0.37","1059","","f","","","","","","","","","","","","","key","f","16.686076335877335","960","536","f","true","img/S_ambi40.png","方形","prac_image_first",""
"","","","","","html-keyboard-response","88","599521","0.0-7.1-0.1-1.37","null","<span style='color:GreenYellow; font-size: 70px;'>正确! </span>","null","","","","","","","","","","","","","","","","","","","","","","","feedback_test"
"","","","","","psychophysics","89","601273","0.0-7.1-0.1-0.38","597","","j","","","","","","","","","","","","","key","j","16.68606730769254","960","536","j","true","img/S_ambi40.png","圆形","prac_image_first",""
"","","","","","html-keyboard-response","90","601601","0.0-7.1-0.1-1.38","null","<span style='color:GreenYellow; font-size: 70px;'>正确! </span>","null","","","","","","","","","","","","","","","","","","","","","","","feedback_test"
"","","","","","psychophysics","91","603463","0.0-7.1-0.1-0.39","709","","f","","","","","","","","","","","","","key","f","16.68457272727233","960","536","f","true","img/T_ambi40.png","三角","prac_image_first",""
"","","","","","html-keyboard-response","92","603780","0.0-7.1-0.1-1.39","null","<span style='color:GreenYellow; font-size: 70px;'>正确! </span>","null","","","","","","","","","","","","","","","","","","","","","","","feedback_test"
"","","","","","psychophysics","93","605513","0.0-7.1-0.1-0.40","580","","j","","","","","","","","","","","","","key","j","16.686330097087758","960","536","j","true","img/T_ambi40.png","圆形","prac_image_first",""
"","","","","","html-keyboard-response","94","605824","0.0-7.1-0.1-1.40","null","<span style='color:GreenYellow; font-size: 70px;'>正确! </span>","null","","","","","","","","","","","","","","","","","","","","","","","feedback_test"
"","","","","","psychophysics","95","607755","0.0-7.1-0.1-0.41","773","","f","","","","","","","","","","","","","key","f","16.685208695652165","960","536","f","true","img/C_ambi40.png","圆形","prac_image_first",""
"","","","","","html-keyboard-response","96","608071","0.0-7.1-0.1-1.41","null","<span style='color:GreenYellow; font-size: 70px;'>正确! </span>","null","","","","","","","","","","","","","","","","","","","","","","","feedback_test"
"","","","","","psychophysics","97","609816","0.0-7.1-0.1-0.42","592","","j","","","","","","","","","","","","","key","j","16.685436893204788","960","536","f","false","img/S_ambi40.png","方形","prac_image_first",""
"","","","","","html-keyboard-response","98","610133","0.0-7.1-0.1-1.42","null","<span style='color:red; font-size: 70px;'>错误! </span>","null","","","","","","","","","","","","","","","","","","","","","","","feedback_test"
"","","","","","psychophysics","99","611937","0.0-7.1-0.1-0.43","647","","j","","","","","","","","","","","","","key","j","16.68592523364459","960","536","j","true","img/C_ambi40.png","方形","prac_image_first",""
"","","","","","html-keyboard-response","100","612250","0.0-7.1-0.1-1.43","null","<span style='color:GreenYellow; font-size: 70px;'>正确! </span>","null","","","","","","","","","","","","","","","","","","","","","","","feedback_test"
"","","","","","psychophysics","101","614210","0.0-7.1-0.1-0.44","802","","f","","","","","","","","","","","","","key","f","16.684327586206752","960","536","j","false","img/C_ambi40.png","三角","prac_image_first",""
"","","","","","html-keyboard-response","102","614529","0.0-7.1-0.1-1.44","null","<span style='color:red; font-size: 70px;'>错误! </span>","null","","","","","","","","","","","","","","","","","","","","","","","feedback_test"
"","","","","","psychophysics","103","616641","0.0-7.1-0.1-0.45","960","","j","","","","","","","","","","","","","key","j","16.687055999999867","960","536","j","true","img/T_ambi40.png","方形","prac_image_first",""
"","","","","","html-keyboard-response","104","616951","0.0-7.1-0.1-1.45","null","<span style='color:GreenYellow; font-size: 70px;'>正确! </span>","null","","","","","","","","","","","","","","","","","","","","","","","feedback_test"
"","","","","","psychophysics","105","618919","0.0-7.1-0.1-0.46","815","","j","","","","","","","","","","","","","key","j","16.684637931034025","960","536","j","true","img/S_ambi40.png","三角","prac_image_first",""
"","","","","","html-keyboard-response","106","619241","0.0-7.1-0.1-1.46","null","<span style='color:GreenYellow; font-size: 70px;'>正确! </span>","null","","","","","","","","","","","","","","","","","","","","","","","feedback_test"
"","","","","","psychophysics","107","621093","0.0-7.1-0.1-0.47","697","","f","","","","","","","","","","","","","key","f","16.68458181818185","960","536","f","true","img/C_ambi40.png","圆形","prac_image_first",""
"","","","","","html-keyboard-response","108","621406","0.0-7.1-0.1-1.47","null","<span style='color:GreenYellow; font-size: 70px;'>正确! </span>","null","","","","","","","","","","","","","","","","","","","","","","","feedback_test"
"","","","","","html-keyboard-response","109","626017","0.0-8.0","4608","<style>.context{color:white; font-size: 35px; line-height:40px}</style>                            <div><p class='context'>您正确回答了71% 的试次。</p><p class='context'>您的平均反应时为737毫秒。</p><p class='context'>恭喜您完成这一阶段的练习。按任意键进入<span style='color: yellow;'>先文字后图形条件</span>的练习。</p></div>","enter","","","","","","","","","","","","","","","","","","","","","","",""
"","","","","","psychophysics","110","628398","0.0-9.0-0.0-0.0","1221","","j","","","","","","","","","","","","","key","j","16.68710563380294","960","536","f","false","img/T_ambi40.png","三角","prac_word_first",""
"","","","","","html-keyboard-response","111","628716","0.0-9.0-0.0-1.0","null","<span style='color:red; font-size: 70px;'>错误! </span>","null","","","","","","","","","","","","","","","","","","","","","","","feedback_test"
"","","","","","psychophysics","112","630551","0.0-9.0-0.0-0.1","683","","f","","","","","","","","","","","","","key","f","16.68477064220196","960","536","f","true","img/C_ambi40.png","圆形","prac_word_first",""
"","","","","","html-keyboard-response","113","630875","0.0-9.0-0.0-1.1","null","<span style='color:GreenYellow; font-size: 70px;'>正确! </span>","null","","","","","","","","","","","","","","","","","","","","","","","feedback_test"
"","","","","","psychophysics","114","633171","0.0-9.0-0.0-0.2","1141","","j","","","","","","","","","","","","","key","j","16.684978102189387","960","536","j","true","img/S_ambi40.png","三角","prac_word_first",""
"","","","","","html-keyboard-response","115","633483","0.0-9.0-0.0-1.2","null","<span style='color:GreenYellow; font-size: 70px;'>正确! </span>","null","","","","","","","","","","","","","","","","","","","","","","","feedback_test"
"","","","","","psychophysics","116","635408","0.0-9.0-0.0-0.3","771","","j","","","","","","","","","","","","","key","j","16.68592982456137","960","536","j","true","img/T_ambi40.png","圆形","prac_word_first",""
"","","","","","html-keyboard-response","117","635730","0.0-9.0-0.0-1.3","null","<span style='color:GreenYellow; font-size: 70px;'>正确! </span>","null","","","","","","","","","","","","","","","","","","","","","","","feedback_test"
"","","","","","psychophysics","118","637552","0.0-9.0-0.0-0.4","666","","f","","","","","","","","","","","","","key","f","16.685268518519244","960","536","f","true","img/C_ambi40.png","圆形","prac_word_first",""
"","","","","","html-keyboard-response","119","637858","0.0-9.0-0.0-1.4","null","<span style='color:GreenYellow; font-size: 70px;'>正确! </span>","null","","","","","","","","","","","","","","","","","","","","","","","feedback_test"
"","","","","","psychophysics","120","639517","0.0-9.0-0.0-0.5","508","","j","","","","","","","","","","","","","key","j","16.685857142857515","960","536","f","false","img/S_ambi40.png","方形","prac_word_first",""
"","","","","","html-keyboard-response","121","639826","0.0-9.0-0.0-1.5","null","<span style='color:red; font-size: 70px;'>错误! </span>","null","","","","","","","","","","","","","","","","","","","","","","","feedback_test"
"","","","","","psychophysics","122","641522","0.0-9.0-0.0-0.6","542","","j","","","","","","","","","","","","","key","j","16.688429999999936","960","536","f","false","img/S_ambi40.png","方形","prac_word_first",""
"","","","","","html-keyboard-response","123","641838","0.0-9.0-0.0-1.6","null","<span style='color:red; font-size: 70px;'>错误! </span>","null","","","","","","","","","","","","","","","","","","","","","","","feedback_test"
"","","","","","psychophysics","124","643717","0.0-9.0-0.0-0.7","725","","j","","","","","","","","","","","","","key","j","16.569522522522036","960","536","j","true","img/S_ambi40.png","圆形","prac_word_first",""
"","","","","","html-keyboard-response","125","644022","0.0-9.0-0.0-1.7","null","<span style='color:GreenYellow; font-size: 70px;'>正确! </span>","null","","","","","","","","","","","","","","","","","","","","","","","feedback_test"
"","","","","","psychophysics","126","645911","0.0-9.0-0.0-0.8","732","","j","","","","","","","","","","","","","key","j","16.6846875000005","960","536","j","true","img/T_ambi40.png","方形","prac_word_first",""
"","","","","","html-keyboard-response","127","646222","0.0-9.0-0.0-1.8","null","<span style='color:GreenYellow; font-size: 70px;'>正确! </span>","null","","","","","","","","","","","","","","","","","","","","","","","feedback_test"
"","","","","","psychophysics","128","648160","0.0-9.0-0.0-0.9","781","","j","","","","","","","","","","","","","key","j","16.685643478261266","960","536","j","true","img/C_ambi40.png","方形","prac_word_first",""
"","","","","","html-keyboard-response","129","648475","0.0-9.0-0.0-1.9","null","<span style='color:GreenYellow; font-size: 70px;'>正确! </span>","null","","","","","","","","","","","","","","","","","","","","","","","feedback_test"
"","","","","","psychophysics","130","650283","0.0-9.0-0.0-0.10","651","","f","","","","","","","","","","","","","key","f","16.68542056074736","960","536","f","true","img/T_ambi40.png","三角","prac_word_first",""
"","","","","","html-keyboard-response","131","650588","0.0-9.0-0.0-1.10","null","<span style='color:GreenYellow; font-size: 70px;'>正确! </span>","null","","","","","","","","","","","","","","","","","","","","","","","feedback_test"
"","","","","","psychophysics","132","652311","0.0-9.0-0.0-0.11","572","","j","","","","","","","","","","","","","key","j","16.686019607843583","960","536","j","true","img/C_ambi40.png","三角","prac_word_first",""
"","","","","","html-keyboard-response","133","652633","0.0-9.0-0.0-1.11","null","<span style='color:GreenYellow; font-size: 70px;'>正确! </span>","null","","","","","","","","","","","","","","","","","","","","","","","feedback_test"
"","","","","","psychophysics","134","654544","0.0-9.0-0.0-0.12","757","","j","","","","","","","","","","","","","key","j","16.685026315789415","960","536","j","true","img/S_ambi40.png","圆形","prac_word_first",""
"","","","","","html-keyboard-response","135","654854","0.0-9.0-0.0-1.12","null","<span style='color:GreenYellow; font-size: 70px;'>正确! </span>","null","","","","","","","","","","","","","","","","","","","","","","","feedback_test"
"","","","","","psychophysics","136","656726","0.0-9.0-0.0-0.13","720","","f","","","","","","","","","","","","","key","f","16.68459459459451","960","536","f","true","img/T_ambi40.png","三角","prac_word_first",""
"","","","","","html-keyboard-response","137","657038","0.0-9.0-0.0-1.13","null","<span style='color:GreenYellow; font-size: 70px;'>正确! </span>","null","","","","","","","","","","","","","","","","","","","","","","","feedback_test"
"","","","","","psychophysics","138","658770","0.0-9.0-0.0-0.14","572","","j","","","","","","","","","","","","","key","j","16.685126213591943","960","536","j","true","img/S_ambi40.png","三角","prac_word_first",""
"","","","","","html-keyboard-response","139","659082","0.0-9.0-0.0-1.14","null","<span style='color:GreenYellow; font-size: 70px;'>正确! </span>","null","","","","","","","","","","","","","","","","","","","","","","","feedback_test"
"","","","","","psychophysics","140","660852","0.0-9.0-0.0-0.15","619","","f","","","","","","","","","","","","","key","f","16.684399999999663","960","536","f","true","img/C_ambi40.png","圆形","prac_word_first",""
"","","","","","html-keyboard-response","141","661160","0.0-9.0-0.0-1.15","null","<span style='color:GreenYellow; font-size: 70px;'>正确! </span>","null","","","","","","","","","","","","","","","","","","","","","","","feedback_test"
"","","","","","psychophysics","142","662920","0.0-9.0-0.0-0.16","607","","f","","","","","","","","","","","","","key","f","16.561769230769222","960","536","f","true","img/C_ambi40.png","圆形","prac_word_first",""
"","","","","","html-keyboard-response","143","663233","0.0-9.0-0.0-1.16","null","<span style='color:GreenYellow; font-size: 70px;'>正确! </span>","null","","","","","","","","","","","","","","","","","","","","","","","feedback_test"
"","","","","","psychophysics","144","664959","0.0-9.0-0.0-0.17","570","","f","","","","","","","","","","","","","key","f","16.68596078431366","960","536","f","true","img/T_ambi40.png","三角","prac_word_first",""
"","","","","","html-keyboard-response","145","665277","0.0-9.0-0.0-1.17","null","<span style='color:GreenYellow; font-size: 70px;'>正确! </span>","null","","","","","","","","","","","","","","","","","","","","","","","feedback_test"
"","","","","","psychophysics","146","667211","0.0-9.0-0.0-0.18","777","","f","","","","","","","","","","","","","key","f","16.6852434782615","960","536","f","true","img/S_ambi40.png","方形","prac_word_first",""
"","","","","","html-keyboard-response","147","667528","0.0-9.0-0.0-1.18","null","<span style='color:GreenYellow; font-size: 70px;'>正确! </span>","null","","","","","","","","","","","","","","","","","","","","","","","feedback_test"
"","","","","","psychophysics","148","669442","0.0-9.0-0.0-0.19","757","","j","","","","","","","","","","","","","key","j","16.685398230088083","960","536","j","true","img/C_ambi40.png","三角","prac_word_first",""
"","","","","","html-keyboard-response","149","669749","0.0-9.0-0.0-1.19","null","<span style='color:GreenYellow; font-size: 70px;'>正确! </span>","null","","","","","","","","","","","","","","","","","","","","","","","feedback_test"
"","","","","","psychophysics","150","671964","0.0-9.0-0.0-0.20","1058","","j","","","","","","","","","","","","","key","j","16.685803030302683","960","536","j","true","img/T_ambi40.png","方形","prac_word_first",""
"","","","","","html-keyboard-response","151","672273","0.0-9.0-0.0-1.20","null","<span style='color:GreenYellow; font-size: 70px;'>正确! </span>","null","","","","","","","","","","","","","","","","","","","","","","","feedback_test"
"","","","","","psychophysics","152","673981","0.0-9.0-0.0-0.21","556","","j","","","","","","","","","","","","","key","j","16.68457425742567","960","536","j","true","img/T_ambi40.png","圆形","prac_word_first",""
"","","","","","html-keyboard-response","153","674299","0.0-9.0-0.0-1.21","null","<span style='color:GreenYellow; font-size: 70px;'>正确! </span>","null","","","","","","","","","","","","","","","","","","","","","","","feedback_test"
"","","","","","psychophysics","154","676066","0.0-9.0-0.0-0.22","615","","f","","","","","","","","","","","","","key","f","16.683240384615672","960","536","f","true","img/S_ambi40.png","方形","prac_word_first",""
"","","","","","html-keyboard-response","155","676382","0.0-9.0-0.0-1.22","null","<span style='color:GreenYellow; font-size: 70px;'>正确! </span>","null","","","","","","","","","","","","","","","","","","","","","","","feedback_test"
"","","","","","psychophysics","156","678341","0.0-9.0-0.0-0.23","807","","j","","","","","","","","","","","","","key","j","16.685224137931325","960","536","j","true","img/C_ambi40.png","方形","prac_word_first",""
"","","","","","html-keyboard-response","157","678646","0.0-9.0-0.0-1.23","null","<span style='color:GreenYellow; font-size: 70px;'>正确! </span>","null","","","","","","","","","","","","","","","","","","","","","","","feedback_test"
"","","","","","html-keyboard-response","158","683650","0.0-10.0","5000","<style>.context{color:white; font-size: 35px; line-height:40px}</style>                            <div><p class='context'>您正确回答了88% 的试次。</p><p class='context'>您的平均反应时为721毫秒。</p><p class='context'>恭喜您完成练习。按任意键进入<span style='color: yellow;'>图形和文字同时呈现条件</span>的练习。</p></div>","enter","","","","","","","","","","","","","","","","","","","","","","",""
"","","","","","psychophysics","159","686162","0.0-11.0-0.0-0.0","null","","null","","","","","","","","","","","","","key","null","16.68588666666687","960","536","j","false","img/S_ambi40.png","圆形","prac_simultaneous",""
"","","","","","html-keyboard-response","160","686482","0.0-11.0-0.0-1.0","null","<span class='add_' style='color:yellow; font-size: 70px;'> 太慢! </span>","null","","","","","","","","","","","","","","","","","","","","","","","feedback_test"
"","","","","","psychophysics","161","688498","0.0-11.0-0.0-0.1","1008","","j","","","","","","","","","","","","","key","j","16.685533333333055","960","536","j","true","img/T_ambi40.png","圆形","prac_simultaneous",""
"","","","","","html-keyboard-response","162","688813","0.0-11.0-0.0-1.1","null","<span style='color:GreenYellow; font-size: 70px;'>正确! </span>","null","","","","","","","","","","","","","","","","","","","","","","","feedback_test"
"","","","","","psychophysics","163","690622","0.0-11.0-0.0-0.2","806","","f","","","","","","","","","","","","","key","f","16.68581308411199","960","536","f","true","img/T_ambi40.png","三角","prac_simultaneous",""
"","","","","","html-keyboard-response","164","690951","0.0-11.0-0.0-1.2","null","<span style='color:GreenYellow; font-size: 70px;'>正确! </span>","null","","","","","","","","","","","","","","","","","","","","","","","feedback_test"
"","","","","","psychophysics","165","692665","0.0-11.0-0.0-0.3","712","","j","","","","","","","","","","","","","key","j","16.68484158415836","960","536","j","true","img/T_ambi40.png","方形","prac_simultaneous",""
"","","","","","html-keyboard-response","166","692976","0.0-11.0-0.0-1.3","null","<span style='color:GreenYellow; font-size: 70px;'>正确! </span>","null","","","","","","","","","","","","","","","","","","","","","","","feedback_test"
"","","","","","psychophysics","167","694676","0.0-11.0-0.0-0.4","694","","f","","","","","","","","","","","","","key","f","16.686148514851265","960","536","f","true","img/S_ambi40.png","方形","prac_simultaneous",""
"","","","","","html-keyboard-response","168","694990","0.0-11.0-0.0-1.4","null","<span style='color:GreenYellow; font-size: 70px;'>正确! </span>","null","","","","","","","","","","","","","","","","","","","","","","","feedback_test"
"","","","","","psychophysics","169","696437","0.0-11.0-0.0-0.5","436","","j","","","","","","","","","","","","","key","j","16.68449999999964","960","536","j","true","img/C_ambi40.png","三角","prac_simultaneous",""
"","","","","","html-keyboard-response","170","696741","0.0-11.0-0.0-1.5","null","<span style='color:GreenYellow; font-size: 70px;'>正确! </span>","null","","","","","","","","","","","","","","","","","","","","","","","feedback_test"
"","","","","","psychophysics","171","698663","0.0-11.0-0.0-0.6","915","","f","","","","","","","","","","","","","key","f","16.684859649123002","960","536","f","true","img/C_ambi40.png","圆形","prac_simultaneous",""
"","","","","","html-keyboard-response","172","698975","0.0-11.0-0.0-1.6","null","<span style='color:GreenYellow; font-size: 70px;'>正确! </span>","null","","","","","","","","","","","","","","","","","","","","","","","feedback_test"
"","","","","","psychophysics","173","700833","0.0-11.0-0.0-0.7","856","","j","","","","","","","","","","","","","key","j","16.687218181818555","960","536","j","true","img/C_ambi40.png","方形","prac_simultaneous",""
"","","","","","html-keyboard-response","174","701148","0.0-11.0-0.0-1.7","null","<span style='color:GreenYellow; font-size: 70px;'>正确! </span>","null","","","","","","","","","","","","","","","","","","","","","","","feedback_test"
"","","","","","psychophysics","175","702777","0.0-11.0-0.0-0.8","620","","f","","","","","","","","","","","","","key","f","16.685531249999865","960","536","f","true","img/T_ambi40.png","三角","prac_simultaneous",""
"","","","","","html-keyboard-response","176","703086","0.0-11.0-0.0-1.8","null","<span style='color:GreenYellow; font-size: 70px;'>正确! </span>","null","","","","","","","","","","","","","","","","","","","","","","","feedback_test"
"","","","","","psychophysics","177","704740","0.0-11.0-0.0-0.9","648","","j","","","","","","","","","","","","","key","j","16.68606122448917","960","536","f","false","img/C_ambi40.png","圆形","prac_simultaneous",""
"","","","","","html-keyboard-response","178","705058","0.0-11.0-0.0-1.9","null","<span style='color:red; font-size: 70px;'>错误! </span>","null","","","","","","","","","","","","","","","","","","","","","","","feedback_test"
"","","","","","psychophysics","179","706653","0.0-11.0-0.0-0.10","593","","f","","","","","","","","","","","","","key","f","16.53344680851033","960","536","f","true","img/S_ambi40.png","方形","prac_simultaneous",""
"","","","","","html-keyboard-response","180","706958","0.0-11.0-0.0-1.10","null","<span style='color:GreenYellow; font-size: 70px;'>正确! </span>","null","","","","","","","","","","","","","","","","","","","","","","","feedback_test"
"","","","","","psychophysics","181","708677","0.0-11.0-0.0-0.11","714","","j","","","","","","","","","","","","","key","j","16.684607843136845","960","536","j","true","img/S_ambi40.png","三角","prac_simultaneous",""
"","","","","","html-keyboard-response","182","708992","0.0-11.0-0.0-1.11","null","<span style='color:GreenYellow; font-size: 70px;'>正确! </span>","null","","","","","","","","","","","","","","","","","","","","","","","feedback_test"
"","","","","","psychophysics","183","710692","0.0-11.0-0.0-0.12","696","","f","","","","","","","","","","","","","key","f","16.682277227723095","960","536","j","false","img/T_ambi40.png","方形","prac_simultaneous",""
"","","","","","html-keyboard-response","184","711007","0.0-11.0-0.0-1.12","null","<span style='color:red; font-size: 70px;'>错误! </span>","null","","","","","","","","","","","","","","","","","","","","","","","feedback_test"
"","","","","","psychophysics","185","712864","0.0-11.0-0.0-0.13","853","","f","","","","","","","","","","","","","key","f","16.68626363636312","960","536","f","true","img/T_ambi40.png","三角","prac_simultaneous",""
"","","","","","html-keyboard-response","186","713179","0.0-11.0-0.0-1.13","null","<span style='color:GreenYellow; font-size: 70px;'>正确! </span>","null","","","","","","","","","","","","","","","","","","","","","","","feedback_test"
"","","","","","psychophysics","187","714977","0.0-11.0-0.0-0.14","790","","j","","","","","","","","","","","","","key","j","16.686065420561697","960","536","j","true","img/T_ambi40.png","圆形","prac_simultaneous",""
"","","","","","html-keyboard-response","188","715296","0.0-11.0-0.0-1.14","null","<span style='color:GreenYellow; font-size: 70px;'>正确! </span>","null","","","","","","","","","","","","","","","","","","","","","","","feedback_test"
"","","","","","psychophysics","189","717142","0.0-11.0-0.0-0.15","836","","j","","","","","","","","","","","","","key","j","16.68529999999922","960","536","j","true","img/S_ambi40.png","三角","prac_simultaneous",""
"","","","","","html-keyboard-response","190","717456","0.0-11.0-0.0-1.15","null","<span style='color:GreenYellow; font-size: 70px;'>正确! </span>","null","","","","","","","","","","","","","","","","","","","","","","","feedback_test"
"","","","","","psychophysics","191","719083","0.0-11.0-0.0-0.16","625","","f","","","","","","","","","","","","","key","f","16.684020833333005","960","536","f","true","img/T_ambi40.png","三角","prac_simultaneous",""
"","","","","","html-keyboard-response","192","719403","0.0-11.0-0.0-1.16","null","<span style='color:GreenYellow; font-size: 70px;'>正确! </span>","null","","","","","","","","","","","","","","","","","","","","","","","feedback_test"
"","","","","","psychophysics","193","721136","0.0-11.0-0.0-0.17","726","","j","","","","","","","","","","","","","key","j","16.686776699029245","960","536","j","true","img/C_ambi40.png","方形","prac_simultaneous",""
"","","","","","html-keyboard-response","194","721455","0.0-11.0-0.0-1.17","null","<span style='color:GreenYellow; font-size: 70px;'>正确! </span>","null","","","","","","","","","","","","","","","","","","","","","","","feedback_test"
"","","","","","psychophysics","195","723158","0.0-11.0-0.0-0.18","696","","f","","","","","","","","","","","","","key","f","16.685475247524828","960","536","f","true","img/S_ambi40.png","方形","prac_simultaneous",""
"","","","","","html-keyboard-response","196","723472","0.0-11.0-0.0-1.18","null","<span style='color:GreenYellow; font-size: 70px;'>正确! </span>","null","","","","","","","","","","","","","","","","","","","","","","","feedback_test"
"","","","","","psychophysics","197","725263","0.0-11.0-0.0-0.19","786","","j","","","","","","","","","","","","","key","j","16.685745283018992","960","536","j","true","img/C_ambi40.png","三角","prac_simultaneous",""
"","","","","","html-keyboard-response","198","725574","0.0-11.0-0.0-1.19","null","<span style='color:GreenYellow; font-size: 70px;'>正确! </span>","null","","","","","","","","","","","","","","","","","","","","","","","feedback_test"
"","","","","","psychophysics","199","727241","0.0-11.0-0.0-0.20","661","","f","","","","","","","","","","","","","key","f","16.68624242424325","960","536","j","false","img/S_ambi40.png","圆形","prac_simultaneous",""
"","","","","","html-keyboard-response","200","727554","0.0-11.0-0.0-1.20","null","<span style='color:red; font-size: 70px;'>错误! </span>","null","","","","","","","","","","","","","","","","","","","","","","","feedback_test"
"","","","","","psychophysics","201","729194","0.0-11.0-0.0-0.21","639","","j","","","","","","","","","","","","","key","j","16.68664948453589","960","536","f","false","img/C_ambi40.png","圆形","prac_simultaneous",""
"","","","","","html-keyboard-response","202","729515","0.0-11.0-0.0-1.21","null","<span style='color:red; font-size: 70px;'>错误! </span>","null","","","","","","","","","","","","","","","","","","","","","","","feedback_test"
"","","","","","psychophysics","203","731398","0.0-11.0-0.0-0.22","877","","f","","","","","","","","","","","","","key","f","16.686794642856903","960","536","f","true","img/C_ambi40.png","圆形","prac_simultaneous",""
"","","","","","html-keyboard-response","204","731715","0.0-11.0-0.0-1.22","null","<span style='color:GreenYellow; font-size: 70px;'>正确! </span>","null","","","","","","","","","","","","","","","","","","","","","","","feedback_test"
"","","","","","psychophysics","205","733322","0.0-11.0-0.0-0.23","598","","j","","","","","","","","","","","","","key","j","16.686810526315515","960","536","f","false","img/S_ambi40.png","方形","prac_simultaneous",""
"","","","","","html-keyboard-response","206","733632","0.0-11.0-0.0-1.23","null","<span style='color:red; font-size: 70px;'>错误! </span>","null","","","","","","","","","","","","","","","","","","","","","","","feedback_test"
"","","","","","html-keyboard-response","207","750767","0.0-12.0","17131","<style>.context{color:white; font-size: 35px; line-height:40px}</style>                            <div><p class='context'>您正确回答了75% 的试次。</p><p class='context'>您的平均反应时为752毫秒。</p><p class='context'>恭喜您完成练习。按任意键进入正式实验。</p><p class='footer' style='font-size: 35px; line-height:40px;'>请在进入正式实验实验之前将您的<span style='color: lightgreen;'>食指</span>放在电脑键盘的相应键位上进行按键。</p>"," ","","","","","","","","","","","","","","","","","","","","","","",""
"","","","","","html-keyboard-response","208","757702","0.0-13.0-1.0-0.0","6922","
    <p>请您将手指放在按键上，准备进入呈现顺序为<span style='color: yellow;'>先文字后图形条件</span>的正式匹配任务</p>
    <p> <div style = ""color: green""><按任意键进入下一阶段的匹配任务></div></p>
    "," ","","","","","","","","","","","","","","","","","","","","","","",""
"","","","","","psychophysics","209","759473","0.0-13.0-1.0-1.0-0.0-0.0","619","","f","","","","","","","","","","","","","key","f","16.685085714285794","960","536","f","true","img/S_ambi40.png","方形","word_first",""
"","","","","","html-keyboard-response","210","759791","0.0-13.0-1.0-1.0-0.0-1.0","null","<span style='color:GreenYellow; font-size: 70px;'>正确! </span>","null","","","","","","","","","","","","","","","","","","","","","","","feedback_test"
"","","","","","psychophysics","211","761533","0.0-13.0-1.0-1.0-0.0-0.1","590","","f","","","","","","","","","","","","","key","f","16.684669902913264","960","536","f","true","img/T_ambi40.png","三角","word_first",""
"","","","","","html-keyboard-response","212","761838","0.0-13.0-1.0-1.0-0.0-1.1","null","<span style='color:GreenYellow; font-size: 70px;'>正确! </span>","null","","","","","","","","","","","","","","","","","","","","","","","feedback_test"
"","","","","","psychophysics","213","763690","0.0-13.0-1.0-1.0-0.0-0.2","699","","j","","","","","","","","","","","","","key","j","16.553935779816122","960","536","j","true","img/C_ambi40.png","三角","word_first",""
"","","","","","html-keyboard-response","214","764011","0.0-13.0-1.0-1.0-0.0-1.2","null","<span style='color:GreenYellow; font-size: 70px;'>正确! </span>","null","","","","","","","","","","","","","","","","","","","","","","","feedback_test"
"","","","","","psychophysics","215","765939","0.0-13.0-1.0-1.0-0.0-0.3","775","","j","","","","","","","","","","","","","key","j","16.68564035087771","960","536","j","true","img/S_ambi40.png","圆形","word_first",""
"","","","","","html-keyboard-response","216","766248","0.0-13.0-1.0-1.0-0.0-1.3","null","<span style='color:GreenYellow; font-size: 70px;'>正确! </span>","null","","","","","","","","","","","","","","","","","","","","","","","feedback_test"
"","","","","","psychophysics","217","767973","0.0-13.0-1.0-1.0-0.0-0.4","573","","f","","","","","","","","","","","","","key","f","16.684500000000174","960","536","j","false","img/S_ambi40.png","三角","word_first",""
"","","","","","html-keyboard-response","218","768279","0.0-13.0-1.0-1.0-0.0-1.4","null","<span style='color:red; font-size: 70px;'>错误! </span>","null","","","","","","","","","","","","","","","","","","","","","","","feedback_test"
"","","","","","psychophysics","219","770334","0.0-13.0-1.0-1.0-0.0-0.5","903","","j","","","","","","","","","","","","","key","j","16.684721311476068","960","536","f","false","img/S_ambi40.png","方形","word_first",""
"","","","","","html-keyboard-response","220","770656","0.0-13.0-1.0-1.0-0.0-1.5","null","<span style='color:red; font-size: 70px;'>错误! </span>","null","","","","","","","","","","","","","","","","","","","","","","","feedback_test"
"","","","","","psychophysics","221","772451","0.0-13.0-1.0-1.0-0.0-0.6","637","","j","","","","","","","","","","","","","key","j","16.685764150943317","960","536","j","true","img/T_ambi40.png","圆形","word_first",""
"","","","","","html-keyboard-response","222","772763","0.0-13.0-1.0-1.0-0.0-1.6","null","<span style='color:GreenYellow; font-size: 70px;'>正确! </span>","null","","","","","","","","","","","","","","","","","","","","","","","feedback_test"
"","","","","","psychophysics","223","774373","0.0-13.0-1.0-1.0-0.0-0.7","455","","f","","","","","","","","","","","","","key","f","16.685541666667024","960","536","f","true","img/T_ambi40.png","三角","word_first",""
"","","","","","html-keyboard-response","224","774686","0.0-13.0-1.0-1.0-0.0-1.7","null","<span style='color:GreenYellow; font-size: 70px;'>正确! </span>","null","","","","","","","","","","","","","","","","","","","","","","","feedback_test"
"","","","","","psychophysics","225","776329","0.0-13.0-1.0-1.0-0.0-0.8","491","","j","","","","","","","","","","","","","key","j","16.686041237113123","960","536","j","true","img/C_ambi40.png","方形","word_first",""
"","","","","","html-keyboard-response","226","776643","0.0-13.0-1.0-1.0-0.0-1.8","null","<span style='color:GreenYellow; font-size: 70px;'>正确! </span>","null","","","","","","","","","","","","","","","","","","","","","","","feedback_test"
"","","","","","psychophysics","227","778545","0.0-13.0-1.0-1.0-0.0-0.9","748","","f","","","","","","","","","","","","","key","f","16.68535398230043","960","536","f","true","img/C_ambi40.png","圆形","word_first",""
"","","","","","html-keyboard-response","228","778855","0.0-13.0-1.0-1.0-0.0-1.9","null","<span style='color:GreenYellow; font-size: 70px;'>正确! </span>","null","","","","","","","","","","","","","","","","","","","","","","","feedback_test"
"","","","","","psychophysics","229","780584","0.0-13.0-1.0-1.0-0.0-0.10","573","","j","","","","","","","","","","","","","key","j","16.685359223300445","960","536","j","true","img/T_ambi40.png","方形","word_first",""
"","","","","","html-keyboard-response","230","780894","0.0-13.0-1.0-1.0-0.0-1.10","null","<span style='color:GreenYellow; font-size: 70px;'>正确! </span>","null","","","","","","","","","","","","","","","","","","","","","","","feedback_test"
"","","","","","psychophysics","231","782632","0.0-13.0-1.0-1.0-0.0-0.11","585","","f","","","","","","","","","","","","","key","f","16.685699029127136","960","536","f","true","img/C_ambi40.png","圆形","word_first",""
"","","","","","html-keyboard-response","232","782956","0.0-13.0-1.0-1.0-0.0-1.11","null","<span style='color:GreenYellow; font-size: 70px;'>正确! </span>","null","","","","","","","","","","","","","","","","","","","","","","","feedback_test"
"","","","","","psychophysics","233","784624","0.0-13.0-1.0-1.0-0.0-0.12","510","","f","","","","","","","","","","","","","key","f","16.68510101010054","960","536","f","true","img/C_ambi40.png","圆形","word_first",""
"","","","","","html-keyboard-response","234","784939","0.0-13.0-1.0-1.0-0.0-1.12","null","<span style='color:GreenYellow; font-size: 70px;'>正确! </span>","null","","","","","","","","","","","","","","","","","","","","","","","feedback_test"
"","","","","","psychophysics","235","786490","0.0-13.0-1.0-1.0-0.0-0.13","398","","f","","","","","","","","","","","","","key","f","16.684978260868736","960","536","f","true","img/C_ambi40.png","圆形","word_first",""
"","","","","","html-keyboard-response","236","786803","0.0-13.0-1.0-1.0-0.0-1.13","null","<span style='color:GreenYellow; font-size: 70px;'>正确! </span>","null","","","","","","","","","","","","","","","","","","","","","","","feedback_test"
"","","","","","psychophysics","237","788499","0.0-13.0-1.0-1.0-0.0-0.14","543","","f","","","","","","","","","","","","","key","f","16.683219999999274","960","536","j","false","img/C_ambi40.png","方形","word_first",""
"","","","","","html-keyboard-response","238","788812","0.0-13.0-1.0-1.0-0.0-1.14","null","<span style='color:red; font-size: 70px;'>错误! </span>","null","","","","","","","","","","","","","","","","","","","","","","","feedback_test"
"","","","","","psychophysics","239","790557","0.0-13.0-1.0-1.0-0.0-0.15","587","","f","","","","","","","","","","","","","key","f","16.684805825243036","960","536","f","true","img/T_ambi40.png","三角","word_first",""
"","","","","","html-keyboard-response","240","790862","0.0-13.0-1.0-1.0-0.0-1.15","null","<span style='color:GreenYellow; font-size: 70px;'>正确! </span>","null","","","","","","","","","","","","","","","","","","","","","","","feedback_test"
"","","","","","psychophysics","241","792660","0.0-13.0-1.0-1.0-0.0-0.16","637","","f","","","","","","","","","","","","","key","f","16.684317757008884","960","536","f","true","img/S_ambi40.png","方形","word_first",""
"","","","","","html-keyboard-response","242","792968","0.0-13.0-1.0-1.0-0.0-1.16","null","<span style='color:GreenYellow; font-size: 70px;'>正确! </span>","null","","","","","","","","","","","","","","","","","","","","","","","feedback_test"
"","","","","","psychophysics","243","794629","0.0-13.0-1.0-1.0-0.0-0.17","505","","j","","","","","","","","","","","","","key","j","16.685244897958984","960","536","j","true","img/T_ambi40.png","圆形","word_first",""
"","","","","","html-keyboard-response","244","794943","0.0-13.0-1.0-1.0-0.0-1.17","null","<span style='color:GreenYellow; font-size: 70px;'>正确! </span>","null","","","","","","","","","","","","","","","","","","","","","","","feedback_test"
"","","","","","psychophysics","245","797066","0.0-13.0-1.0-1.0-0.0-0.18","970","","f","","","","","","","","","","","","","key","f","16.685428571429046","960","536","j","false","img/S_ambi40.png","三角","word_first",""
"","","","","","html-keyboard-response","246","797379","0.0-13.0-1.0-1.0-0.0-1.18","null","<span style='color:red; font-size: 70px;'>错误! </span>","null","","","","","","","","","","","","","","","","","","","","","","","feedback_test"
"","","","","","psychophysics","247","799312","0.0-13.0-1.0-1.0-0.0-0.19","777","","j","","","","","","","","","","","","","key","j","16.684157894736384","960","536","j","true","img/S_ambi40.png","圆形","word_first",""
"","","","","","html-keyboard-response","248","799629","0.0-13.0-1.0-1.0-0.0-1.19","null","<span style='color:GreenYellow; font-size: 70px;'>正确! </span>","null","","","","","","","","","","","","","","","","","","","","","","","feedback_test"
"","","","","","psychophysics","249","801436","0.0-13.0-1.0-1.0-0.0-0.20","653","","f","","","","","","","","","","","","","key","f","16.560179245282615","960","536","f","true","img/S_ambi40.png","方形","word_first",""
"","","","","","html-keyboard-response","250","801751","0.0-13.0-1.0-1.0-0.0-1.20","null","<span style='color:GreenYellow; font-size: 70px;'>正确! </span>","null","","","","","","","","","","","","","","","","","","","","","","","feedback_test"
"","","","","","psychophysics","251","803408","0.0-13.0-1.0-1.0-0.0-0.21","504","","j","","","","","","","","","","","","","key","j","16.68583673469328","960","536","j","true","img/C_ambi40.png","三角","word_first",""
"","","","","","html-keyboard-response","252","803735","0.0-13.0-1.0-1.0-0.0-1.21","null","<span style='color:GreenYellow; font-size: 70px;'>正确! </span>","null","","","","","","","","","","","","","","","","","","","","","","","feedback_test"
"","","","","","psychophysics","253","805533","0.0-13.0-1.0-1.0-0.0-0.22","646","","j","","","","","","","","","","","","","key","j","16.684867924528486","960","536","j","true","img/T_ambi40.png","方形","word_first",""
"","","","","","html-keyboard-response","254","805841","0.0-13.0-1.0-1.0-0.0-1.22","null","<span style='color:GreenYellow; font-size: 70px;'>正确! </span>","null","","","","","","","","","","","","","","","","","","","","","","","feedback_test"
"","","","","","psychophysics","255","807901","0.0-13.0-1.0-1.0-0.0-0.23","908","","f","","","","","","","","","","","","","key","f","16.68516393442596","960","536","f","true","img/T_ambi40.png","三角","word_first",""
"","","","","","html-keyboard-response","256","808209","0.0-13.0-1.0-1.0-0.0-1.23","null","<span style='color:GreenYellow; font-size: 70px;'>正确! </span>","null","","","","","","","","","","","","","","","","","","","","","","","feedback_test"
"","","","","","psychophysics","257","810061","0.0-13.0-1.0-1.0-0.0-0.24","701","","j","","","","","","","","","","","","","key","j","16.68312727272701","960","536","j","true","img/S_ambi40.png","三角","word_first",""
"","","","","","html-keyboard-response","258","810378","0.0-13.0-1.0-1.0-0.0-1.24","null","<span style='color:GreenYellow; font-size: 70px;'>正确! </span>","null","","","","","","","","","","","","","","","","","","","","","","","feedback_test"
"","","","","","psychophysics","259","812001","0.0-13.0-1.0-1.0-0.0-0.25","472","","f","","","","","","","","","","","","","key","f","16.685447916667425","960","536","f","true","img/S_ambi40.png","方形","word_first",""
"","","","","","html-keyboard-response","260","812320","0.0-13.0-1.0-1.0-0.0-1.25","null","<span style='color:GreenYellow; font-size: 70px;'>正确! </span>","null","","","","","","","","","","","","","","","","","","","","","","","feedback_test"
"","","","","","psychophysics","261","813990","0.0-13.0-1.0-1.0-0.0-0.26","511","","j","","","","","","","","","","","","","key","j","16.685626262626045","960","536","j","true","img/T_ambi40.png","圆形","word_first",""
"","","","","","html-keyboard-response","262","814314","0.0-13.0-1.0-1.0-0.0-1.26","null","<span style='color:GreenYellow; font-size: 70px;'>正确! </span>","null","","","","","","","","","","","","","","","","","","","","","","","feedback_test"
"","","","","","psychophysics","263","815975","0.0-13.0-1.0-1.0-0.0-0.27","509","","f","","","","","","","","","","","","","key","f","16.686418367346644","960","536","f","true","img/C_ambi40.png","圆形","word_first",""
"","","","","","html-keyboard-response","264","816292","0.0-13.0-1.0-1.0-0.0-1.27","null","<span style='color:GreenYellow; font-size: 70px;'>正确! </span>","null","","","","","","","","","","","","","","","","","","","","","","","feedback_test"
"","","","","","psychophysics","265","817859","0.0-13.0-1.0-1.0-0.0-0.28","414","","f","","","","","","","","","","","","","key","f","16.68621505376312","960","536","f","true","img/C_ambi40.png","圆形","word_first",""
"","","","","","html-keyboard-response","266","818176","0.0-13.0-1.0-1.0-0.0-1.28","null","<span style='color:GreenYellow; font-size: 70px;'>正确! </span>","null","","","","","","","","","","","","","","","","","","","","","","","feedback_test"
"","","","","","psychophysics","267","819716","0.0-13.0-1.0-1.0-0.0-0.29","385","","f","","","","","","","","","","","","","key","f","16.68595604395627","960","536","j","false","img/S_ambi40.png","圆形","word_first",""
"","","","","","html-keyboard-response","268","820030","0.0-13.0-1.0-1.0-0.0-1.29","null","<span style='color:red; font-size: 70px;'>错误! </span>","null","","","","","","","","","","","","","","","","","","","","","","","feedback_test"
"","","","","","psychophysics","269","821952","0.0-13.0-1.0-1.0-0.0-0.30","765","","f","","","","","","","","","","","","","key","f","16.685701754386333","960","536","j","false","img/C_ambi40.png","方形","word_first",""
"","","","","","html-keyboard-response","270","822262","0.0-13.0-1.0-1.0-0.0-1.30","null","<span style='color:red; font-size: 70px;'>错误! </span>","null","","","","","","","","","","","","","","","","","","","","","","","feedback_test"
"","","","","","psychophysics","271","824057","0.0-13.0-1.0-1.0-0.0-0.31","637","","f","","","","","","","","","","","","","key","f","16.68696226415176","960","536","f","true","img/S_ambi40.png","方形","word_first",""
"","","","","","html-keyboard-response","272","824367","0.0-13.0-1.0-1.0-0.0-1.31","null","<span style='color:GreenYellow; font-size: 70px;'>正确! </span>","null","","","","","","","","","","","","","","","","","","","","","","","feedback_test"
"","","","","","psychophysics","273","825952","0.0-13.0-1.0-1.0-0.0-0.32","429","","j","","","","","","","","","","","","","key","j","16.684840425531913","960","536","j","true","img/C_ambi40.png","三角","word_first",""
"","","","","","html-keyboard-response","274","826260","0.0-13.0-1.0-1.0-0.0-1.32","null","<span style='color:GreenYellow; font-size: 70px;'>正确! </span>","null","","","","","","","","","","","","","","","","","","","","","","","feedback_test"
"","","","","","psychophysics","275","827892","0.0-13.0-1.0-1.0-0.0-0.33","480","","f","","","","","","","","","","","","","key","f","16.68539583333283","960","536","f","true","img/T_ambi40.png","三角","word_first",""
"","","","","","html-keyboard-response","276","828208","0.0-13.0-1.0-1.0-0.0-1.33","null","<span style='color:GreenYellow; font-size: 70px;'>正确! </span>","null","","","","","","","","","","","","","","","","","","","","","","","feedback_test"
"","","","","","psychophysics","277","830010","0.0-13.0-1.0-1.0-0.0-0.34","646","","j","","","","","","","","","","","","","key","j","16.686691588785273","960","536","j","true","img/T_ambi40.png","方形","word_first",""
"","","","","","html-keyboard-response","278","830321","0.0-13.0-1.0-1.0-0.0-1.34","null","<span style='color:GreenYellow; font-size: 70px;'>正确! </span>","null","","","","","","","","","","","","","","","","","","","","","","","feedback_test"
"","","","","","psychophysics","279","832040","0.0-13.0-1.0-1.0-0.0-0.35","565","","f","","","","","","","","","","","","","key","f","16.685509803921768","960","536","f","true","img/T_ambi40.png","三角","word_first",""
"","","","","","html-keyboard-response","280","832362","0.0-13.0-1.0-1.0-0.0-1.35","null","<span style='color:GreenYellow; font-size: 70px;'>正确! </span>","null","","","","","","","","","","","","","","","","","","","","","","","feedback_test"
"","","","","","psychophysics","281","834218","0.0-13.0-1.0-1.0-0.0-0.36","702","","j","","","","","","","","","","","","","key","j","16.680054545455445","960","536","j","true","img/C_ambi40.png","方形","word_first",""
"","","","","","html-keyboard-response","282","834530","0.0-13.0-1.0-1.0-0.0-1.36","null","<span style='color:GreenYellow; font-size: 70px;'>正确! </span>","null","","","","","","","","","","","","","","","","","","","","","","","feedback_test"
"","","","","","psychophysics","283","836216","0.0-13.0-1.0-1.0-0.0-0.37","531","","f","","","","","","","","","","","","","key","f","16.68795999999973","960","536","j","false","img/S_ambi40.png","三角","word_first",""
"","","","","","html-keyboard-response","284","836523","0.0-13.0-1.0-1.0-0.0-1.37","null","<span style='color:red; font-size: 70px;'>错误! </span>","null","","","","","","","","","","","","","","","","","","","","","","","feedback_test"
"","","","","","psychophysics","285","838297","0.0-13.0-1.0-1.0-0.0-0.38","622","","f","","","","","","","","","","","","","key","f","16.683533333333962","960","536","f","true","img/S_ambi40.png","方形","word_first",""
"","","","","","html-keyboard-response","286","838612","0.0-13.0-1.0-1.0-0.0-1.38","null","<span style='color:GreenYellow; font-size: 70px;'>正确! </span>","null","","","","","","","","","","","","","","","","","","","","","","","feedback_test"
"","","","","","psychophysics","287","840285","0.0-13.0-1.0-1.0-0.0-0.39","513","","j","","","","","","","","","","","","","key","j","16.685121212120524","960","536","j","true","img/T_ambi40.png","圆形","word_first",""
"","","","","","html-keyboard-response","288","840594","0.0-13.0-1.0-1.0-0.0-1.39","null","<span style='color:GreenYellow; font-size: 70px;'>正确! </span>","null","","","","","","","","","","","","","","","","","","","","","","","feedback_test"
"","","","","","psychophysics","289","842497","0.0-13.0-1.0-1.0-0.0-0.40","751","","j","","","","","","","","","","","","","key","j","16.685185840708797","960","536","j","true","img/T_ambi40.png","方形","word_first",""
"","","","","","html-keyboard-response","290","842807","0.0-13.0-1.0-1.0-0.0-1.40","null","<span style='color:GreenYellow; font-size: 70px;'>正确! </span>","null","","","","","","","","","","","","","","","","","","","","","","","feedback_test"
"","","","","","psychophysics","291","844493","0.0-13.0-1.0-1.0-0.0-0.41","530","","f","","","","","","","","","","","","","key","f","16.685019999999785","960","536","j","false","img/C_ambi40.png","三角","word_first",""
"","","","","","html-keyboard-response","292","844807","0.0-13.0-1.0-1.0-0.0-1.41","null","<span style='color:red; font-size: 70px;'>错误! </span>","null","","","","","","","","","","","","","","","","","","","","","","","feedback_test"
"","","","","","psychophysics","293","846620","0.0-13.0-1.0-1.0-0.0-0.42","655","","f","","","","","","","","","","","","","key","f","16.68487962962913","960","536","f","true","img/S_ambi40.png","方形","word_first",""
"","","","","","html-keyboard-response","294","846922","0.0-13.0-1.0-1.0-0.0-1.42","null","<span style='color:GreenYellow; font-size: 70px;'>正确! </span>","null","","","","","","","","","","","","","","","","","","","","","","","feedback_test"
"","","","","","psychophysics","295","848763","0.0-13.0-1.0-1.0-0.0-0.43","688","","j","","","","","","","","","","","","","key","j","16.684055045871876","960","536","f","false","img/T_ambi40.png","三角","word_first",""
"","","","","","html-keyboard-response","296","849073","0.0-13.0-1.0-1.0-0.0-1.43","null","<span style='color:red; font-size: 70px;'>错误! </span>","null","","","","","","","","","","","","","","","","","","","","","","","feedback_test"
"","","","","","psychophysics","297","851097","0.0-13.0-1.0-1.0-0.0-0.44","872","","j","","","","","","","","","","","","","key","j","16.684825000000032","960","536","j","true","img/S_ambi40.png","圆形","word_first",""
"","","","","","html-keyboard-response","298","851413","0.0-13.0-1.0-1.0-0.0-1.44","null","<span style='color:GreenYellow; font-size: 70px;'>正确! </span>","null","","","","","","","","","","","","","","","","","","","","","","","feedback_test"
"","","","","","psychophysics","299","853200","0.0-13.0-1.0-1.0-0.0-0.45","628","","f","","","","","","","","","","","","","key","f","16.686056603773118","960","536","f","true","img/C_ambi40.png","圆形","word_first",""
"","","","","","html-keyboard-response","300","853519","0.0-13.0-1.0-1.0-0.0-1.45","null","<span style='color:GreenYellow; font-size: 70px;'>正确! </span>","null","","","","","","","","","","","","","","","","","","","","","","","feedback_test"
"","","","","","psychophysics","301","855202","0.0-13.0-1.0-1.0-0.0-0.46","528","","f","","","","","","","","","","","","","key","f","16.68616000000038","960","536","f","true","img/C_ambi40.png","圆形","word_first",""
"","","","","","html-keyboard-response","302","855513","0.0-13.0-1.0-1.0-0.0-1.46","null","<span style='color:GreenYellow; font-size: 70px;'>正确! </span>","null","","","","","","","","","","","","","","","","","","","","","","","feedback_test"
"","","","","","psychophysics","303","857138","0.0-13.0-1.0-1.0-0.0-0.47","473","","j","","","","","","","","","","","","","key","j","16.684739583333187","960","536","f","false","img/T_ambi40.png","三角","word_first",""
"","","","","","html-keyboard-response","304","857452","0.0-13.0-1.0-1.0-0.0-1.47","null","<span style='color:red; font-size: 70px;'>错误! </span>","null","","","","","","","","","","","","","","","","","","","","","","","feedback_test"
"","","","","","psychophysics","305","859035","0.0-13.0-1.0-1.0-0.0-0.48","423","","f","","","","","","","","","","","","","key","f","16.687489361702863","960","536","j","false","img/S_ambi40.png","圆形","word_first",""
"","","","","","html-keyboard-response","306","859349","0.0-13.0-1.0-1.0-0.0-1.48","null","<span style='color:red; font-size: 70px;'>错误! </span>","null","","","","","","","","","","","","","","","","","","","","","","","feedback_test"
"","","","","","psychophysics","307","861398","0.0-13.0-1.0-1.0-0.0-0.49","894","","j","","","","","","","","","","","","","key","j","16.684694214876018","960","536","j","true","img/S_ambi40.png","三角","word_first",""
"","","","","","html-keyboard-response","308","861716","0.0-13.0-1.0-1.0-0.0-1.49","null","<span style='color:GreenYellow; font-size: 70px;'>正确! </span>","null","","","","","","","","","","","","","","","","","","","","","","","feedback_test"
"","","","","","psychophysics","309","863426","0.0-13.0-1.0-1.0-0.0-0.50","558","","f","","","","","","","","","","","","","key","f","16.68622772277236","960","536","f","true","img/S_ambi40.png","方形","word_first",""
"","","","","","html-keyboard-response","310","863743","0.0-13.0-1.0-1.0-0.0-1.50","null","<span style='color:GreenYellow; font-size: 70px;'>正确! </span>","null","","","","","","","","","","","","","","","","","","","","","","","feedback_test"
"","","","","","psychophysics","311","865511","0.0-13.0-1.0-1.0-0.0-0.51","612","","j","","","","","","","","","","","","","key","j","16.686352380952755","960","536","f","false","img/C_ambi40.png","圆形","word_first",""
"","","","","","html-keyboard-response","312","865822","0.0-13.0-1.0-1.0-0.0-1.51","null","<span style='color:red; font-size: 70px;'>错误! </span>","null","","","","","","","","","","","","","","","","","","","","","","","feedback_test"
"","","","","","psychophysics","313","867718","0.0-13.0-1.0-1.0-0.0-0.52","744","","j","","","","","","","","","","","","","key","j","16.685982142857807","960","536","j","true","img/T_ambi40.png","圆形","word_first",""
"","","","","","html-keyboard-response","314","868021","0.0-13.0-1.0-1.0-0.0-1.52","null","<span style='color:GreenYellow; font-size: 70px;'>正确! </span>","null","","","","","","","","","","","","","","","","","","","","","","","feedback_test"
"","","","","","psychophysics","315","869970","0.0-13.0-1.0-1.0-0.0-0.53","797","","j","","","","","","","","","","","","","key","j","16.68556521739102","960","536","j","true","img/T_ambi40.png","方形","word_first",""
"","","","","","html-keyboard-response","316","870283","0.0-13.0-1.0-1.0-0.0-1.53","null","<span style='color:GreenYellow; font-size: 70px;'>正确! </span>","null","","","","","","","","","","","","","","","","","","","","","","","feedback_test"
"","","","","","psychophysics","317","871972","0.0-13.0-1.0-1.0-0.0-0.54","529","","f","","","","","","","","","","","","","key","f","16.687219999999506","960","536","f","true","img/T_ambi40.png","三角","word_first",""
"","","","","","html-keyboard-response","318","872285","0.0-13.0-1.0-1.0-0.0-1.54","null","<span style='color:GreenYellow; font-size: 70px;'>正确! </span>","null","","","","","","","","","","","","","","","","","","","","","","","feedback_test"
"","","","","","psychophysics","319","874587","0.0-13.0-1.0-1.0-0.0-0.55","1151","","f","","","","","","","","","","","","","key","f","16.68622794117597","960","536","f","true","img/T_ambi40.png","三角","word_first",""
"","","","","","html-keyboard-response","320","874900","0.0-13.0-1.0-1.0-0.0-1.55","null","<span style='color:GreenYellow; font-size: 70px;'>正确! </span>","null","","","","","","","","","","","","","","","","","","","","","","","feedback_test"
"","","","","","psychophysics","321","876642","0.0-13.0-1.0-1.0-0.0-0.56","589","","f","","","","","","","","","","","","","key","f","16.68652427184409","960","536","f","true","img/C_ambi40.png","圆形","word_first",""
"","","","","","html-keyboard-response","322","876945","0.0-13.0-1.0-1.0-0.0-1.56","null","<span style='color:GreenYellow; font-size: 70px;'>正确! </span>","null","","","","","","","","","","","","","","","","","","","","","","","feedback_test"
"","","","","","psychophysics","323","878610","0.0-13.0-1.0-1.0-0.0-0.57","508","","j","","","","","","","","","","","","","key","j","16.68593939393994","960","536","j","true","img/C_ambi40.png","方形","word_first",""
"","","","","","html-keyboard-response","324","878921","0.0-13.0-1.0-1.0-0.0-1.57","null","<span style='color:GreenYellow; font-size: 70px;'>正确! </span>","null","","","","","","","","","","","","","","","","","","","","","","","feedback_test"
"","","","","","psychophysics","325","880562","0.0-13.0-1.0-1.0-0.0-0.58","487","","f","","","","","","","","","","","","","key","f","17.216340425532024","960","536","f","true","img/S_ambi40.png","方形","word_first",""
"","","","","","html-keyboard-response","326","880884","0.0-13.0-1.0-1.0-0.0-1.58","null","<span style='color:GreenYellow; font-size: 70px;'>正确! </span>","null","","","","","","","","","","","","","","","","","","","","","","","feedback_test"
"","","","","","psychophysics","327","882761","0.0-13.0-1.0-1.0-0.0-0.59","724","","j","","","","","","","","","","","","","key","j","16.684553571427905","960","536","j","true","img/C_ambi40.png","三角","word_first",""
"","","","","","html-keyboard-response","328","883083","0.0-13.0-1.0-1.0-0.0-1.59","null","<span style='color:GreenYellow; font-size: 70px;'>正确! </span>","null","","","","","","","","","","","","","","","","","","","","","","","feedback_test"
"","","","","","html-keyboard-response","329","887684","0.0-13.0-1.0-1.0-1.0","4598","<style>.context{color:white; font-size: 35px; line-height:40px}</style>                            <div><p class='context'>您正确回答了80% 的试次。</p><p class='context'>您的平均反应时为623毫秒。</p><p class='context'>请按任意键进入休息</p></div>"," ","","","","","","","","","","","","","","","","","","","","","","",""
"","","","","","html-button-response","330","956434","0.0-13.0-1.0-1.0-2.0","68743","
                    <p>您当前还剩余3组实验</p>
                    <p>现在是休息时间，当您结束休息后，您可以点击 结束休息 按钮 继续</p>
                    <p>建议休息时间还剩余<span id=""iii"">60</span>秒</p>","0","","","","","","","","","","","","","","","","","","","","","","",""
"","","","","","psychophysics","331","958266","0.0-13.0-1.0-1.0-0.1-0.60","678","","f","","","","","","","","","","","","","key","f","16.685240740740145","960","536","f","true","img/C_ambi40.png","圆形","word_first",""
"","","","","","html-keyboard-response","332","958585","0.0-13.0-1.0-1.0-0.1-1.60","null","<span style='color:GreenYellow; font-size: 70px;'>正确! </span>","null","","","","","","","","","","","","","","","","","","","","","","","feedback_test"
"","","","","","psychophysics","333","960317","0.0-13.0-1.0-1.0-0.1-0.61","575","","f","","","","","","","","","","","","","key","f","16.685262135922844","960","536","f","true","img/T_ambi40.png","三角","word_first",""
"","","","","","html-keyboard-response","334","960632","0.0-13.0-1.0-1.0-0.1-1.61","null","<span style='color:GreenYellow; font-size: 70px;'>正确! </span>","null","","","","","","","","","","","","","","","","","","","","","","","feedback_test"
"","","","","","psychophysics","335","962242","0.0-13.0-1.0-1.0-0.1-0.62","454","","f","","","","","","","","","","","","","key","f","16.685684210526464","960","536","f","true","img/C_ambi40.png","圆形","word_first",""
"","","","","","html-keyboard-response","336","962555","0.0-13.0-1.0-1.0-0.1-1.62","null","<span style='color:GreenYellow; font-size: 70px;'>正确! </span>","null","","","","","","","","","","","","","","","","","","","","","","","feedback_test"
"","","","","","psychophysics","337","964292","0.0-13.0-1.0-1.0-0.1-0.63","583","","f","","","","","","","","","","","","","key","f","16.68487378640792","960","536","f","true","img/T_ambi40.png","三角","word_first",""
"","","","","","html-keyboard-response","338","964611","0.0-13.0-1.0-1.0-0.1-1.63","null","<span style='color:GreenYellow; font-size: 70px;'>正确! </span>","null","","","","","","","","","","","","","","","","","","","","","","","feedback_test"
"","","","","","psychophysics","339","966406","0.0-13.0-1.0-1.0-0.1-0.64","642","","j","","","","","","","","","","","","","key","j","16.560084905660982","960","536","j","true","img/C_ambi40.png","三角","word_first",""
"","","","","","html-keyboard-response","340","966719","0.0-13.0-1.0-1.0-0.1-1.64","null","<span style='color:GreenYellow; font-size: 70px;'>正确! </span>","null","","","","","","","","","","","","","","","","","","","","","","","feedback_test"
"","","","","","psychophysics","341","968524","0.0-13.0-1.0-1.0-0.1-0.65","653","","j","","","","","","","","","","","","","key","j","16.68471028037352","960","536","j","true","img/T_ambi40.png","方形","word_first",""
"","","","","","html-keyboard-response","342","968839","0.0-13.0-1.0-1.0-0.1-1.65","null","<span style='color:GreenYellow; font-size: 70px;'>正确! </span>","null","","","","","","","","","","","","","","","","","","","","","","","feedback_test"
"","","","","","psychophysics","343","970706","0.0-13.0-1.0-1.0-0.1-0.66","710","","j","","","","","","","","","","","","","key","j","16.99232110091797","960","536","j","true","img/T_ambi40.png","圆形","word_first",""
"","","","","","html-keyboard-response","344","971019","0.0-13.0-1.0-1.0-0.1-1.66","null","<span style='color:GreenYellow; font-size: 70px;'>正确! </span>","null","","","","","","","","","","","","","","","","","","","","","","","feedback_test"
"","","","","","psychophysics","345","972826","0.0-13.0-1.0-1.0-0.1-0.67","655","","j","","","","","","","","","","","","","key","j","16.68430188679211","960","536","j","true","img/C_ambi40.png","方形","word_first",""
"","","","","","html-keyboard-response","346","973136","0.0-13.0-1.0-1.0-0.1-1.67","null","<span style='color:GreenYellow; font-size: 70px;'>正确! </span>","null","","","","","","","","","","","","","","","","","","","","","","","feedback_test"
"","","","","","psychophysics","347","974804","0.0-13.0-1.0-1.0-0.1-0.68","513","","f","","","","","","","","","","","","","key","f","16.685787878788283","960","536","f","true","img/S_ambi40.png","方形","word_first",""
"","","","","","html-keyboard-response","348","975109","0.0-13.0-1.0-1.0-0.1-1.68","null","<span style='color:GreenYellow; font-size: 70px;'>正确! </span>","null","","","","","","","","","","","","","","","","","","","","","","","feedback_test"
"","","","","","psychophysics","349","976823","0.0-13.0-1.0-1.0-0.1-0.69","562","","j","","","","","","","","","","","","","key","j","16.684089108910825","960","536","j","true","img/S_ambi40.png","三角","word_first",""
"","","","","","html-keyboard-response","350","977135","0.0-13.0-1.0-1.0-0.1-1.69","null","<span style='color:GreenYellow; font-size: 70px;'>正确! </span>","null","","","","","","","","","","","","","","","","","","","","","","","feedback_test"
"","","","","","psychophysics","351","978788","0.0-13.0-1.0-1.0-0.1-0.70","494","","f","","","","","","","","","","","","","key","f","16.68605102040824","960","536","f","true","img/S_ambi40.png","方形","word_first",""
"","","","","","html-keyboard-response","352","979100","0.0-13.0-1.0-1.0-0.1-1.70","null","<span style='color:GreenYellow; font-size: 70px;'>正确! </span>","null","","","","","","","","","","","","","","","","","","","","","","","feedback_test"
"","","","","","psychophysics","353","980770","0.0-13.0-1.0-1.0-0.1-0.71","517","","j","","","","","","","","","","","","","key","j","16.686000000001073","960","536","j","true","img/S_ambi40.png","圆形","word_first",""
"","","","","","html-keyboard-response","354","981077","0.0-13.0-1.0-1.0-0.1-1.71","null","<span style='color:GreenYellow; font-size: 70px;'>正确! </span>","null","","","","","","","","","","","","","","","","","","","","","","","feedback_test"
"","","","","","psychophysics","355","982863","0.0-13.0-1.0-1.0-0.1-0.72","631","","j","","","","","","","","","","","","","key","j","16.689066037736648","960","536","j","true","img/T_ambi40.png","圆形","word_first",""
"","","","","","html-keyboard-response","356","983184","0.0-13.0-1.0-1.0-0.1-1.72","null","<span style='color:GreenYellow; font-size: 70px;'>正确! </span>","null","","","","","","","","","","","","","","","","","","","","","","","feedback_test"
"","","","","","psychophysics","357","984978","0.0-13.0-1.0-1.0-0.1-0.73","642","","j","","","","","","","","","","","","","key","j","16.68590566037741","960","536","j","true","img/C_ambi40.png","方形","word_first",""
"","","","","","html-keyboard-response","358","985289","0.0-13.0-1.0-1.0-0.1-1.73","null","<span style='color:GreenYellow; font-size: 70px;'>正确! </span>","null","","","","","","","","","","","","","","","","","","","","","","","feedback_test"
"","","","","","psychophysics","359","987156","0.0-13.0-1.0-1.0-0.1-0.74","712","","f","","","","","","","","","","","","","key","f","16.68545945945955","960","536","f","true","img/C_ambi40.png","圆形","word_first",""
"","","","","","html-keyboard-response","360","987461","0.0-13.0-1.0-1.0-0.1-1.74","null","<span style='color:GreenYellow; font-size: 70px;'>正确! </span>","null","","","","","","","","","","","","","","","","","","","","","","","feedback_test"
"","","","","","psychophysics","361","989187","0.0-13.0-1.0-1.0-0.1-0.75","565","","j","","","","","","","","","","","","","key","j","16.685088235293698","960","536","j","true","img/S_ambi40.png","三角","word_first",""
"","","","","","html-keyboard-response","362","989499","0.0-13.0-1.0-1.0-0.1-1.75","null","<span style='color:GreenYellow; font-size: 70px;'>正确! </span>","null","","","","","","","","","","","","","","","","","","","","","","","feedback_test"
"","","","","","psychophysics","363","991206","0.0-13.0-1.0-1.0-0.1-0.76","554","","f","","","","","","","","","","","","","key","f","16.686089108910153","960","536","f","true","img/T_ambi40.png","三角","word_first",""
"","","","","","html-keyboard-response","364","991521","0.0-13.0-1.0-1.0-0.1-1.76","null","<span style='color:GreenYellow; font-size: 70px;'>正确! </span>","null","","","","","","","","","","","","","","","","","","","","","","","feedback_test"
"","","","","","psychophysics","365","993164","0.0-13.0-1.0-1.0-0.1-0.77","487","","f","","","","","","","","","","","","","key","f","16.685520408163086","960","536","f","true","img/T_ambi40.png","三角","word_first",""
"","","","","","html-keyboard-response","366","993478","0.0-13.0-1.0-1.0-0.1-1.77","null","<span style='color:GreenYellow; font-size: 70px;'>正确! </span>","null","","","","","","","","","","","","","","","","","","","","","","","feedback_test"
"","","","","","psychophysics","367","995150","0.0-13.0-1.0-1.0-0.1-0.78","516","","j","","","","","","","","","","","","","key","j","16.683051020408296","960","536","f","false","img/S_ambi40.png","方形","word_first",""
"","","","","","html-keyboard-response","368","995459","0.0-13.0-1.0-1.0-0.1-1.78","null","<span style='color:red; font-size: 70px;'>错误! </span>","null","","","","","","","","","","","","","","","","","","","","","","","feedback_test"
"","","","","","psychophysics","369","997106","0.0-13.0-1.0-1.0-0.1-0.79","491","","f","","","","","","","","","","","","","key","f","16.685755102041092","960","536","f","true","img/S_ambi40.png","方形","word_first",""
"","","","","","html-keyboard-response","370","997418","0.0-13.0-1.0-1.0-0.1-1.79","null","<span style='color:GreenYellow; font-size: 70px;'>正确! </span>","null","","","","","","","","","","","","","","","","","","","","","","","feedback_test"
"","","","","","psychophysics","371","999238","0.0-13.0-1.0-1.0-0.1-0.80","667","","j","","","","","","","","","","","","","key","j","16.680749999999534","960","536","j","true","img/C_ambi40.png","三角","word_first",""
"","","","","","html-keyboard-response","372","999556","0.0-13.0-1.0-1.0-0.1-1.80","null","<span style='color:GreenYellow; font-size: 70px;'>正确! </span>","null","","","","","","","","","","","","","","","","","","","","","","","feedback_test"
"","","","","","psychophysics","373","1001322","0.0-13.0-1.0-1.0-0.1-0.81","613","","j","","","","","","","","","","","","","key","j","16.685875000000053","960","536","j","true","img/S_ambi40.png","圆形","word_first",""
"","","","","","html-keyboard-response","374","1001634","0.0-13.0-1.0-1.0-0.1-1.81","null","<span style='color:GreenYellow; font-size: 70px;'>正确! </span>","null","","","","","","","","","","","","","","","","","","","","","","","feedback_test"
"","","","","","psychophysics","375","1003299","0.0-13.0-1.0-1.0-0.1-0.82","511","","f","","","","","","","","","","","","","key","f","16.686404040404312","960","536","f","true","img/C_ambi40.png","圆形","word_first",""
"","","","","","html-keyboard-response","376","1003617","0.0-13.0-1.0-1.0-0.1-1.82","null","<span style='color:GreenYellow; font-size: 70px;'>正确! </span>","null","","","","","","","","","","","","","","","","","","","","","","","feedback_test"
"","","","","","psychophysics","377","1005427","0.0-13.0-1.0-1.0-0.1-0.83","655","","j","","","","","","","","","","","","","key","j","16.68768224299115","960","536","j","true","img/T_ambi40.png","方形","word_first",""
"","","","","","html-keyboard-response","378","1005748","0.0-13.0-1.0-1.0-0.1-1.83","null","<span style='color:GreenYellow; font-size: 70px;'>正确! </span>","null","","","","","","","","","","","","","","","","","","","","","","","feedback_test"
"","","","","","psychophysics","379","1007809","0.0-13.0-1.0-1.0-0.1-0.84","910","","j","","","","","","","","","","","","","key","j","16.684442622950645","960","536","j","true","img/T_ambi40.png","方形","word_first",""
"","","","","","html-keyboard-response","380","1008118","0.0-13.0-1.0-1.0-0.1-1.84","null","<span style='color:GreenYellow; font-size: 70px;'>正确! </span>","null","","","","","","","","","","","","","","","","","","","","","","","feedback_test"
"","","","","","psychophysics","381","1009787","0.0-13.0-1.0-1.0-0.1-0.85","510","","f","","","","","","","","","","","","","key","f","16.68670707070645","960","536","f","true","img/T_ambi40.png","三角","word_first",""
"","","","","","html-keyboard-response","382","1010099","0.0-13.0-1.0-1.0-0.1-1.85","null","<span style='color:GreenYellow; font-size: 70px;'>正确! </span>","null","","","","","","","","","","","","","","","","","","","","","","","feedback_test"
"","","","","","psychophysics","383","1011754","0.0-13.0-1.0-1.0-0.1-0.86","503","","j","","","","","","","","","","","","","key","j","16.685581632653413","960","536","j","true","img/T_ambi40.png","圆形","word_first",""
"","","","","","html-keyboard-response","384","1012068","0.0-13.0-1.0-1.0-0.1-1.86","null","<span style='color:GreenYellow; font-size: 70px;'>正确! </span>","null","","","","","","","","","","","","","","","","","","","","","","","feedback_test"
"","","","","","psychophysics","385","1013795","0.0-13.0-1.0-1.0-0.1-0.87","575","","j","","","","","","","","","","","","","key","j","16.684745098039617","960","536","f","false","img/S_ambi40.png","方形","word_first",""
"","","","","","html-keyboard-response","386","1014100","0.0-13.0-1.0-1.0-0.1-1.87","null","<span style='color:red; font-size: 70px;'>错误! </span>","null","","","","","","","","","","","","","","","","","","","","","","","feedback_test"
"","","","","","psychophysics","387","1015743","0.0-13.0-1.0-1.0-0.1-0.88","487","","f","","","","","","","","","","","","","key","f","16.685443298969197","960","536","f","true","img/C_ambi40.png","圆形","word_first",""
"","","","","","html-keyboard-response","388","1016067","0.0-13.0-1.0-1.0-0.1-1.88","null","<span style='color:GreenYellow; font-size: 70px;'>正确! </span>","null","","","","","","","","","","","","","","","","","","","","","","","feedback_test"
"","","","","","psychophysics","389","1018084","0.0-13.0-1.0-1.0-0.1-0.89","863","","f","","","","","","","","","","","","","key","f","16.68686666666666","960","536","f","true","img/S_ambi40.png","方形","word_first",""
"","","","","","html-keyboard-response","390","1018404","0.0-13.0-1.0-1.0-0.1-1.89","null","<span style='color:GreenYellow; font-size: 70px;'>正确! </span>","null","","","","","","","","","","","","","","","","","","","","","","","feedback_test"
"","","","","","psychophysics","391","1020155","0.0-13.0-1.0-1.0-0.1-0.90","598","","j","","","","","","","","","","","","","key","j","16.6866504854378","960","536","j","true","img/C_ambi40.png","三角","word_first",""
"","","","","","html-keyboard-response","392","1020469","0.0-13.0-1.0-1.0-0.1-1.90","null","<span style='color:GreenYellow; font-size: 70px;'>正确! </span>","null","","","","","","","","","","","","","","","","","","","","","","","feedback_test"
"","","","","","psychophysics","393","1022232","0.0-13.0-1.0-1.0-0.1-0.91","607","","f","","","","","","","","","","","","","key","f","16.84650000000077","960","536","j","false","img/S_ambi40.png","三角","word_first",""
"","","","","","html-keyboard-response","394","1022545","0.0-13.0-1.0-1.0-0.1-1.91","null","<span style='color:red; font-size: 70px;'>错误! </span>","null","","","","","","","","","","","","","","","","","","","","","","","feedback_test"
"","","","","","psychophysics","395","1024394","0.0-13.0-1.0-1.0-0.1-0.92","696","","j","","","","","","","","","","","","","key","j","16.685651376147096","960","536","j","true","img/S_ambi40.png","圆形","word_first",""
"","","","","","html-keyboard-response","396","1024707","0.0-13.0-1.0-1.0-0.1-1.92","null","<span style='color:GreenYellow; font-size: 70px;'>正确! </span>","null","","","","","","","","","","","","","","","","","","","","","","","feedback_test"
"","","","","","psychophysics","397","1026430","0.0-13.0-1.0-1.0-0.1-0.93","570","","f","","","","","","","","","","","","","key","f","16.685705882353325","960","536","f","true","img/T_ambi40.png","三角","word_first",""
"","","","","","html-keyboard-response","398","1026755","0.0-13.0-1.0-1.0-0.1-1.93","null","<span style='color:GreenYellow; font-size: 70px;'>正确! </span>","null","","","","","","","","","","","","","","","","","","","","","","","feedback_test"
"","","","","","psychophysics","399","1028516","0.0-13.0-1.0-1.0-0.1-0.94","605","","f","","","","","","","","","","","","","key","f","16.685663461537423","960","536","f","true","img/C_ambi40.png","圆形","word_first",""
"","","","","","html-keyboard-response","400","1028832","0.0-13.0-1.0-1.0-0.1-1.94","null","<span style='color:GreenYellow; font-size: 70px;'>正确! </span>","null","","","","","","","","","","","","","","","","","","","","","","","feedback_test"
"","","","","","psychophysics","401","1030794","0.0-13.0-1.0-1.0-0.1-0.95","810","","f","","","","","","","","","","","","","key","f","16.68595689655169","960","536","j","false","img/C_ambi40.png","方形","word_first",""
"","","","","","html-keyboard-response","402","1031102","0.0-13.0-1.0-1.0-0.1-1.95","null","<span style='color:red; font-size: 70px;'>错误! </span>","null","","","","","","","","","","","","","","","","","","","","","","","feedback_test"
"","","","","","psychophysics","403","1032894","0.0-13.0-1.0-1.0-0.1-0.96","640","","j","","","","","","","","","","","","","key","j","16.68328301886861","960","536","j","true","img/C_ambi40.png","方形","word_first",""
"","","","","","html-keyboard-response","404","1033206","0.0-13.0-1.0-1.0-0.1-1.96","null","<span style='color:GreenYellow; font-size: 70px;'>正确! </span>","null","","","","","","","","","","","","","","","","","","","","","","","feedback_test"
"","","","","","psychophysics","405","1034879","0.0-13.0-1.0-1.0-0.1-0.97","514","","f","","","","","","","","","","","","","key","f","16.684848484848956","960","536","f","true","img/T_ambi40.png","三角","word_first",""
"","","","","","html-keyboard-response","406","1035203","0.0-13.0-1.0-1.0-0.1-1.97","null","<span style='color:GreenYellow; font-size: 70px;'>正确! </span>","null","","","","","","","","","","","","","","","","","","","","","","","feedback_test"
"","","","","","psychophysics","407","1037015","0.0-13.0-1.0-1.0-0.1-0.98","657","","j","","","","","","","","","","","","","key","j","16.684935185185168","960","536","j","true","img/S_ambi40.png","圆形","word_first",""
"","","","","","html-keyboard-response","408","1037336","0.0-13.0-1.0-1.0-0.1-1.98","null","<span style='color:GreenYellow; font-size: 70px;'>正确! </span>","null","","","","","","","","","","","","","","","","","","","","","","","feedback_test"
"","","","","","psychophysics","409","1039220","0.0-13.0-1.0-1.0-0.1-0.99","726","","j","","","","","","","","","","","","","key","j","16.684267857142135","960","536","f","false","img/S_ambi40.png","方形","word_first",""
"","","","","","html-keyboard-response","410","1039534","0.0-13.0-1.0-1.0-0.1-1.99","null","<span style='color:red; font-size: 70px;'>错误! </span>","null","","","","","","","","","","","","","","","","","","","","","","","feedback_test"
"","","","","","psychophysics","411","1041155","0.0-13.0-1.0-1.0-0.1-0.100","462","","j","","","","","","","","","","","","","key","j","16.68584374999894","960","536","f","false","img/C_ambi40.png","圆形","word_first",""
"","","","","","html-keyboard-response","412","1041469","0.0-13.0-1.0-1.0-0.1-1.100","null","<span style='color:red; font-size: 70px;'>错误! </span>","null","","","","","","","","","","","","","","","","","","","","","","","feedback_test"
"","","","","","psychophysics","413","1043340","0.0-13.0-1.0-1.0-0.1-0.101","711","","j","","","","","","","","","","","","","key","j","16.686117117116982","960","536","j","true","img/C_ambi40.png","三角","word_first",""
"","","","","","html-keyboard-response","414","1043645","0.0-13.0-1.0-1.0-0.1-1.101","null","<span style='color:GreenYellow; font-size: 70px;'>正确! </span>","null","","","","","","","","","","","","","","","","","","","","","","","feedback_test"
"","","","","","psychophysics","415","1045448","0.0-13.0-1.0-1.0-0.1-0.102","647","","j","","","","","","","","","","","","","key","j","16.68592523364459","960","536","j","true","img/T_ambi40.png","方形","word_first",""
"","","","","","html-keyboard-response","416","1045768","0.0-13.0-1.0-1.0-0.1-1.102","null","<span style='color:GreenYellow; font-size: 70px;'>正确! </span>","null","","","","","","","","","","","","","","","","","","","","","","","feedback_test"
"","","","","","psychophysics","417","1047362","0.0-13.0-1.0-1.0-0.1-0.103","442","","f","","","","","","","","","","","","","key","f","16.685223404254934","960","536","f","true","img/C_ambi40.png","圆形","word_first",""
"","","","","","html-keyboard-response","418","1047672","0.0-13.0-1.0-1.0-0.1-1.103","null","<span style='color:GreenYellow; font-size: 70px;'>正确! </span>","null","","","","","","","","","","","","","","","","","","","","","","","feedback_test"
"","","","","","psychophysics","419","1049328","0.0-13.0-1.0-1.0-0.1-0.104","503","","j","","","","","","","","","","","","","key","j","16.684948979591837","960","536","f","false","img/T_ambi40.png","三角","word_first",""
"","","","","","html-keyboard-response","420","1049641","0.0-13.0-1.0-1.0-0.1-1.104","null","<span style='color:red; font-size: 70px;'>错误! </span>","null","","","","","","","","","","","","","","","","","","","","","","","feedback_test"
"","","","","","psychophysics","421","1051556","0.0-13.0-1.0-1.0-0.1-0.105","761","","f","","","","","","","","","","","","","key","f","16.684504424778133","960","536","f","true","img/S_ambi40.png","方形","word_first",""
"","","","","","html-keyboard-response","422","1051874","0.0-13.0-1.0-1.0-0.1-1.105","null","<span style='color:GreenYellow; font-size: 70px;'>正确! </span>","null","","","","","","","","","","","","","","","","","","","","","","","feedback_test"
"","","","","","psychophysics","423","1053706","0.0-13.0-1.0-1.0-0.1-0.106","679","","j","","","","","","","","","","","","","key","j","16.555462962962878","960","536","j","true","img/S_ambi40.png","三角","word_first",""
"","","","","","html-keyboard-response","424","1054012","0.0-13.0-1.0-1.0-0.1-1.106","null","<span style='color:GreenYellow; font-size: 70px;'>正确! </span>","null","","","","","","","","","","","","","","","","","","","","","","","feedback_test"
"","","","","","psychophysics","425","1055853","0.0-13.0-1.0-1.0-0.1-0.107","689","","f","","","","","","","","","","","","","key","f","16.68369724770683","960","536","j","false","img/T_ambi40.png","圆形","word_first",""
"","","","","","html-keyboard-response","426","1056165","0.0-13.0-1.0-1.0-0.1-1.107","null","<span style='color:red; font-size: 70px;'>错误! </span>","null","","","","","","","","","","","","","","","","","","","","","","","feedback_test"
"","","","","","psychophysics","427","1058055","0.0-13.0-1.0-1.0-0.1-0.108","738","","j","","","","","","","","","","","","","key","j","16.685437499998702","960","536","j","true","img/S_ambi40.png","圆形","word_first",""
"","","","","","html-keyboard-response","428","1058368","0.0-13.0-1.0-1.0-0.1-1.108","null","<span style='color:GreenYellow; font-size: 70px;'>正确! </span>","null","","","","","","","","","","","","","","","","","","","","","","","feedback_test"
"","","","","","psychophysics","429","1060301","0.0-13.0-1.0-1.0-0.1-0.109","780","","j","","","","","","","","","","","","","key","j","16.68621052631479","960","536","j","true","img/T_ambi40.png","方形","word_first",""
"","","","","","html-keyboard-response","430","1060617","0.0-13.0-1.0-1.0-0.1-1.109","null","<span style='color:GreenYellow; font-size: 70px;'>正确! </span>","null","","","","","","","","","","","","","","","","","","","","","","","feedback_test"
"","","","","","psychophysics","431","1062361","0.0-13.0-1.0-1.0-0.1-0.110","591","","f","","","","","","","","","","","","","key","f","16.55907766990255","960","536","j","false","img/T_ambi40.png","圆形","word_first",""
"","","","","","html-keyboard-response","432","1062683","0.0-13.0-1.0-1.0-0.1-1.110","null","<span style='color:red; font-size: 70px;'>错误! </span>","null","","","","","","","","","","","","","","","","","","","","","","","feedback_test"
