"success","timeout","failed_images","failed_audio","failed_video","trial_type","trial_index","time_elapsed","internal_node_id","rt","stimulus","response","value","item_width_mm","item_height_mm","item_width_px","px2mm","view_dist_mm","item_width_deg","px2deg","scale_factor","win_width_deg","win_height_deg","view_history","response_type","key_press","avg_frame_time","center_x","center_y","correct_response","correct","Image","word","condition","screen_id"
"true","false","[]","[]","[]","preload","0","6230","0.0-0.0","","","","","","","","","","","","","","","","","","","","","","","","","",""
"","","","","","html-keyboard-response","1","17866","0.0-1.0","11635","
   <p>您好，欢迎参加本次实验。</p>
   <p>为充分保障您的权利，请确保您已经知晓并同意《参与实验同意书》以及《数据公开知情同意书》。</p>
   <p>如果您未见过上述内容，请咨询实验员。</p>
   <p>如果您选择继续实验，则表示您已经清楚两份知情同意书的内容并同意。</p>
   <p> <div style = ""color: green""><按任意键至下页></div> </p>
   "," ","","","","","","","","","","","","","","","","","","","","","","",""
"","","","","","html-keyboard-response","2","19521","0.0-2.0","1654","
   <p>本实验首先需要您填写一些基本个人信息。</p>
   <p> <div style = ""color: green""><按任意键至下页></div></p>
   "," ","","","","","","","","","","","","","","","","","","","","","","",""
"","","","","","call-function","3","19523","0.0-3.0-0.0","","","","","","","","","","","","","","","","","","","","","","","","","",""
"","","","","","survey-html-form","4","27542","0.0-3.0-1.0","8007","","{""Q0"":""25""}","","","","","","","","","","","","","","","","","","","","","","",""
"","","","","","html-button-response","5","28938","0.0-3.0-2.0","1392","<p style = 'color : white'>您的性别</p>","1","","","","","","","","","","","","","","","","","","","","","","",""
"","","","","","survey-html-form","6","35159","0.0-3.0-3.0","6219","","{""Q0"":""2000""}","","","","","","","","","","","","","","","","","","","","","","",""
"","","","","","survey-html-form","7","38198","0.0-3.0-4.0","3038","","{""Q0"":""5""}","","","","","","","","","","","","","","","","","","","","","","",""
"","","","","","virtual-chinrest","8","307927","0.0-4.0","269726","","","","85.6","53.98","410.35669698773364","4.798706729801913","596.57","8.207133939754673","50","0.8919069743144473","25.6","12.18","","","","","","","","","","","",""
"true","","","","","fullscreen","9","311468","0.0-5.0","","","","","","","","","","","","","","","","","","","","","","","","","",""
"","","","","","instructions","10","373142","0.0-6.0","61673","","","","","","","","","","","","","","[{""page_index"":0,""viewing_time"":5465},{""page_index"":1,""viewing_time"":35984},{""page_index"":2,""viewing_time"":17552},{""page_index"":3,""viewing_time"":2672}]","","","","","","","","","","",""
"","","","","","psychophysics","11","375819","0.0-7.0-0.0-0.0","null","","null","","","","","","","","","","","","","key","null","16.669503144654094","640","356","f","false","img/S_ambi40.png","圆形","prac_image_first",""
"","","","","","html-keyboard-response","12","376136","0.0-7.0-0.0-1.0","null","<span class='add_' style='color:yellow; font-size: 70px;'> 太慢! </span>","null","","","","","","","","","","","","","","","","","","","","","","","feedback_test"
"","","","","","psychophysics","13","378800","0.0-7.0-0.0-0.1","null","","null","","","","","","","","","","","","","key","null","16.66890506329136","640","356","j","false","img/T_ambi40.png","三角","prac_image_first",""
"","","","","","html-keyboard-response","14","379117","0.0-7.0-0.0-1.1","null","<span class='add_' style='color:yellow; font-size: 70px;'> 太慢! </span>","null","","","","","","","","","","","","","","","","","","","","","","","feedback_test"
"","","","","","psychophysics","15","381779","0.0-7.0-0.0-0.2","null","","null","","","","","","","","","","","","","key","null","16.668635220125935","640","356","j","false","img/C_ambi40.png","圆形","prac_image_first",""
"","","","","","html-keyboard-response","16","382090","0.0-7.0-0.0-1.2","null","<span class='add_' style='color:yellow; font-size: 70px;'> 太慢! </span>","null","","","","","","","","","","","","","","","","","","","","","","","feedback_test"
"","","","","","psychophysics","17","383754","0.0-7.0-0.0-0.3","506","","j","","","","","","","","","","","","","key","j","16.66862244897983","640","356","f","false","img/T_ambi40.png","方形","prac_image_first",""
"","","","","","html-keyboard-response","18","384068","0.0-7.0-0.0-1.3","null","<span style='color:red; font-size: 70px;'>错误! </span>","null","","","","","","","","","","","","","","","","","","","","","","","feedback_test"
"","","","","","psychophysics","19","386400","0.0-7.0-0.0-0.4","1180","","j","","","","","","","","","","","","","key","j","16.669194244604185","640","356","f","false","img/C_ambi40.png","三角","prac_image_first",""
"","","","","","html-keyboard-response","20","386717","0.0-7.0-0.0-1.4","null","<span style='color:red; font-size: 70px;'>错误! </span>","null","","","","","","","","","","","","","","","","","","","","","","","feedback_test"
"","","","","","psychophysics","21","389384","0.0-7.0-0.0-0.5","null","","null","","","","","","","","","","","","","key","null","16.669333333333327","640","356","j","false","img/S_ambi40.png","方形","prac_image_first",""
"","","","","","html-keyboard-response","22","389693","0.0-7.0-0.0-1.5","null","<span class='add_' style='color:yellow; font-size: 70px;'> 太慢! </span>","null","","","","","","","","","","","","","","","","","","","","","","","feedback_test"
"","","","","","psychophysics","23","391703","0.0-7.0-0.0-0.6","855","","f","","","","","","","","","","","","","key","f","16.669697478991747","640","356","f","true","img/S_ambi40.png","三角","prac_image_first",""
"","","","","","html-keyboard-response","24","392010","0.0-7.0-0.0-1.6","null","<span style='color:GreenYellow; font-size: 70px;'>正确! </span>","null","","","","","","","","","","","","","","","","","","","","","","","feedback_test"
"","","","","","psychophysics","25","394357","0.0-7.0-0.0-0.7","1190","","j","","","","","","","","","","","","","key","j","16.669435714285438","640","356","j","true","img/S_ambi40.png","方形","prac_image_first",""
"","","","","","html-keyboard-response","26","394674","0.0-7.0-0.0-1.7","null","<span style='color:GreenYellow; font-size: 70px;'>正确! </span>","null","","","","","","","","","","","","","","","","","","","","","","","feedback_test"
"","","","","","psychophysics","27","396636","0.0-7.0-0.0-0.8","804","","f","","","","","","","","","","","","","key","f","16.66921551724101","640","356","f","true","img/T_ambi40.png","圆形","prac_image_first",""
"","","","","","html-keyboard-response","28","396953","0.0-7.0-0.0-1.8","null","<span style='color:GreenYellow; font-size: 70px;'>正确! </span>","null","","","","","","","","","","","","","","","","","","","","","","","feedback_test"
"","","","","","psychophysics","29","398852","0.0-7.0-0.0-0.9","747","","f","","","","","","","","","","","","","key","f","16.669185840708113","640","356","f","true","img/C_ambi40.png","方形","prac_image_first",""
"","","","","","html-keyboard-response","30","399161","0.0-7.0-0.0-1.9","null","<span style='color:GreenYellow; font-size: 70px;'>正确! </span>","null","","","","","","","","","","","","","","","","","","","","","","","feedback_test"
"","","","","","psychophysics","31","401081","0.0-7.0-0.0-0.10","762","","j","","","","","","","","","","","","","key","j","16.66939473684199","640","356","j","true","img/C_ambi40.png","圆形","prac_image_first",""
"","","","","","html-keyboard-response","32","401396","0.0-7.0-0.0-1.10","null","<span style='color:GreenYellow; font-size: 70px;'>正确! </span>","null","","","","","","","","","","","","","","","","","","","","","","","feedback_test"
"","","","","","psychophysics","33","403252","0.0-7.0-0.0-0.11","701","","j","","","","","","","","","","","","","key","j","16.66901818181822","640","356","j","true","img/T_ambi40.png","三角","prac_image_first",""
"","","","","","html-keyboard-response","34","403560","0.0-7.0-0.0-1.11","null","<span style='color:GreenYellow; font-size: 70px;'>正确! </span>","null","","","","","","","","","","","","","","","","","","","","","","","feedback_test"
"","","","","","psychophysics","35","405331","0.0-7.0-0.0-0.12","611","","j","","","","","","","","","","","","","key","j","16.667533333333477","640","356","j","true","img/T_ambi40.png","三角","prac_image_first",""
"","","","","","html-keyboard-response","36","405639","0.0-7.0-0.0-1.12","null","<span style='color:GreenYellow; font-size: 70px;'>正确! </span>","null","","","","","","","","","","","","","","","","","","","","","","","feedback_test"
"","","","","","psychophysics","37","407364","0.0-7.0-0.0-0.13","573","","f","","","","","","","","","","","","","key","f","16.536911764705447","640","356","j","false","img/C_ambi40.png","圆形","prac_image_first",""
"","","","","","html-keyboard-response","38","407679","0.0-7.0-0.0-1.13","null","<span style='color:red; font-size: 70px;'>错误! </span>","null","","","","","","","","","","","","","","","","","","","","","","","feedback_test"
"","","","","","psychophysics","39","409652","0.0-7.0-0.0-0.14","822","","j","","","","","","","","","","","","","key","j","16.66955555555546","640","356","f","false","img/T_ambi40.png","圆形","prac_image_first",""
"","","","","","html-keyboard-response","40","409973","0.0-7.0-0.0-1.14","null","<span style='color:red; font-size: 70px;'>错误! </span>","null","","","","","","","","","","","","","","","","","","","","","","","feedback_test"
"","","","","","psychophysics","41","412083","0.0-7.0-0.0-0.15","959","","f","","","","","","","","","","","","","key","f","16.558376000000163","640","356","f","true","img/C_ambi40.png","方形","prac_image_first",""
"","","","","","html-keyboard-response","42","412393","0.0-7.0-0.0-1.15","null","<span style='color:GreenYellow; font-size: 70px;'>正确! </span>","null","","","","","","","","","","","","","","","","","","","","","","","feedback_test"
"","","","","","psychophysics","43","414226","0.0-7.0-0.0-0.16","675","","f","","","","","","","","","","","","","key","f","16.669587155963708","640","356","f","true","img/C_ambi40.png","三角","prac_image_first",""
"","","","","","html-keyboard-response","44","414535","0.0-7.0-0.0-1.16","null","<span style='color:GreenYellow; font-size: 70px;'>正确! </span>","null","","","","","","","","","","","","","","","","","","","","","","","feedback_test"
"","","","","","psychophysics","45","416209","0.0-7.0-0.0-0.17","523","","j","","","","","","","","","","","","","key","j","16.669590000000316","640","356","j","true","img/T_ambi40.png","三角","prac_image_first",""
"","","","","","html-keyboard-response","46","416515","0.0-7.0-0.0-1.17","null","<span style='color:GreenYellow; font-size: 70px;'>正确! </span>","null","","","","","","","","","","","","","","","","","","","","","","","feedback_test"
"","","","","","psychophysics","47","418436","0.0-7.0-0.0-0.18","765","","j","","","","","","","","","","","","","key","j","16.66935964912256","640","356","j","true","img/S_ambi40.png","方形","prac_image_first",""
"","","","","","html-keyboard-response","48","418749","0.0-7.0-0.0-1.18","null","<span style='color:GreenYellow; font-size: 70px;'>正确! </span>","null","","","","","","","","","","","","","","","","","","","","","","","feedback_test"
"","","","","","psychophysics","49","420515","0.0-7.0-0.0-0.19","612","","j","","","","","","","","","","","","","key","j","16.66987619047674","640","356","j","true","img/S_ambi40.png","方形","prac_image_first",""
"","","","","","html-keyboard-response","50","420827","0.0-7.0-0.0-1.19","null","<span style='color:GreenYellow; font-size: 70px;'>正确! </span>","null","","","","","","","","","","","","","","","","","","","","","","","feedback_test"
"","","","","","psychophysics","51","422797","0.0-7.0-0.0-0.20","814","","f","","","","","","","","","","","","","key","f","16.668316239315985","640","356","f","true","img/S_ambi40.png","三角","prac_image_first",""
"","","","","","html-keyboard-response","52","423099","0.0-7.0-0.0-1.20","null","<span style='color:GreenYellow; font-size: 70px;'>正确! </span>","null","","","","","","","","","","","","","","","","","","","","","","","feedback_test"
"","","","","","psychophysics","53","425120","0.0-7.0-0.0-0.21","865","","f","","","","","","","","","","","","","key","f","17.393565217391384","640","356","f","true","img/T_ambi40.png","方形","prac_image_first",""
"","","","","","html-keyboard-response","54","425436","0.0-7.0-0.0-1.21","null","<span style='color:GreenYellow; font-size: 70px;'>正确! </span>","null","","","","","","","","","","","","","","","","","","","","","","","feedback_test"
"","","","","","psychophysics","55","427098","0.0-7.0-0.0-0.22","508","","f","","","","","","","","","","","","","key","f","16.66898989898971","640","356","j","false","img/C_ambi40.png","圆形","prac_image_first",""
"","","","","","html-keyboard-response","56","427407","0.0-7.0-0.0-1.22","null","<span style='color:red; font-size: 70px;'>错误! </span>","null","","","","","","","","","","","","","","","","","","","","","","","feedback_test"
"","","","","","psychophysics","57","429460","0.0-7.0-0.0-0.23","901","","f","","","","","","","","","","","","","key","f","16.66882786885253","640","356","f","true","img/S_ambi40.png","圆形","prac_image_first",""
"","","","","","html-keyboard-response","58","429781","0.0-7.0-0.0-1.23","null","<span style='color:GreenYellow; font-size: 70px;'>正确! </span>","null","","","","","","","","","","","","","","","","","","","","","","","feedback_test"
"","","","","","html-keyboard-response","59","434530","0.0-8.0","4746","<style>.context{color:white; font-size: 35px; line-height:40px}</style>                            <div><p class='context'>您正确回答了63% 的试次。</p><p class='context'>您的平均反应时为786毫秒。</p><p class='context'>恭喜您完成这一阶段的练习。按任意键进入<span style='color: yellow;'>先文字后图形条件</span>的练习。</p></div>"," ","","","","","","","","","","","","","","","","","","","","","","",""
"","","","","","psychophysics","60","436532","0.0-9.0-0.0-0.0","844","","f","","","","","","","","","","","","","key","f","16.669773109243526","640","356","f","true","img/T_ambi40.png","方形","prac_word_first",""
"","","","","","html-keyboard-response","61","436840","0.0-9.0-0.0-1.0","null","<span style='color:GreenYellow; font-size: 70px;'>正确! </span>","null","","","","","","","","","","","","","","","","","","","","","","","feedback_test"
"","","","","","psychophysics","62","438670","0.0-9.0-0.0-0.1","677","","f","","","","","","","","","","","","","key","f","16.66902752293577","640","356","f","true","img/S_ambi40.png","三角","prac_word_first",""
"","","","","","html-keyboard-response","63","438985","0.0-9.0-0.0-1.1","null","<span style='color:GreenYellow; font-size: 70px;'>正确! </span>","null","","","","","","","","","","","","","","","","","","","","","","","feedback_test"
"","","","","","psychophysics","64","440668","0.0-9.0-0.0-0.2","524","","f","","","","","","","","","","","","","key","f","16.668759999999892","640","356","f","true","img/C_ambi40.png","三角","prac_word_first",""
"","","","","","html-keyboard-response","65","440991","0.0-9.0-0.0-1.2","null","<span style='color:GreenYellow; font-size: 70px;'>正确! </span>","null","","","","","","","","","","","","","","","","","","","","","","","feedback_test"
"","","","","","psychophysics","66","442918","0.0-9.0-0.0-0.3","774","","f","","","","","","","","","","","","","key","f","16.669252173912852","640","356","f","true","img/C_ambi40.png","方形","prac_word_first",""
"","","","","","html-keyboard-response","67","443229","0.0-9.0-0.0-1.3","null","<span style='color:GreenYellow; font-size: 70px;'>正确! </span>","null","","","","","","","","","","","","","","","","","","","","","","","feedback_test"
"","","","","","psychophysics","68","444917","0.0-9.0-0.0-0.4","537","","f","","","","","","","","","","","","","key","f","16.669490000000224","640","356","j","false","img/C_ambi40.png","圆形","prac_word_first",""
"","","","","","html-keyboard-response","69","445233","0.0-9.0-0.0-1.4","null","<span style='color:red; font-size: 70px;'>错误! </span>","null","","","","","","","","","","","","","","","","","","","","","","","feedback_test"
"","","","","","psychophysics","70","446943","0.0-9.0-0.0-0.5","551","","j","","","","","","","","","","","","","key","j","16.669128712871814","640","356","j","true","img/T_ambi40.png","三角","prac_word_first",""
"","","","","","html-keyboard-response","71","447248","0.0-9.0-0.0-1.5","null","<span style='color:GreenYellow; font-size: 70px;'>正确! </span>","null","","","","","","","","","","","","","","","","","","","","","","","feedback_test"
"","","","","","psychophysics","72","449637","0.0-9.0-0.0-0.6","1228","","j","","","","","","","","","","","","","key","j","16.66923239436632","640","356","j","true","img/S_ambi40.png","方形","prac_word_first",""
"","","","","","html-keyboard-response","73","449959","0.0-9.0-0.0-1.6","null","<span style='color:GreenYellow; font-size: 70px;'>正确! </span>","null","","","","","","","","","","","","","","","","","","","","","","","feedback_test"
"","","","","","psychophysics","74","451677","0.0-9.0-0.0-0.7","566","","j","","","","","","","","","","","","","key","j","16.66932352941184","640","356","j","true","img/S_ambi40.png","方形","prac_word_first",""
"","","","","","html-keyboard-response","75","451994","0.0-9.0-0.0-1.7","null","<span style='color:GreenYellow; font-size: 70px;'>正确! </span>","null","","","","","","","","","","","","","","","","","","","","","","","feedback_test"
"","","","","","psychophysics","76","453986","0.0-9.0-0.0-0.8","838","","f","","","","","","","","","","","","","key","f","16.66931932773089","640","356","j","false","img/C_ambi40.png","圆形","prac_word_first",""
"","","","","","html-keyboard-response","77","454289","0.0-9.0-0.0-1.8","null","<span style='color:red; font-size: 70px;'>错误! </span>","null","","","","","","","","","","","","","","","","","","","","","","","feedback_test"
"","","","","","psychophysics","78","456093","0.0-9.0-0.0-0.9","646","","f","","","","","","","","","","","","","key","f","16.669626168224518","640","356","j","false","img/T_ambi40.png","三角","prac_word_first",""
"","","","","","html-keyboard-response","79","456415","0.0-9.0-0.0-1.9","null","<span style='color:red; font-size: 70px;'>错误! </span>","null","","","","","","","","","","","","","","","","","","","","","","","feedback_test"
"","","","","","psychophysics","80","458178","0.0-9.0-0.0-0.10","611","","f","","","","","","","","","","","","","key","f","16.663384615384878","640","356","f","true","img/T_ambi40.png","圆形","prac_word_first",""
"","","","","","html-keyboard-response","81","458492","0.0-9.0-0.0-1.10","null","<span style='color:GreenYellow; font-size: 70px;'>正确! </span>","null","","","","","","","","","","","","","","","","","","","","","","","feedback_test"
"","","","","","psychophysics","82","460369","0.0-9.0-0.0-0.11","722","","f","","","","","","","","","","","","","key","f","16.66958928571434","640","356","f","true","img/S_ambi40.png","圆形","prac_word_first",""
"","","","","","html-keyboard-response","83","460674","0.0-9.0-0.0-1.11","null","<span style='color:GreenYellow; font-size: 70px;'>正确! </span>","null","","","","","","","","","","","","","","","","","","","","","","","feedback_test"
"","","","","","psychophysics","84","462420","0.0-9.0-0.0-0.12","588","","j","","","","","","","","","","","","","key","j","16.669346153846373","640","356","j","true","img/S_ambi40.png","方形","prac_word_first",""
"","","","","","html-keyboard-response","85","462733","0.0-9.0-0.0-1.12","null","<span style='color:GreenYellow; font-size: 70px;'>正确! </span>","null","","","","","","","","","","","","","","","","","","","","","","","feedback_test"
"","","","","","psychophysics","86","464559","0.0-9.0-0.0-0.13","675","","j","","","","","","","","","","","","","key","j","16.6692314814815","640","356","f","false","img/C_ambi40.png","三角","prac_word_first",""
"","","","","","html-keyboard-response","87","464872","0.0-9.0-0.0-1.13","null","<span style='color:red; font-size: 70px;'>错误! </span>","null","","","","","","","","","","","","","","","","","","","","","","","feedback_test"
"","","","","","psychophysics","88","467182","0.0-9.0-0.0-0.14","1157","","f","","","","","","","","","","","","","key","f","16.669510948905096","640","356","f","true","img/S_ambi40.png","三角","prac_word_first",""
"","","","","","html-keyboard-response","89","467497","0.0-9.0-0.0-1.14","null","<span style='color:GreenYellow; font-size: 70px;'>正确! </span>","null","","","","","","","","","","","","","","","","","","","","","","","feedback_test"
"","","","","","psychophysics","90","469314","0.0-9.0-0.0-0.15","663","","j","","","","","","","","","","","","","key","j","16.668638888889323","640","356","j","true","img/C_ambi40.png","圆形","prac_word_first",""
"","","","","","html-keyboard-response","91","469628","0.0-9.0-0.0-1.15","null","<span style='color:GreenYellow; font-size: 70px;'>正确! </span>","null","","","","","","","","","","","","","","","","","","","","","","","feedback_test"
"","","","","","psychophysics","92","471517","0.0-9.0-0.0-0.16","733","","j","","","","","","","","","","","","","key","j","16.669116071428498","640","356","j","true","img/C_ambi40.png","圆形","prac_word_first",""
"","","","","","html-keyboard-response","93","471828","0.0-9.0-0.0-1.16","null","<span style='color:GreenYellow; font-size: 70px;'>正确! </span>","null","","","","","","","","","","","","","","","","","","","","","","","feedback_test"
"","","","","","psychophysics","94","473642","0.0-9.0-0.0-0.17","658","","j","","","","","","","","","","","","","key","j","16.66920370370348","640","356","j","true","img/T_ambi40.png","三角","prac_word_first",""
"","","","","","html-keyboard-response","95","473954","0.0-9.0-0.0-1.17","null","<span style='color:GreenYellow; font-size: 70px;'>正确! </span>","null","","","","","","","","","","","","","","","","","","","","","","","feedback_test"
"","","","","","psychophysics","96","475994","0.0-9.0-0.0-0.18","875","","f","","","","","","","","","","","","","key","f","16.669371900826015","640","356","f","true","img/C_ambi40.png","方形","prac_word_first",""
"","","","","","html-keyboard-response","97","476299","0.0-9.0-0.0-1.18","null","<span style='color:GreenYellow; font-size: 70px;'>正确! </span>","null","","","","","","","","","","","","","","","","","","","","","","","feedback_test"
"","","","","","psychophysics","98","478177","0.0-9.0-0.0-0.19","725","","j","","","","","","","","","","","","","key","j","16.669089285713977","640","356","j","true","img/T_ambi40.png","三角","prac_word_first",""
"","","","","","html-keyboard-response","99","478486","0.0-9.0-0.0-1.19","null","<span style='color:GreenYellow; font-size: 70px;'>正确! </span>","null","","","","","","","","","","","","","","","","","","","","","","","feedback_test"
"","","","","","psychophysics","100","480681","0.0-9.0-0.0-0.20","1043","","f","","","","","","","","","","","","","key","f","16.669015384615452","640","356","f","true","img/T_ambi40.png","圆形","prac_word_first",""
"","","","","","html-keyboard-response","101","480987","0.0-9.0-0.0-1.20","null","<span style='color:GreenYellow; font-size: 70px;'>正确! </span>","null","","","","","","","","","","","","","","","","","","","","","","","feedback_test"
"","","","","","psychophysics","102","482762","0.0-9.0-0.0-0.21","619","","j","","","","","","","","","","","","","key","j","16.666285714285912","640","356","j","true","img/S_ambi40.png","方形","prac_word_first",""
"","","","","","html-keyboard-response","103","483069","0.0-9.0-0.0-1.21","null","<span style='color:GreenYellow; font-size: 70px;'>正确! </span>","null","","","","","","","","","","","","","","","","","","","","","","","feedback_test"
"","","","","","psychophysics","104","484932","0.0-9.0-0.0-0.22","708","","f","","","","","","","","","","","","","key","f","16.671463636363942","640","356","f","true","img/T_ambi40.png","方形","prac_word_first",""
"","","","","","html-keyboard-response","105","485244","0.0-9.0-0.0-1.22","null","<span style='color:GreenYellow; font-size: 70px;'>正确! </span>","null","","","","","","","","","","","","","","","","","","","","","","","feedback_test"
"","","","","","psychophysics","106","487086","0.0-9.0-0.0-0.23","686","","f","","","","","","","","","","","","","key","f","16.66892660550459","640","356","f","true","img/S_ambi40.png","圆形","prac_word_first",""
"","","","","","html-keyboard-response","107","487400","0.0-9.0-0.0-1.23","null","<span style='color:GreenYellow; font-size: 70px;'>正确! </span>","null","","","","","","","","","","","","","","","","","","","","","","","feedback_test"
"","","","","","html-keyboard-response","108","490841","0.0-10.0","3438","<style>.context{color:white; font-size: 35px; line-height:40px}</style>                            <div><p class='context'>您正确回答了83% 的试次。</p><p class='context'>您的平均反应时为748毫秒。</p><p class='context'>恭喜您完成练习。按任意键进入<span style='color: yellow;'>图形和文字同时呈现条件</span>的练习。</p></div>"," ","","","","","","","","","","","","","","","","","","","","","","",""
"","","","","","psychophysics","109","492703","0.0-11.0-0.0-0.0","855","","f","","","","","","","","","","","","","key","f","16.66926363636369","640","356","f","true","img/C_ambi40.png","方形","prac_simultaneous",""
"","","","","","html-keyboard-response","110","493014","0.0-11.0-0.0-1.0","null","<span style='color:GreenYellow; font-size: 70px;'>正确! </span>","null","","","","","","","","","","","","","","","","","","","","","","","feedback_test"
"","","","","","psychophysics","111","494899","0.0-11.0-0.0-0.1","883","","j","","","","","","","","","","","","","key","j","16.66730357142868","640","356","j","true","img/C_ambi40.png","圆形","prac_simultaneous",""
"","","","","","html-keyboard-response","112","495222","0.0-11.0-0.0-1.1","null","<span style='color:GreenYellow; font-size: 70px;'>正确! </span>","null","","","","","","","","","","","","","","","","","","","","","","","feedback_test"
"","","","","","psychophysics","113","497241","0.0-11.0-0.0-0.2","1011","","j","","","","","","","","","","","","","key","j","16.669508333333457","640","356","j","true","img/T_ambi40.png","三角","prac_simultaneous",""
"","","","","","html-keyboard-response","114","497555","0.0-11.0-0.0-1.2","null","<span style='color:GreenYellow; font-size: 70px;'>正确! </span>","null","","","","","","","","","","","","","","","","","","","","","","","feedback_test"
"","","","","","psychophysics","115","499534","0.0-11.0-0.0-0.3","978","","f","","","","","","","","","","","","","key","f","16.669581196581323","640","356","f","true","img/C_ambi40.png","三角","prac_simultaneous",""
"","","","","","html-keyboard-response","116","499852","0.0-11.0-0.0-1.3","null","<span style='color:GreenYellow; font-size: 70px;'>正确! </span>","null","","","","","","","","","","","","","","","","","","","","","","","feedback_test"
"","","","","","psychophysics","117","501782","0.0-11.0-0.0-0.4","927","","f","","","","","","","","","","","","","key","f","16.6701913043477","640","356","f","true","img/S_ambi40.png","圆形","prac_simultaneous",""
"","","","","","html-keyboard-response","118","502098","0.0-11.0-0.0-1.4","null","<span style='color:GreenYellow; font-size: 70px;'>正确! </span>","null","","","","","","","","","","","","","","","","","","","","","","","feedback_test"
"","","","","","psychophysics","119","504003","0.0-11.0-0.0-0.5","900","","f","","","","","","","","","","","","","key","f","16.665557522124267","640","356","f","true","img/T_ambi40.png","方形","prac_simultaneous",""
"","","","","","html-keyboard-response","120","504312","0.0-11.0-0.0-1.5","null","<span style='color:GreenYellow; font-size: 70px;'>正确! </span>","null","","","","","","","","","","","","","","","","","","","","","","","feedback_test"
"","","","","","psychophysics","121","505898","0.0-11.0-0.0-0.6","579","","j","","","","","","","","","","","","","key","j","16.66962765957454","640","356","j","true","img/C_ambi40.png","圆形","prac_simultaneous",""
"","","","","","html-keyboard-response","122","506212","0.0-11.0-0.0-1.6","null","<span style='color:GreenYellow; font-size: 70px;'>正确! </span>","null","","","","","","","","","","","","","","","","","","","","","","","feedback_test"
"","","","","","psychophysics","123","508000","0.0-11.0-0.0-0.7","785","","f","","","","","","","","","","","","","key","f","16.666264150942947","640","356","f","true","img/S_ambi40.png","三角","prac_simultaneous",""
"","","","","","html-keyboard-response","124","508317","0.0-11.0-0.0-1.7","null","<span style='color:GreenYellow; font-size: 70px;'>正确! </span>","null","","","","","","","","","","","","","","","","","","","","","","","feedback_test"
"","","","","","psychophysics","125","510031","0.0-11.0-0.0-0.8","712","","f","","","","","","","","","","","","","key","f","16.66942156862762","640","356","f","true","img/T_ambi40.png","圆形","prac_simultaneous",""
"","","","","","html-keyboard-response","126","510339","0.0-11.0-0.0-1.8","null","<span style='color:GreenYellow; font-size: 70px;'>正确! </span>","null","","","","","","","","","","","","","","","","","","","","","","","feedback_test"
"","","","","","psychophysics","127","512052","0.0-11.0-0.0-0.9","712","","j","","","","","","","","","","","","","key","j","16.668930693069072","640","356","j","true","img/S_ambi40.png","方形","prac_simultaneous",""
"","","","","","html-keyboard-response","128","512373","0.0-11.0-0.0-1.9","null","<span style='color:GreenYellow; font-size: 70px;'>正确! </span>","null","","","","","","","","","","","","","","","","","","","","","","","feedback_test"
"","","","","","psychophysics","129","514069","0.0-11.0-0.0-0.10","694","","j","","","","","","","","","","","","","key","j","16.66988000000012","640","356","j","true","img/T_ambi40.png","三角","prac_simultaneous",""
"","","","","","html-keyboard-response","130","514385","0.0-11.0-0.0-1.10","null","<span style='color:GreenYellow; font-size: 70px;'>正确! </span>","null","","","","","","","","","","","","","","","","","","","","","","","feedback_test"
"","","","","","psychophysics","131","516051","0.0-11.0-0.0-0.11","660","","j","","","","","","","","","","","","","key","j","16.668878787878615","640","356","j","true","img/S_ambi40.png","方形","prac_simultaneous",""
"","","","","","html-keyboard-response","132","516359","0.0-11.0-0.0-1.11","null","<span style='color:GreenYellow; font-size: 70px;'>正确! </span>","null","","","","","","","","","","","","","","","","","","","","","","","feedback_test"
"","","","","","psychophysics","133","518042","0.0-11.0-0.0-0.12","676","","j","","","","","","","","","","","","","key","j","16.66929999999993","640","356","j","true","img/T_ambi40.png","三角","prac_simultaneous",""
"","","","","","html-keyboard-response","134","518363","0.0-11.0-0.0-1.12","null","<span style='color:GreenYellow; font-size: 70px;'>正确! </span>","null","","","","","","","","","","","","","","","","","","","","","","","feedback_test"
"","","","","","psychophysics","135","520048","0.0-11.0-0.0-0.13","680","","f","","","","","","","","","","","","","key","f","16.66935000000056","640","356","f","true","img/C_ambi40.png","方形","prac_simultaneous",""
"","","","","","html-keyboard-response","136","520361","0.0-11.0-0.0-1.13","null","<span style='color:GreenYellow; font-size: 70px;'>正确! </span>","null","","","","","","","","","","","","","","","","","","","","","","","feedback_test"
"","","","","","psychophysics","137","522298","0.0-11.0-0.0-0.14","931","","f","","","","","","","","","","","","","key","f","16.670782608695774","640","356","f","true","img/S_ambi40.png","圆形","prac_simultaneous",""
"","","","","","html-keyboard-response","138","522609","0.0-11.0-0.0-1.14","null","<span style='color:GreenYellow; font-size: 70px;'>正确! </span>","null","","","","","","","","","","","","","","","","","","","","","","","feedback_test"
"","","","","","psychophysics","139","524367","0.0-11.0-0.0-0.15","753","","f","","","","","","","","","","","","","key","f","16.669865384616198","640","356","f","true","img/T_ambi40.png","圆形","prac_simultaneous",""
"","","","","","html-keyboard-response","140","524685","0.0-11.0-0.0-1.15","null","<span style='color:GreenYellow; font-size: 70px;'>正确! </span>","null","","","","","","","","","","","","","","","","","","","","","","","feedback_test"
"","","","","","psychophysics","141","526392","0.0-11.0-0.0-0.16","705","","j","","","","","","","","","","","","","key","j","16.66934653465281","640","356","j","true","img/C_ambi40.png","圆形","prac_simultaneous",""
"","","","","","html-keyboard-response","142","526705","0.0-11.0-0.0-1.16","null","<span style='color:GreenYellow; font-size: 70px;'>正确! </span>","null","","","","","","","","","","","","","","","","","","","","","","","feedback_test"
"","","","","","psychophysics","143","528545","0.0-11.0-0.0-0.17","835","","f","","","","","","","","","","","","","key","f","16.66977064220188","640","356","f","true","img/C_ambi40.png","三角","prac_simultaneous",""
"","","","","","html-keyboard-response","144","528858","0.0-11.0-0.0-1.17","null","<span style='color:GreenYellow; font-size: 70px;'>正确! </span>","null","","","","","","","","","","","","","","","","","","","","","","","feedback_test"
"","","","","","psychophysics","145","530816","0.0-11.0-0.0-0.18","956","","f","","","","","","","","","","","","","key","f","16.669525862069285","640","356","f","true","img/S_ambi40.png","三角","prac_simultaneous",""
"","","","","","html-keyboard-response","146","531133","0.0-11.0-0.0-1.18","null","<span style='color:GreenYellow; font-size: 70px;'>正确! </span>","null","","","","","","","","","","","","","","","","","","","","","","","feedback_test"
"","","","","","psychophysics","147","532861","0.0-11.0-0.0-0.19","725","","j","","","","","","","","","","","","","key","j","16.669495145630915","640","356","j","true","img/S_ambi40.png","方形","prac_simultaneous",""
"","","","","","html-keyboard-response","148","533168","0.0-11.0-0.0-1.19","null","<span style='color:GreenYellow; font-size: 70px;'>正确! </span>","null","","","","","","","","","","","","","","","","","","","","","","","feedback_test"
"","","","","","psychophysics","149","534933","0.0-11.0-0.0-0.20","758","","j","","","","","","","","","","","","","key","j","16.66918095238174","640","356","j","true","img/C_ambi40.png","圆形","prac_simultaneous",""
"","","","","","html-keyboard-response","150","535253","0.0-11.0-0.0-1.20","null","<span style='color:GreenYellow; font-size: 70px;'>正确! </span>","null","","","","","","","","","","","","","","","","","","","","","","","feedback_test"
"","","","","","psychophysics","151","536918","0.0-11.0-0.0-0.21","663","","j","","","","","","","","","","","","","key","j","16.667151515151026","640","356","j","true","img/T_ambi40.png","三角","prac_simultaneous",""
"","","","","","html-keyboard-response","152","537236","0.0-11.0-0.0-1.21","null","<span style='color:GreenYellow; font-size: 70px;'>正确! </span>","null","","","","","","","","","","","","","","","","","","","","","","","feedback_test"
"","","","","","psychophysics","153","538885","0.0-11.0-0.0-0.22","645","","j","","","","","","","","","","","","","key","j","16.670030612244307","640","356","j","true","img/S_ambi40.png","方形","prac_simultaneous",""
"","","","","","html-keyboard-response","154","539192","0.0-11.0-0.0-1.22","null","<span style='color:GreenYellow; font-size: 70px;'>正确! </span>","null","","","","","","","","","","","","","","","","","","","","","","","feedback_test"
"","","","","","psychophysics","155","541130","0.0-11.0-0.0-0.23","936","","f","","","","","","","","","","","","","key","f","16.66902586206862","640","356","f","true","img/T_ambi40.png","方形","prac_simultaneous",""
"","","","","","html-keyboard-response","156","541443","0.0-11.0-0.0-1.23","null","<span style='color:GreenYellow; font-size: 70px;'>正确! </span>","null","","","","","","","","","","","","","","","","","","","","","","","feedback_test"
"","","","","","html-keyboard-response","157","560568","0.0-12.0","19122","<style>.context{color:white; font-size: 35px; line-height:40px}</style>                            <div><p class='context'>您正确回答了100% 的试次。</p><p class='context'>您的平均反应时为790毫秒。</p><p class='context'>恭喜您完成练习。按任意键进入正式实验。</p><p class='footer' style='font-size: 35px; line-height:40px;'>请在进入正式实验实验之前将您的<span style='color: lightgreen;'>食指</span>放在电脑键盘的相应键位上进行按键。</p>"," ","","","","","","","","","","","","","","","","","","","","","","",""
"","","","","","html-keyboard-response","158","563042","0.0-13.0-2.0-0.0","2470","
    <p>请您将手指放在按键上，准备进入呈现顺序为<span style='color: yellow;'>图形和文字同时呈现条件</span>的正式匹配任务</p>
    <p> <div style = ""color: green""><按任意键进入下一阶段的匹配任务></div></p>
    "," ","","","","","","","","","","","","","","","","","","","","","","",""
"","","","","","psychophysics","159","564807","0.0-13.0-2.0-1.0-0.0-0.0","759","","f","","","","","","","","","","","","","key","f","16.668999999999954","640","356","f","true","img/T_ambi40.png","圆形","simultaneous",""
"","","","","","html-keyboard-response","160","565115","0.0-13.0-2.0-1.0-0.0-1.0","null","<span style='color:GreenYellow; font-size: 70px;'>正确! </span>","null","","","","","","","","","","","","","","","","","","","","","","","feedback_test"
"","","","","","psychophysics","161","566876","0.0-13.0-2.0-1.0-0.0-0.1","759","","j","","","","","","","","","","","","","key","j","16.533375000000188","640","356","j","true","img/T_ambi40.png","三角","simultaneous",""
"","","","","","html-keyboard-response","162","567189","0.0-13.0-2.0-1.0-0.0-1.1","null","<span style='color:GreenYellow; font-size: 70px;'>正确! </span>","null","","","","","","","","","","","","","","","","","","","","","","","feedback_test"
"","","","","","psychophysics","163","568839","0.0-13.0-2.0-1.0-0.0-0.2","648","","j","","","","","","","","","","","","","key","j","16.66967346938802","640","356","j","true","img/C_ambi40.png","圆形","simultaneous",""
"","","","","","html-keyboard-response","164","569158","0.0-13.0-2.0-1.0-0.0-1.2","null","<span style='color:GreenYellow; font-size: 70px;'>正确! </span>","null","","","","","","","","","","","","","","","","","","","","","","","feedback_test"
"","","","","","psychophysics","165","570995","0.0-13.0-2.0-1.0-0.0-0.3","836","","f","","","","","","","","","","","","","key","f","16.668146788990637","640","356","f","true","img/C_ambi40.png","方形","simultaneous",""
"","","","","","html-keyboard-response","166","571306","0.0-13.0-2.0-1.0-0.0-1.3","null","<span style='color:GreenYellow; font-size: 70px;'>正确! </span>","null","","","","","","","","","","","","","","","","","","","","","","","feedback_test"
"","","","","","psychophysics","167","573046","0.0-13.0-2.0-1.0-0.0-0.4","735","","f","","","","","","","","","","","","","key","f","16.667922330096825","640","356","f","true","img/S_ambi40.png","圆形","simultaneous",""
"","","","","","html-keyboard-response","168","573356","0.0-13.0-2.0-1.0-0.0-1.4","null","<span style='color:GreenYellow; font-size: 70px;'>正确! </span>","null","","","","","","","","","","","","","","","","","","","","","","","feedback_test"
"","","","","","psychophysics","169","575013","0.0-13.0-2.0-1.0-0.0-0.5","654","","j","","","","","","","","","","","","","key","j","16.668530612245526","640","356","j","true","img/S_ambi40.png","方形","simultaneous",""
"","","","","","html-keyboard-response","170","575324","0.0-13.0-2.0-1.0-0.0-1.5","null","<span style='color:GreenYellow; font-size: 70px;'>正确! </span>","null","","","","","","","","","","","","","","","","","","","","","","","feedback_test"
"","","","","","psychophysics","171","576979","0.0-13.0-2.0-1.0-0.0-0.6","651","","j","","","","","","","","","","","","","key","j","16.668326530611495","640","356","f","false","img/S_ambi40.png","三角","simultaneous",""
"","","","","","html-keyboard-response","172","577288","0.0-13.0-2.0-1.0-0.0-1.6","null","<span style='color:red; font-size: 70px;'>错误! </span>","null","","","","","","","","","","","","","","","","","","","","","","","feedback_test"
"","","","","","psychophysics","173","579022","0.0-13.0-2.0-1.0-0.0-0.7","727","","j","","","","","","","","","","","","","key","j","16.667776699028728","640","356","j","true","img/S_ambi40.png","方形","simultaneous",""
"","","","","","html-keyboard-response","174","579338","0.0-13.0-2.0-1.0-0.0-1.7","null","<span style='color:GreenYellow; font-size: 70px;'>正确! </span>","null","","","","","","","","","","","","","","","","","","","","","","","feedback_test"
"","","","","","psychophysics","175","581107","0.0-13.0-2.0-1.0-0.0-0.8","756","","f","","","","","","","","","","","","","key","f","16.66953333333312","640","356","f","true","img/T_ambi40.png","方形","simultaneous",""
"","","","","","html-keyboard-response","176","581427","0.0-13.0-2.0-1.0-0.0-1.8","null","<span style='color:GreenYellow; font-size: 70px;'>正确! </span>","null","","","","","","","","","","","","","","","","","","","","","","","feedback_test"
"","","","","","psychophysics","177","583036","0.0-13.0-2.0-1.0-0.0-0.9","605","","j","","","","","","","","","","","","","key","j","16.66945833333375","640","356","j","true","img/T_ambi40.png","三角","simultaneous",""
"","","","","","html-keyboard-response","178","583357","0.0-13.0-2.0-1.0-0.0-1.9","null","<span style='color:GreenYellow; font-size: 70px;'>正确! </span>","null","","","","","","","","","","","","","","","","","","","","","","","feedback_test"
"","","","","","psychophysics","179","584976","0.0-13.0-2.0-1.0-0.0-0.10","615","","j","","","","","","","","","","","","","key","j","16.668947916667094","640","356","j","true","img/C_ambi40.png","圆形","simultaneous",""
"","","","","","html-keyboard-response","180","585289","0.0-13.0-2.0-1.0-0.0-1.10","null","<span style='color:GreenYellow; font-size: 70px;'>正确! </span>","null","","","","","","","","","","","","","","","","","","","","","","","feedback_test"
"","","","","","psychophysics","181","586892","0.0-13.0-2.0-1.0-0.0-0.11","598","","f","","","","","","","","","","","","","key","f","16.669347368420937","640","356","f","true","img/C_ambi40.png","三角","simultaneous",""
"","","","","","html-keyboard-response","182","587214","0.0-13.0-2.0-1.0-0.0-1.11","null","<span style='color:GreenYellow; font-size: 70px;'>正确! </span>","null","","","","","","","","","","","","","","","","","","","","","","","feedback_test"
"","","","","","psychophysics","183","589010","0.0-13.0-2.0-1.0-0.0-0.12","791","","j","","","","","","","","","","","","","key","j","16.669523364485666","640","356","j","true","img/C_ambi40.png","圆形","simultaneous",""
"","","","","","html-keyboard-response","184","589321","0.0-13.0-2.0-1.0-0.0-1.12","null","<span style='color:GreenYellow; font-size: 70px;'>正确! </span>","null","","","","","","","","","","","","","","","","","","","","","","","feedback_test"
"","","","","","psychophysics","185","591029","0.0-13.0-2.0-1.0-0.0-0.13","702","","f","","","","","","","","","","","","","key","f","16.669099009901256","640","356","f","true","img/T_ambi40.png","方形","simultaneous",""
"","","","","","html-keyboard-response","186","591340","0.0-13.0-2.0-1.0-0.0-1.13","null","<span style='color:GreenYellow; font-size: 70px;'>正确! </span>","null","","","","","","","","","","","","","","","","","","","","","","","feedback_test"
"","","","","","psychophysics","187","593034","0.0-13.0-2.0-1.0-0.0-0.14","683","","f","","","","","","","","","","","","","key","f","16.668460000000195","640","356","f","true","img/C_ambi40.png","三角","simultaneous",""
"","","","","","html-keyboard-response","188","593348","0.0-13.0-2.0-1.0-0.0-1.14","null","<span style='color:GreenYellow; font-size: 70px;'>正确! </span>","null","","","","","","","","","","","","","","","","","","","","","","","feedback_test"
"","","","","","psychophysics","189","595265","0.0-13.0-2.0-1.0-0.0-0.15","914","","f","","","","","","","","","","","","","key","f","16.66973684210506","640","356","f","true","img/S_ambi40.png","三角","simultaneous",""
"","","","","","html-keyboard-response","190","595581","0.0-13.0-2.0-1.0-0.0-1.15","null","<span style='color:GreenYellow; font-size: 70px;'>正确! </span>","null","","","","","","","","","","","","","","","","","","","","","","","feedback_test"
"","","","","","psychophysics","191","597188","0.0-13.0-2.0-1.0-0.0-0.16","605","","j","","","","","","","","","","","","","key","j","16.66922916666711","640","356","j","true","img/T_ambi40.png","三角","simultaneous",""
"","","","","","html-keyboard-response","192","597504","0.0-13.0-2.0-1.0-0.0-1.16","null","<span style='color:GreenYellow; font-size: 70px;'>正确! </span>","null","","","","","","","","","","","","","","","","","","","","","","","feedback_test"
"","","","","","psychophysics","193","599018","0.0-13.0-2.0-1.0-0.0-0.17","513","","j","","","","","","","","","","","","","key","j","16.670044943819796","640","356","j","true","img/S_ambi40.png","方形","simultaneous",""
"","","","","","html-keyboard-response","194","599337","0.0-13.0-2.0-1.0-0.0-1.17","null","<span style='color:GreenYellow; font-size: 70px;'>正确! </span>","null","","","","","","","","","","","","","","","","","","","","","","","feedback_test"
"","","","","","psychophysics","195","601030","0.0-13.0-2.0-1.0-0.0-0.18","692","","j","","","","","","","","","","","","","key","j","16.665060000000523","640","356","j","true","img/S_ambi40.png","方形","simultaneous",""
"","","","","","html-keyboard-response","196","601343","0.0-13.0-2.0-1.0-0.0-1.18","null","<span style='color:GreenYellow; font-size: 70px;'>正确! </span>","null","","","","","","","","","","","","","","","","","","","","","","","feedback_test"
"","","","","","psychophysics","197","602986","0.0-13.0-2.0-1.0-0.0-0.19","635","","f","","","","","","","","","","","","","key","f","16.667463917526437","640","356","f","true","img/C_ambi40.png","方形","simultaneous",""
"","","","","","html-keyboard-response","198","603310","0.0-13.0-2.0-1.0-0.0-1.19","null","<span style='color:GreenYellow; font-size: 70px;'>正确! </span>","null","","","","","","","","","","","","","","","","","","","","","","","feedback_test"
"","","","","","psychophysics","199","605042","0.0-13.0-2.0-1.0-0.0-0.20","723","","f","","","","","","","","","","","","","key","f","16.667922330096825","640","356","f","true","img/T_ambi40.png","圆形","simultaneous",""
"","","","","","html-keyboard-response","200","605363","0.0-13.0-2.0-1.0-0.0-1.20","null","<span style='color:GreenYellow; font-size: 70px;'>正确! </span>","null","","","","","","","","","","","","","","","","","","","","","","","feedback_test"
"","","","","","psychophysics","201","607017","0.0-13.0-2.0-1.0-0.0-0.21","649","","j","","","","","","","","","","","","","key","j","16.668282828283157","640","356","j","true","img/T_ambi40.png","三角","simultaneous",""
"","","","","","html-keyboard-response","202","607330","0.0-13.0-2.0-1.0-0.0-1.21","null","<span style='color:GreenYellow; font-size: 70px;'>正确! </span>","null","","","","","","","","","","","","","","","","","","","","","","","feedback_test"
"","","","","","psychophysics","203","608871","0.0-13.0-2.0-1.0-0.0-0.22","535","","f","","","","","","","","","","","","","key","f","16.668065934065872","640","356","f","true","img/S_ambi40.png","圆形","simultaneous",""
"","","","","","html-keyboard-response","204","609191","0.0-13.0-2.0-1.0-0.0-1.22","null","<span style='color:GreenYellow; font-size: 70px;'>正确! </span>","null","","","","","","","","","","","","","","","","","","","","","","","feedback_test"
"","","","","","psychophysics","205","611082","0.0-13.0-2.0-1.0-0.0-0.23","882","","j","","","","","","","","","","","","","key","j","16.66814285714333","640","356","j","true","img/C_ambi40.png","圆形","simultaneous",""
"","","","","","html-keyboard-response","206","611401","0.0-13.0-2.0-1.0-0.0-1.23","null","<span style='color:GreenYellow; font-size: 70px;'>正确! </span>","null","","","","","","","","","","","","","","","","","","","","","","","feedback_test"
"","","","","","psychophysics","207","613015","0.0-13.0-2.0-1.0-0.0-0.24","609","","f","","","","","","","","","","","","","key","f","16.668666666667075","640","356","f","true","img/S_ambi40.png","三角","simultaneous",""
"","","","","","html-keyboard-response","208","613330","0.0-13.0-2.0-1.0-0.0-1.24","null","<span style='color:GreenYellow; font-size: 70px;'>正确! </span>","null","","","","","","","","","","","","","","","","","","","","","","","feedback_test"
"","","","","","psychophysics","209","615226","0.0-13.0-2.0-1.0-0.0-0.25","891","","f","","","","","","","","","","","","","key","f","16.669194690265027","640","356","f","true","img/C_ambi40.png","三角","simultaneous",""
"","","","","","html-keyboard-response","210","615542","0.0-13.0-2.0-1.0-0.0-1.25","null","<span style='color:GreenYellow; font-size: 70px;'>正确! </span>","null","","","","","","","","","","","","","","","","","","","","","","","feedback_test"
"","","","","","psychophysics","211","617397","0.0-13.0-2.0-1.0-0.0-0.26","846","","j","","","","","","","","","","","","","key","j","16.66917272727217","640","356","j","true","img/C_ambi40.png","圆形","simultaneous",""
"","","","","","html-keyboard-response","212","617710","0.0-13.0-2.0-1.0-0.0-1.26","null","<span style='color:GreenYellow; font-size: 70px;'>正确! </span>","null","","","","","","","","","","","","","","","","","","","","","","","feedback_test"
"","","","","","psychophysics","213","619416","0.0-13.0-2.0-1.0-0.0-0.27","704","","j","","","","","","","","","","","","","key","j","16.669742574258294","640","356","j","true","img/T_ambi40.png","三角","simultaneous",""
"","","","","","html-keyboard-response","214","619721","0.0-13.0-2.0-1.0-0.0-1.27","null","<span style='color:GreenYellow; font-size: 70px;'>正确! </span>","null","","","","","","","","","","","","","","","","","","","","","","","feedback_test"
"","","","","","psychophysics","215","621497","0.0-13.0-2.0-1.0-0.0-0.28","772","","j","","","","","","","","","","","","","key","j","16.66911320754696","640","356","j","true","img/T_ambi40.png","三角","simultaneous",""
"","","","","","html-keyboard-response","216","621812","0.0-13.0-2.0-1.0-0.0-1.28","null","<span style='color:GreenYellow; font-size: 70px;'>正确! </span>","null","","","","","","","","","","","","","","","","","","","","","","","feedback_test"
"","","","","","psychophysics","217","623293","0.0-13.0-2.0-1.0-0.0-0.29","477","","f","","","","","","","","","","","","","key","f","16.66918181818222","640","356","f","true","img/T_ambi40.png","方形","simultaneous",""
"","","","","","html-keyboard-response","218","623610","0.0-13.0-2.0-1.0-0.0-1.29","null","<span style='color:GreenYellow; font-size: 70px;'>正确! </span>","null","","","","","","","","","","","","","","","","","","","","","","","feedback_test"
"","","","","","psychophysics","219","625350","0.0-13.0-2.0-1.0-0.0-0.30","738","","j","","","","","","","","","","","","","key","j","16.669233009708567","640","356","j","true","img/S_ambi40.png","方形","simultaneous",""
"","","","","","html-keyboard-response","220","625661","0.0-13.0-2.0-1.0-0.0-1.30","null","<span style='color:GreenYellow; font-size: 70px;'>正确! </span>","null","","","","","","","","","","","","","","","","","","","","","","","feedback_test"
"","","","","","psychophysics","221","627427","0.0-13.0-2.0-1.0-0.0-0.31","763","","j","","","","","","","","","","","","","key","j","16.669009523809933","640","356","j","true","img/C_ambi40.png","圆形","simultaneous",""
"","","","","","html-keyboard-response","222","627740","0.0-13.0-2.0-1.0-0.0-1.31","null","<span style='color:GreenYellow; font-size: 70px;'>正确! </span>","null","","","","","","","","","","","","","","","","","","","","","","","feedback_test"
"","","","","","psychophysics","223","629270","0.0-13.0-2.0-1.0-0.0-0.32","528","","j","","","","","","","","","","","","","key","j","16.53535555555589","640","356","f","false","img/S_ambi40.png","圆形","simultaneous",""
"","","","","","html-keyboard-response","224","629584","0.0-13.0-2.0-1.0-0.0-1.32","null","<span style='color:red; font-size: 70px;'>错误! </span>","null","","","","","","","","","","","","","","","","","","","","","","","feedback_test"
"","","","","","psychophysics","225","631407","0.0-13.0-2.0-1.0-0.0-0.33","815","","f","","","","","","","","","","","","","key","f","16.670055555554832","640","356","f","true","img/C_ambi40.png","方形","simultaneous",""
"","","","","","html-keyboard-response","226","631712","0.0-13.0-2.0-1.0-0.0-1.33","null","<span style='color:GreenYellow; font-size: 70px;'>正确! </span>","null","","","","","","","","","","","","","","","","","","","","","","","feedback_test"
"","","","","","psychophysics","227","633748","0.0-13.0-2.0-1.0-0.0-0.34","1029","","f","","","","","","","","","","","","","key","f","16.669413223140104","640","356","f","true","img/T_ambi40.png","圆形","simultaneous",""
"","","","","","html-keyboard-response","228","634059","0.0-13.0-2.0-1.0-0.0-1.34","null","<span style='color:GreenYellow; font-size: 70px;'>正确! </span>","null","","","","","","","","","","","","","","","","","","","","","","","feedback_test"
"","","","","","psychophysics","229","635728","0.0-13.0-2.0-1.0-0.0-0.35","667","","j","","","","","","","","","","","","","key","j","16.669282828282444","640","356","j","true","img/S_ambi40.png","方形","simultaneous",""
"","","","","","html-keyboard-response","230","636034","0.0-13.0-2.0-1.0-0.0-1.35","null","<span style='color:GreenYellow; font-size: 70px;'>正确! </span>","null","","","","","","","","","","","","","","","","","","","","","","","feedback_test"
"","","","","","psychophysics","231","637626","0.0-13.0-2.0-1.0-0.0-0.36","587","","j","","","","","","","","","","","","","key","j","16.66915957446884","640","356","j","true","img/T_ambi40.png","三角","simultaneous",""
"","","","","","html-keyboard-response","232","637930","0.0-13.0-2.0-1.0-0.0-1.36","null","<span style='color:GreenYellow; font-size: 70px;'>正确! </span>","null","","","","","","","","","","","","","","","","","","","","","","","feedback_test"
"","","","","","psychophysics","233","639523","0.0-13.0-2.0-1.0-0.0-0.37","587","","f","","","","","","","","","","","","","key","f","16.669489361702446","640","356","f","true","img/T_ambi40.png","方形","simultaneous",""
"","","","","","html-keyboard-response","234","639834","0.0-13.0-2.0-1.0-0.0-1.37","null","<span style='color:GreenYellow; font-size: 70px;'>正确! </span>","null","","","","","","","","","","","","","","","","","","","","","","","feedback_test"
"","","","","","psychophysics","235","641598","0.0-13.0-2.0-1.0-0.0-0.38","757","","j","","","","","","","","","","","","","key","j","16.66939047619013","640","356","f","false","img/S_ambi40.png","三角","simultaneous",""
"","","","","","html-keyboard-response","236","641912","0.0-13.0-2.0-1.0-0.0-1.38","null","<span style='color:red; font-size: 70px;'>错误! </span>","null","","","","","","","","","","","","","","","","","","","","","","","feedback_test"
"","","","","","psychophysics","237","643530","0.0-13.0-2.0-1.0-0.0-0.39","617","","f","","","","","","","","","","","","","key","f","16.669281250000495","640","356","f","true","img/T_ambi40.png","圆形","simultaneous",""
"","","","","","html-keyboard-response","238","643832","0.0-13.0-2.0-1.0-0.0-1.39","null","<span style='color:GreenYellow; font-size: 70px;'>正确! </span>","null","","","","","","","","","","","","","","","","","","","","","","","feedback_test"
"","","","","","psychophysics","239","645476","0.0-13.0-2.0-1.0-0.0-0.40","637","","j","","","","","","","","","","","","","key","j","16.66875257731905","640","356","j","true","img/C_ambi40.png","圆形","simultaneous",""
"","","","","","html-keyboard-response","240","645792","0.0-13.0-2.0-1.0-0.0-1.40","null","<span style='color:GreenYellow; font-size: 70px;'>正确! </span>","null","","","","","","","","","","","","","","","","","","","","","","","feedback_test"
"","","","","","psychophysics","241","647473","0.0-13.0-2.0-1.0-0.0-0.41","678","","j","","","","","","","","","","","","","key","j","16.669869999999648","640","356","j","true","img/S_ambi40.png","方形","simultaneous",""
"","","","","","html-keyboard-response","242","647776","0.0-13.0-2.0-1.0-0.0-1.41","null","<span style='color:GreenYellow; font-size: 70px;'>正确! </span>","null","","","","","","","","","","","","","","","","","","","","","","","feedback_test"
"","","","","","psychophysics","243","649802","0.0-13.0-2.0-1.0-0.0-0.42","1023","","f","","","","","","","","","","","","","key","f","16.66990909090916","640","356","f","true","img/C_ambi40.png","三角","simultaneous",""
"","","","","","html-keyboard-response","244","650116","0.0-13.0-2.0-1.0-0.0-1.42","null","<span style='color:GreenYellow; font-size: 70px;'>正确! </span>","null","","","","","","","","","","","","","","","","","","","","","","","feedback_test"
"","","","","","psychophysics","245","652097","0.0-13.0-2.0-1.0-0.0-0.43","977","","f","","","","","","","","","","","","","key","f","16.669813559321543","640","356","f","true","img/C_ambi40.png","方形","simultaneous",""
"","","","","","html-keyboard-response","246","652410","0.0-13.0-2.0-1.0-0.0-1.43","null","<span style='color:GreenYellow; font-size: 70px;'>正确! </span>","null","","","","","","","","","","","","","","","","","","","","","","","feedback_test"
"","","","","","psychophysics","247","653933","0.0-13.0-2.0-1.0-0.0-0.44","520","","j","","","","","","","","","","","","","key","j","16.669483516482984","640","356","f","false","img/S_ambi40.png","圆形","simultaneous",""
"","","","","","html-keyboard-response","248","654240","0.0-13.0-2.0-1.0-0.0-1.44","null","<span style='color:red; font-size: 70px;'>错误! </span>","null","","","","","","","","","","","","","","","","","","","","","","","feedback_test"
"","","","","","psychophysics","249","655972","0.0-13.0-2.0-1.0-0.0-0.45","726","","j","","","","","","","","","","","","","key","j","16.668699029126675","640","356","j","true","img/C_ambi40.png","圆形","simultaneous",""
"","","","","","html-keyboard-response","250","656284","0.0-13.0-2.0-1.0-0.0-1.45","null","<span style='color:GreenYellow; font-size: 70px;'>正确! </span>","null","","","","","","","","","","","","","","","","","","","","","","","feedback_test"
"","","","","","psychophysics","251","657919","0.0-13.0-2.0-1.0-0.0-0.46","631","","f","","","","","","","","","","","","","key","f","16.67135051546316","640","356","j","false","img/S_ambi40.png","方形","simultaneous",""
"","","","","","html-keyboard-response","252","658237","0.0-13.0-2.0-1.0-0.0-1.46","null","<span style='color:red; font-size: 70px;'>错误! </span>","null","","","","","","","","","","","","","","","","","","","","","","","feedback_test"
"","","","","","psychophysics","253","659829","0.0-13.0-2.0-1.0-0.0-0.47","589","","j","","","","","","","","","","","","","key","j","16.669361702126867","640","356","j","true","img/T_ambi40.png","三角","simultaneous",""
"","","","","","html-keyboard-response","254","660138","0.0-13.0-2.0-1.0-0.0-1.47","null","<span style='color:GreenYellow; font-size: 70px;'>正确! </span>","null","","","","","","","","","","","","","","","","","","","","","","","feedback_test"
"","","","","","psychophysics","255","661764","0.0-13.0-2.0-1.0-0.0-0.48","620","","j","","","","","","","","","","","","","key","j","16.669270833333332","640","356","j","true","img/T_ambi40.png","三角","simultaneous",""
"","","","","","html-keyboard-response","256","662077","0.0-13.0-2.0-1.0-0.0-1.48","null","<span style='color:GreenYellow; font-size: 70px;'>正确! </span>","null","","","","","","","","","","","","","","","","","","","","","","","feedback_test"
"","","","","","psychophysics","257","663570","0.0-13.0-2.0-1.0-0.0-0.49","489","","j","","","","","","","","","","","","","key","j","16.669370786517106","640","356","j","true","img/T_ambi40.png","三角","simultaneous",""
"","","","","","html-keyboard-response","258","663881","0.0-13.0-2.0-1.0-0.0-1.49","null","<span style='color:GreenYellow; font-size: 70px;'>正确! </span>","null","","","","","","","","","","","","","","","","","","","","","","","feedback_test"
"","","","","","psychophysics","259","665544","0.0-13.0-2.0-1.0-0.0-0.50","661","","f","","","","","","","","","","","","","key","f","16.669377551019686","640","356","f","true","img/C_ambi40.png","方形","simultaneous",""
"","","","","","html-keyboard-response","260","665852","0.0-13.0-2.0-1.0-0.0-1.50","null","<span style='color:GreenYellow; font-size: 70px;'>正确! </span>","null","","","","","","","","","","","","","","","","","","","","","","","feedback_test"
"","","","","","psychophysics","261","667489","0.0-13.0-2.0-1.0-0.0-0.51","634","","j","","","","","","","","","","","","","key","j","16.66954639175254","640","356","j","true","img/C_ambi40.png","圆形","simultaneous",""
"","","","","","html-keyboard-response","262","667806","0.0-13.0-2.0-1.0-0.0-1.51","null","<span style='color:GreenYellow; font-size: 70px;'>正确! </span>","null","","","","","","","","","","","","","","","","","","","","","","","feedback_test"
"","","","","","psychophysics","263","669256","0.0-13.0-2.0-1.0-0.0-0.52","448","","j","","","","","","","","","","","","","key","j","16.668523255814147","640","356","j","true","img/C_ambi40.png","圆形","simultaneous",""
"","","","","","html-keyboard-response","264","669572","0.0-13.0-2.0-1.0-0.0-1.52","null","<span style='color:GreenYellow; font-size: 70px;'>正确! </span>","null","","","","","","","","","","","","","","","","","","","","","","","feedback_test"
"","","","","","psychophysics","265","670996","0.0-13.0-2.0-1.0-0.0-0.53","421","","f","","","","","","","","","","","","","key","f","16.668749999999168","640","356","j","false","img/S_ambi40.png","方形","simultaneous",""
"","","","","","html-keyboard-response","266","671312","0.0-13.0-2.0-1.0-0.0-1.53","null","<span style='color:red; font-size: 70px;'>错误! </span>","null","","","","","","","","","","","","","","","","","","","","","","","feedback_test"
"","","","","","psychophysics","267","673038","0.0-13.0-2.0-1.0-0.0-0.54","722","","f","","","","","","","","","","","","","key","f","16.66831067961062","640","356","f","true","img/S_ambi40.png","圆形","simultaneous",""
"","","","","","html-keyboard-response","268","673351","0.0-13.0-2.0-1.0-0.0-1.54","null","<span style='color:GreenYellow; font-size: 70px;'>正确! </span>","null","","","","","","","","","","","","","","","","","","","","","","","feedback_test"
"","","","","","psychophysics","269","675169","0.0-13.0-2.0-1.0-0.0-0.55","809","","j","","","","","","","","","","","","","key","j","16.66756481481436","640","356","f","false","img/T_ambi40.png","圆形","simultaneous",""
"","","","","","html-keyboard-response","270","675485","0.0-13.0-2.0-1.0-0.0-1.55","null","<span style='color:red; font-size: 70px;'>错误! </span>","null","","","","","","","","","","","","","","","","","","","","","","","feedback_test"
"","","","","","psychophysics","271","677581","0.0-13.0-2.0-1.0-0.0-0.56","1094","","f","","","","","","","","","","","","","key","f","16.668903225806595","640","356","f","true","img/S_ambi40.png","三角","simultaneous",""
"","","","","","html-keyboard-response","272","677889","0.0-13.0-2.0-1.0-0.0-1.56","null","<span style='color:GreenYellow; font-size: 70px;'>正确! </span>","null","","","","","","","","","","","","","","","","","","","","","","","feedback_test"
"","","","","","psychophysics","273","679615","0.0-13.0-2.0-1.0-0.0-0.57","719","","j","","","","","","","","","","","","","key","j","16.669813725490158","640","356","f","false","img/T_ambi40.png","方形","simultaneous",""
"","","","","","html-keyboard-response","274","679927","0.0-13.0-2.0-1.0-0.0-1.57","null","<span style='color:red; font-size: 70px;'>错误! </span>","null","","","","","","","","","","","","","","","","","","","","","","","feedback_test"
"","","","","","psychophysics","275","681528","0.0-13.0-2.0-1.0-0.0-0.58","594","","j","","","","","","","","","","","","","key","j","16.67004210526295","640","356","j","true","img/S_ambi40.png","方形","simultaneous",""
"","","","","","html-keyboard-response","276","681837","0.0-13.0-2.0-1.0-0.0-1.58","null","<span style='color:GreenYellow; font-size: 70px;'>正确! </span>","null","","","","","","","","","","","","","","","","","","","","","","","feedback_test"
"","","","","","psychophysics","277","683425","0.0-13.0-2.0-1.0-0.0-0.59","585","","f","","","","","","","","","","","","","key","f","16.668882978723403","640","356","f","true","img/C_ambi40.png","三角","simultaneous",""
"","","","","","html-keyboard-response","278","683736","0.0-13.0-2.0-1.0-0.0-1.59","null","<span style='color:GreenYellow; font-size: 70px;'>正确! </span>","null","","","","","","","","","","","","","","","","","","","","","","","feedback_test"
"","","","","","html-keyboard-response","279","686327","0.0-13.0-2.0-1.0-1.0","2590","<style>.context{color:white; font-size: 35px; line-height:40px}</style>                            <div><p class='context'>您正确回答了87% 的试次。</p><p class='context'>您的平均反应时为704毫秒。</p><p class='context'>请按任意键进入休息</p></div>"," ","","","","","","","","","","","","","","","","","","","","","","",""
"","","","","","html-button-response","280","812775","0.0-13.0-2.0-1.0-2.0","126446","
                    <p>您当前还剩余3组实验</p>
                    <p>现在是休息时间，当您结束休息后，您可以点击 结束休息 按钮 继续</p>
                    <p>建议休息时间还剩余<span id=""iii"">60</span>秒</p>","0","","","","","","","","","","","","","","","","","","","","","","",""
"","","","","","psychophysics","281","815281","0.0-13.0-2.0-1.0-0.1-0.60","null","","null","","","","","","","","","","","","","key","null","16.669389261745366","640","356","j","false","img/C_ambi40.png","圆形","simultaneous",""
"","","","","","html-keyboard-response","282","815590","0.0-13.0-2.0-1.0-0.1-1.60","null","<span class='add_' style='color:yellow; font-size: 70px;'> 太慢! </span>","null","","","","","","","","","","","","","","","","","","","","","","","feedback_test"
"","","","","","psychophysics","283","817286","0.0-13.0-2.0-1.0-0.1-0.61","685","","j","","","","","","","","","","","","","key","j","16.668980000000445","640","356","j","true","img/T_ambi40.png","三角","simultaneous",""
"","","","","","html-keyboard-response","284","817601","0.0-13.0-2.0-1.0-0.1-1.61","null","<span style='color:GreenYellow; font-size: 70px;'>正确! </span>","null","","","","","","","","","","","","","","","","","","","","","","","feedback_test"
"","","","","","psychophysics","285","819496","0.0-13.0-2.0-1.0-0.1-0.62","891","","f","","","","","","","","","","","","","key","f","16.668956140351376","640","356","f","true","img/S_ambi40.png","圆形","simultaneous",""
"","","","","","html-keyboard-response","286","819811","0.0-13.0-2.0-1.0-0.1-1.62","null","<span style='color:GreenYellow; font-size: 70px;'>正确! </span>","null","","","","","","","","","","","","","","","","","","","","","","","feedback_test"
"","","","","","psychophysics","287","821466","0.0-13.0-2.0-1.0-0.1-0.63","650","","j","","","","","","","","","","","","","key","j","16.66845918367308","640","356","j","true","img/C_ambi40.png","圆形","simultaneous",""
"","","","","","html-keyboard-response","288","821778","0.0-13.0-2.0-1.0-0.1-1.63","null","<span style='color:GreenYellow; font-size: 70px;'>正确! </span>","null","","","","","","","","","","","","","","","","","","","","","","","feedback_test"
"","","","","","psychophysics","289","823428","0.0-13.0-2.0-1.0-0.1-0.64","645","","j","","","","","","","","","","","","","key","j","16.670000000000332","640","356","j","true","img/S_ambi40.png","方形","simultaneous",""
"","","","","","html-keyboard-response","290","823745","0.0-13.0-2.0-1.0-0.1-1.64","null","<span style='color:GreenYellow; font-size: 70px;'>正确! </span>","null","","","","","","","","","","","","","","","","","","","","","","","feedback_test"
"","","","","","psychophysics","291","825394","0.0-13.0-2.0-1.0-0.1-0.65","641","","f","","","","","","","","","","","","","key","f","16.67130612244839","640","356","f","true","img/C_ambi40.png","三角","simultaneous",""
"","","","","","html-keyboard-response","292","825705","0.0-13.0-2.0-1.0-0.1-1.65","null","<span style='color:GreenYellow; font-size: 70px;'>正确! </span>","null","","","","","","","","","","","","","","","","","","","","","","","feedback_test"
"","","","","","psychophysics","293","827498","0.0-13.0-2.0-1.0-0.1-0.66","791","","f","","","","","","","","","","","","","key","f","16.666584905660887","640","356","f","true","img/S_ambi40.png","三角","simultaneous",""
"","","","","","html-keyboard-response","294","827802","0.0-13.0-2.0-1.0-0.1-1.66","null","<span style='color:GreenYellow; font-size: 70px;'>正确! </span>","null","","","","","","","","","","","","","","","","","","","","","","","feedback_test"
"","","","","","psychophysics","295","829573","0.0-13.0-2.0-1.0-0.1-0.67","767","","f","","","","","","","","","","","","","key","f","16.669809523810233","640","356","f","true","img/C_ambi40.png","方形","simultaneous",""
"","","","","","html-keyboard-response","296","829894","0.0-13.0-2.0-1.0-0.1-1.67","null","<span style='color:GreenYellow; font-size: 70px;'>正确! </span>","null","","","","","","","","","","","","","","","","","","","","","","","feedback_test"
"","","","","","psychophysics","297","831700","0.0-13.0-2.0-1.0-0.1-0.68","804","","f","","","","","","","","","","","","","key","f","16.66794392523447","640","356","f","true","img/T_ambi40.png","圆形","simultaneous",""
"","","","","","html-keyboard-response","298","832017","0.0-13.0-2.0-1.0-0.1-1.68","null","<span style='color:GreenYellow; font-size: 70px;'>正确! </span>","null","","","","","","","","","","","","","","","","","","","","","","","feedback_test"
"","","","","","psychophysics","299","833662","0.0-13.0-2.0-1.0-0.1-0.69","636","","j","","","","","","","","","","","","","key","j","16.66940816326485","640","356","j","true","img/S_ambi40.png","方形","simultaneous",""
"","","","","","html-keyboard-response","300","833979","0.0-13.0-2.0-1.0-0.1-1.69","null","<span style='color:GreenYellow; font-size: 70px;'>正确! </span>","null","","","","","","","","","","","","","","","","","","","","","","","feedback_test"
"","","","","","psychophysics","301","835597","0.0-13.0-2.0-1.0-0.1-0.70","614","","j","","","","","","","","","","","","","key","j","16.669385416667257","640","356","j","true","img/T_ambi40.png","三角","simultaneous",""
"","","","","","html-keyboard-response","302","835917","0.0-13.0-2.0-1.0-0.1-1.70","null","<span style='color:GreenYellow; font-size: 70px;'>正确! </span>","null","","","","","","","","","","","","","","","","","","","","","","","feedback_test"
"","","","","","psychophysics","303","837706","0.0-13.0-2.0-1.0-0.1-0.71","786","","f","","","","","","","","","","","","","key","f","16.66880188679283","640","356","f","true","img/T_ambi40.png","方形","simultaneous",""
"","","","","","html-keyboard-response","304","838009","0.0-13.0-2.0-1.0-0.1-1.71","null","<span style='color:GreenYellow; font-size: 70px;'>正确! </span>","null","","","","","","","","","","","","","","","","","","","","","","","feedback_test"
"","","","","","psychophysics","305","839690","0.0-13.0-2.0-1.0-0.1-0.72","674","","j","","","","","","","","","","","","","key","j","16.66874747474753","640","356","j","true","img/C_ambi40.png","圆形","simultaneous",""
"","","","","","html-keyboard-response","306","840006","0.0-13.0-2.0-1.0-0.1-1.72","null","<span style='color:GreenYellow; font-size: 70px;'>正确! </span>","null","","","","","","","","","","","","","","","","","","","","","","","feedback_test"
"","","","","","psychophysics","307","842186","0.0-13.0-2.0-1.0-0.1-0.73","1178","","f","","","","","","","","","","","","","key","f","16.669461538461753","640","356","f","true","img/T_ambi40.png","方形","simultaneous",""
"","","","","","html-keyboard-response","308","842497","0.0-13.0-2.0-1.0-0.1-1.73","null","<span style='color:GreenYellow; font-size: 70px;'>正确! </span>","null","","","","","","","","","","","","","","","","","","","","","","","feedback_test"
"","","","","","psychophysics","309","844478","0.0-13.0-2.0-1.0-0.1-0.74","974","","f","","","","","","","","","","","","","key","f","16.669322033898148","640","356","f","true","img/S_ambi40.png","圆形","simultaneous",""
"","","","","","html-keyboard-response","310","844789","0.0-13.0-2.0-1.0-0.1-1.74","null","<span style='color:GreenYellow; font-size: 70px;'>正确! </span>","null","","","","","","","","","","","","","","","","","","","","","","","feedback_test"
"","","","","","psychophysics","311","846369","0.0-13.0-2.0-1.0-0.1-0.75","577","","j","","","","","","","","","","","","","key","j","16.669393617022","640","356","j","true","img/C_ambi40.png","圆形","simultaneous",""
"","","","","","html-keyboard-response","312","846682","0.0-13.0-2.0-1.0-0.1-1.75","null","<span style='color:GreenYellow; font-size: 70px;'>正确! </span>","null","","","","","","","","","","","","","","","","","","","","","","","feedback_test"
"","","","","","psychophysics","313","848245","0.0-13.0-2.0-1.0-0.1-0.76","557","","j","","","","","","","","","","","","","key","j","16.66930107527002","640","356","j","true","img/T_ambi40.png","三角","simultaneous",""
"","","","","","html-keyboard-response","314","848558","0.0-13.0-2.0-1.0-0.1-1.76","null","<span style='color:GreenYellow; font-size: 70px;'>正确! </span>","null","","","","","","","","","","","","","","","","","","","","","","","feedback_test"
"","","","","","psychophysics","315","850264","0.0-13.0-2.0-1.0-0.1-0.77","705","","f","","","","","","","","","","","","","key","f","16.53573267326672","640","356","f","true","img/C_ambi40.png","方形","simultaneous",""
"","","","","","html-keyboard-response","316","850587","0.0-13.0-2.0-1.0-0.1-1.77","null","<span style='color:GreenYellow; font-size: 70px;'>正确! </span>","null","","","","","","","","","","","","","","","","","","","","","","","feedback_test"
"","","","","","psychophysics","317","852172","0.0-13.0-2.0-1.0-0.1-0.78","580","","j","","","","","","","","","","","","","key","j","16.669351063829726","640","356","f","false","img/S_ambi40.png","三角","simultaneous",""
"","","","","","html-keyboard-response","318","852490","0.0-13.0-2.0-1.0-0.1-1.78","null","<span style='color:red; font-size: 70px;'>错误! </span>","null","","","","","","","","","","","","","","","","","","","","","","","feedback_test"
"","","","","","psychophysics","319","854078","0.0-13.0-2.0-1.0-0.1-0.79","585","","j","","","","","","","","","","","","","key","j","16.669861702127086","640","356","j","true","img/T_ambi40.png","三角","simultaneous",""
"","","","","","html-keyboard-response","320","854390","0.0-13.0-2.0-1.0-0.1-1.79","null","<span style='color:GreenYellow; font-size: 70px;'>正确! </span>","null","","","","","","","","","","","","","","","","","","","","","","","feedback_test"
"","","","","","psychophysics","321","856019","0.0-13.0-2.0-1.0-0.1-0.80","626","","f","","","","","","","","","","","","","key","f","16.670010309278744","640","356","f","true","img/T_ambi40.png","圆形","simultaneous",""
"","","","","","html-keyboard-response","322","856341","0.0-13.0-2.0-1.0-0.1-1.80","null","<span style='color:GreenYellow; font-size: 70px;'>正确! </span>","null","","","","","","","","","","","","","","","","","","","","","","","feedback_test"
"","","","","","psychophysics","323","858022","0.0-13.0-2.0-1.0-0.1-0.81","677","","j","","","","","","","","","","","","","key","j","16.670389999999898","640","356","j","true","img/S_ambi40.png","方形","simultaneous",""
"","","","","","html-keyboard-response","324","858335","0.0-13.0-2.0-1.0-0.1-1.81","null","<span style='color:GreenYellow; font-size: 70px;'>正确! </span>","null","","","","","","","","","","","","","","","","","","","","","","","feedback_test"
"","","","","","psychophysics","325","860017","0.0-13.0-2.0-1.0-0.1-0.82","673","","j","","","","","","","","","","","","","key","j","16.669220000000205","640","356","j","true","img/S_ambi40.png","方形","simultaneous",""
"","","","","","html-keyboard-response","326","860327","0.0-13.0-2.0-1.0-0.1-1.82","null","<span style='color:GreenYellow; font-size: 70px;'>正确! </span>","null","","","","","","","","","","","","","","","","","","","","","","","feedback_test"
"","","","","","psychophysics","327","862006","0.0-13.0-2.0-1.0-0.1-0.83","678","","f","","","","","","","","","","","","","key","f","16.542181818181593","640","356","f","true","img/C_ambi40.png","三角","simultaneous",""
"","","","","","html-keyboard-response","328","862313","0.0-13.0-2.0-1.0-0.1-1.83","null","<span style='color:GreenYellow; font-size: 70px;'>正确! </span>","null","","","","","","","","","","","","","","","","","","","","","","","feedback_test"
"","","","","","psychophysics","329","864007","0.0-13.0-2.0-1.0-0.1-0.84","687","","f","","","","","","","","","","","","","key","f","16.669490000000224","640","356","f","true","img/S_ambi40.png","圆形","simultaneous",""
"","","","","","html-keyboard-response","330","864311","0.0-13.0-2.0-1.0-0.1-1.84","null","<span style='color:GreenYellow; font-size: 70px;'>正确! </span>","null","","","","","","","","","","","","","","","","","","","","","","","feedback_test"
"","","","","","psychophysics","331","865931","0.0-13.0-2.0-1.0-0.1-0.85","618","","j","","","","","","","","","","","","","key","j","16.669270833333332","640","356","j","true","img/C_ambi40.png","圆形","simultaneous",""
"","","","","","html-keyboard-response","332","866241","0.0-13.0-2.0-1.0-0.1-1.85","null","<span style='color:GreenYellow; font-size: 70px;'>正确! </span>","null","","","","","","","","","","","","","","","","","","","","","","","feedback_test"
"","","","","","psychophysics","333","867817","0.0-13.0-2.0-1.0-0.1-0.86","571","","j","","","","","","","","","","","","","key","j","16.668852631578613","640","356","j","true","img/S_ambi40.png","方形","simultaneous",""
"","","","","","html-keyboard-response","334","868135","0.0-13.0-2.0-1.0-0.1-1.86","null","<span style='color:GreenYellow; font-size: 70px;'>正确! </span>","null","","","","","","","","","","","","","","","","","","","","","","","feedback_test"
"","","","","","psychophysics","335","869774","0.0-13.0-2.0-1.0-0.1-0.87","630","","f","","","","","","","","","","","","","key","f","16.66862886597897","640","356","f","true","img/T_ambi40.png","圆形","simultaneous",""
"","","","","","html-keyboard-response","336","870088","0.0-13.0-2.0-1.0-0.1-1.87","null","<span style='color:GreenYellow; font-size: 70px;'>正确! </span>","null","","","","","","","","","","","","","","","","","","","","","","","feedback_test"
"","","","","","psychophysics","337","871863","0.0-13.0-2.0-1.0-0.1-0.88","767","","j","","","","","","","","","","","","","key","j","16.6687075471701","640","356","j","true","img/T_ambi40.png","三角","simultaneous",""
"","","","","","html-keyboard-response","338","872181","0.0-13.0-2.0-1.0-0.1-1.88","null","<span style='color:GreenYellow; font-size: 70px;'>正确! </span>","null","","","","","","","","","","","","","","","","","","","","","","","feedback_test"
"","","","","","psychophysics","339","873973","0.0-13.0-2.0-1.0-0.1-0.89","791","","f","","","","","","","","","","","","","key","f","16.669235849056726","640","356","f","true","img/S_ambi40.png","三角","simultaneous",""
"","","","","","html-keyboard-response","340","874293","0.0-13.0-2.0-1.0-0.1-1.89","null","<span style='color:GreenYellow; font-size: 70px;'>正确! </span>","null","","","","","","","","","","","","","","","","","","","","","","","feedback_test"
"","","","","","psychophysics","341","875936","0.0-13.0-2.0-1.0-0.1-0.90","639","","j","","","","","","","","","","","","","key","j","16.668642857142878","640","356","j","true","img/C_ambi40.png","圆形","simultaneous",""
"","","","","","html-keyboard-response","342","876245","0.0-13.0-2.0-1.0-0.1-1.90","null","<span style='color:GreenYellow; font-size: 70px;'>正确! </span>","null","","","","","","","","","","","","","","","","","","","","","","","feedback_test"
"","","","","","psychophysics","343","877910","0.0-13.0-2.0-1.0-0.1-0.91","662","","f","","","","","","","","","","","","","key","f","16.66882828282865","640","356","f","true","img/C_ambi40.png","方形","simultaneous",""
"","","","","","html-keyboard-response","344","878227","0.0-13.0-2.0-1.0-0.1-1.91","null","<span style='color:GreenYellow; font-size: 70px;'>正确! </span>","null","","","","","","","","","","","","","","","","","","","","","","","feedback_test"
"","","","","","psychophysics","345","879995","0.0-13.0-2.0-1.0-0.1-0.92","763","","f","","","","","","","","","","","","","key","f","16.667961904762446","640","356","f","true","img/T_ambi40.png","方形","simultaneous",""
"","","","","","html-keyboard-response","346","880307","0.0-13.0-2.0-1.0-0.1-1.92","null","<span style='color:GreenYellow; font-size: 70px;'>正确! </span>","null","","","","","","","","","","","","","","","","","","","","","","","feedback_test"
"","","","","","psychophysics","347","881980","0.0-13.0-2.0-1.0-0.1-0.93","668","","j","","","","","","","","","","","","","key","j","16.67108080807998","640","356","j","true","img/S_ambi40.png","方形","simultaneous",""
"","","","","","html-keyboard-response","348","882288","0.0-13.0-2.0-1.0-0.1-1.93","null","<span style='color:GreenYellow; font-size: 70px;'>正确! </span>","null","","","","","","","","","","","","","","","","","","","","","","","feedback_test"
"","","","","","psychophysics","349","883880","0.0-13.0-2.0-1.0-0.1-0.94","585","","j","","","","","","","","","","","","","key","j","16.669223404255387","640","356","j","true","img/T_ambi40.png","三角","simultaneous",""
"","","","","","html-keyboard-response","350","884185","0.0-13.0-2.0-1.0-0.1-1.94","null","<span style='color:GreenYellow; font-size: 70px;'>正确! </span>","null","","","","","","","","","","","","","","","","","","","","","","","feedback_test"
"","","","","","psychophysics","351","885786","0.0-13.0-2.0-1.0-0.1-0.95","593","","f","","","","","","","","","","","","","key","f","16.66986315789461","640","356","f","true","img/C_ambi40.png","三角","simultaneous",""
"","","","","","html-keyboard-response","352","886099","0.0-13.0-2.0-1.0-0.1-1.95","null","<span style='color:GreenYellow; font-size: 70px;'>正确! </span>","null","","","","","","","","","","","","","","","","","","","","","","","feedback_test"
"","","","","","psychophysics","353","888004","0.0-13.0-2.0-1.0-0.1-0.96","903","","f","","","","","","","","","","","","","key","f","16.669592920353892","640","356","f","true","img/C_ambi40.png","三角","simultaneous",""
"","","","","","html-keyboard-response","354","888324","0.0-13.0-2.0-1.0-0.1-1.96","null","<span style='color:GreenYellow; font-size: 70px;'>正确! </span>","null","","","","","","","","","","","","","","","","","","","","","","","feedback_test"
"","","","","","psychophysics","355","889837","0.0-13.0-2.0-1.0-0.1-0.97","508","","j","","","","","","","","","","","","","key","j","16.66719999999946","640","356","j","true","img/C_ambi40.png","圆形","simultaneous",""
"","","","","","html-keyboard-response","356","890154","0.0-13.0-2.0-1.0-0.1-1.97","null","<span style='color:GreenYellow; font-size: 70px;'>正确! </span>","null","","","","","","","","","","","","","","","","","","","","","","","feedback_test"
"","","","","","psychophysics","357","891977","0.0-13.0-2.0-1.0-0.1-0.98","816","","f","","","","","","","","","","","","","key","f","16.66914814814852","640","356","f","true","img/S_ambi40.png","三角","simultaneous",""
"","","","","","html-keyboard-response","358","892288","0.0-13.0-2.0-1.0-0.1-1.98","null","<span style='color:GreenYellow; font-size: 70px;'>正确! </span>","null","","","","","","","","","","","","","","","","","","","","","","","feedback_test"
"","","","","","psychophysics","359","893869","0.0-13.0-2.0-1.0-0.1-0.99","573","","j","","","","","","","","","","","","","key","j","16.668882978723403","640","356","j","true","img/S_ambi40.png","方形","simultaneous",""
"","","","","","html-keyboard-response","360","894184","0.0-13.0-2.0-1.0-0.1-1.99","null","<span style='color:GreenYellow; font-size: 70px;'>正确! </span>","null","","","","","","","","","","","","","","","","","","","","","","","feedback_test"
"","","","","","psychophysics","361","895784","0.0-13.0-2.0-1.0-0.1-0.100","598","","j","","","","","","","","","","","","","key","j","16.668276595744363","640","356","j","true","img/T_ambi40.png","三角","simultaneous",""
"","","","","","html-keyboard-response","362","896093","0.0-13.0-2.0-1.0-0.1-1.100","null","<span style='color:GreenYellow; font-size: 70px;'>正确! </span>","null","","","","","","","","","","","","","","","","","","","","","","","feedback_test"
"","","","","","psychophysics","363","897603","0.0-13.0-2.0-1.0-0.1-0.101","506","","j","","","","","","","","","","","","","key","j","16.666955555556342","640","356","j","true","img/T_ambi40.png","三角","simultaneous",""
"","","","","","html-keyboard-response","364","897921","0.0-13.0-2.0-1.0-0.1-1.101","null","<span style='color:GreenYellow; font-size: 70px;'>正确! </span>","null","","","","","","","","","","","","","","","","","","","","","","","feedback_test"
"","","","","","psychophysics","365","899597","0.0-13.0-2.0-1.0-0.1-0.102","669","","f","","","","","","","","","","","","","key","f","16.670878787878948","640","356","f","true","img/T_ambi40.png","方形","simultaneous",""
"","","","","","html-keyboard-response","366","899905","0.0-13.0-2.0-1.0-0.1-1.102","null","<span style='color:GreenYellow; font-size: 70px;'>正确! </span>","null","","","","","","","","","","","","","","","","","","","","","","","feedback_test"
"","","","","","psychophysics","367","901680","0.0-13.0-2.0-1.0-0.1-0.103","768","","f","","","","","","","","","","","","","key","f","16.671704761904575","640","356","f","true","img/S_ambi40.png","圆形","simultaneous",""
"","","","","","html-keyboard-response","368","901998","0.0-13.0-2.0-1.0-0.1-1.103","null","<span style='color:GreenYellow; font-size: 70px;'>正确! </span>","null","","","","","","","","","","","","","","","","","","","","","","","feedback_test"
"","","","","","psychophysics","369","903930","0.0-13.0-2.0-1.0-0.1-0.104","930","","f","","","","","","","","","","","","","key","f","16.66887826086933","640","356","f","true","img/C_ambi40.png","方形","simultaneous",""
"","","","","","html-keyboard-response","370","904237","0.0-13.0-2.0-1.0-0.1-1.104","null","<span style='color:GreenYellow; font-size: 70px;'>正确! </span>","null","","","","","","","","","","","","","","","","","","","","","","","feedback_test"
"","","","","","psychophysics","371","905887","0.0-13.0-2.0-1.0-0.1-0.105","648","","j","","","","","","","","","","","","","key","j","16.668836734693603","640","356","j","true","img/S_ambi40.png","方形","simultaneous",""
"","","","","","html-keyboard-response","372","906206","0.0-13.0-2.0-1.0-0.1-1.105","null","<span style='color:GreenYellow; font-size: 70px;'>正确! </span>","null","","","","","","","","","","","","","","","","","","","","","","","feedback_test"
"","","","","","psychophysics","373","907843","0.0-13.0-2.0-1.0-0.1-0.106","634","","f","","","","","","","","","","","","","key","f","16.669164948453453","640","356","f","true","img/T_ambi40.png","圆形","simultaneous",""
"","","","","","html-keyboard-response","374","908158","0.0-13.0-2.0-1.0-0.1-1.106","null","<span style='color:GreenYellow; font-size: 70px;'>正确! </span>","null","","","","","","","","","","","","","","","","","","","","","","","feedback_test"
"","","","","","psychophysics","375","909871","0.0-13.0-2.0-1.0-0.1-0.107","709","","j","","","","","","","","","","","","","key","j","16.669137254901752","640","356","j","true","img/C_ambi40.png","圆形","simultaneous",""
"","","","","","html-keyboard-response","376","910181","0.0-13.0-2.0-1.0-0.1-1.107","null","<span style='color:GreenYellow; font-size: 70px;'>正确! </span>","null","","","","","","","","","","","","","","","","","","","","","","","feedback_test"
"","","","","","psychophysics","377","911876","0.0-13.0-2.0-1.0-0.1-0.108","692","","j","","","","","","","","","","","","","key","j","16.66913861386123","640","356","j","true","img/C_ambi40.png","圆形","simultaneous",""
"","","","","","html-keyboard-response","378","912192","0.0-13.0-2.0-1.0-0.1-1.108","null","<span style='color:GreenYellow; font-size: 70px;'>正确! </span>","null","","","","","","","","","","","","","","","","","","","","","","","feedback_test"
"","","","","","psychophysics","379","913770","0.0-13.0-2.0-1.0-0.1-0.109","569","","j","","","","","","","","","","","","","key","j","16.667838709676758","640","356","j","true","img/S_ambi40.png","方形","simultaneous",""
"","","","","","html-keyboard-response","380","914082","0.0-13.0-2.0-1.0-0.1-1.109","null","<span style='color:GreenYellow; font-size: 70px;'>正确! </span>","null","","","","","","","","","","","","","","","","","","","","","","","feedback_test"
"","","","","","psychophysics","381","915965","0.0-13.0-2.0-1.0-0.1-0.110","879","","j","","","","","","","","","","","","","key","j","16.66952678571501","640","356","f","false","img/S_ambi40.png","圆形","simultaneous",""
"","","","","","html-keyboard-response","382","916275","0.0-13.0-2.0-1.0-0.1-1.110","null","<span style='color:red; font-size: 70px;'>错误! </span>","null","","","","","","","","","","","","","","","","","","","","","","","feedback_test"
"","","","","","psychophysics","383","917985","0.0-13.0-2.0-1.0-0.1-0.111","704","","j","","","","","","","","","","","","","key","j","16.670524752475227","640","356","j","true","img/T_ambi40.png","三角","simultaneous",""
"","","","","","html-keyboard-response","384","918295","0.0-13.0-2.0-1.0-0.1-1.111","null","<span style='color:GreenYellow; font-size: 70px;'>正确! </span>","null","","","","","","","","","","","","","","","","","","","","","","","feedback_test"
"","","","","","psychophysics","385","919997","0.0-13.0-2.0-1.0-0.1-0.112","693","","f","","","","","","","","","","","","","key","f","16.6690693069307","640","356","f","true","img/T_ambi40.png","圆形","simultaneous",""
"","","","","","html-keyboard-response","386","920315","0.0-13.0-2.0-1.0-0.1-1.112","null","<span style='color:GreenYellow; font-size: 70px;'>正确! </span>","null","","","","","","","","","","","","","","","","","","","","","","","feedback_test"
"","","","","","psychophysics","387","921900","0.0-13.0-2.0-1.0-0.1-0.113","581","","f","","","","","","","","","","","","","key","f","16.669074468085533","640","356","f","true","img/C_ambi40.png","三角","simultaneous",""
"","","","","","html-keyboard-response","388","922222","0.0-13.0-2.0-1.0-0.1-1.113","null","<span style='color:GreenYellow; font-size: 70px;'>正确! </span>","null","","","","","","","","","","","","","","","","","","","","","","","feedback_test"
"","","","","","psychophysics","389","923890","0.0-13.0-2.0-1.0-0.1-0.114","668","","j","","","","","","","","","","","","","key","j","16.668979797980306","640","356","j","true","img/T_ambi40.png","三角","simultaneous",""
"","","","","","html-keyboard-response","390","924209","0.0-13.0-2.0-1.0-0.1-1.114","null","<span style='color:GreenYellow; font-size: 70px;'>正确! </span>","null","","","","","","","","","","","","","","","","","","","","","","","feedback_test"
"","","","","","psychophysics","391","925937","0.0-13.0-2.0-1.0-0.1-0.115","721","","f","","","","","","","","","","","","","key","f","16.669862745098047","640","356","f","true","img/T_ambi40.png","方形","simultaneous",""
"","","","","","html-keyboard-response","392","926252","0.0-13.0-2.0-1.0-0.1-1.115","null","<span style='color:GreenYellow; font-size: 70px;'>正确! </span>","null","","","","","","","","","","","","","","","","","","","","","","","feedback_test"
"","","","","","psychophysics","393","928067","0.0-13.0-2.0-1.0-0.1-0.116","811","","j","","","","","","","","","","","","","key","j","16.669722222222912","640","356","j","true","img/C_ambi40.png","圆形","simultaneous",""
"","","","","","html-keyboard-response","394","928382","0.0-13.0-2.0-1.0-0.1-1.116","null","<span style='color:GreenYellow; font-size: 70px;'>正确! </span>","null","","","","","","","","","","","","","","","","","","","","","","","feedback_test"
"","","","","","psychophysics","395","930062","0.0-13.0-2.0-1.0-0.1-0.117","677","","f","","","","","","","","","","","","","key","f","16.669400000000607","640","356","f","true","img/C_ambi40.png","方形","simultaneous",""
"","","","","","html-keyboard-response","396","930383","0.0-13.0-2.0-1.0-0.1-1.117","null","<span style='color:GreenYellow; font-size: 70px;'>正确! </span>","null","","","","","","","","","","","","","","","","","","","","","","","feedback_test"
"","","","","","psychophysics","397","932018","0.0-13.0-2.0-1.0-0.1-0.118","628","","j","","","","","","","","","","","","","key","j","16.668938144330973","640","356","f","false","img/S_ambi40.png","三角","simultaneous",""
"","","","","","html-keyboard-response","398","932326","0.0-13.0-2.0-1.0-0.1-1.118","null","<span style='color:red; font-size: 70px;'>错误! </span>","null","","","","","","","","","","","","","","","","","","","","","","","feedback_test"
"","","","","","psychophysics","399","933971","0.0-13.0-2.0-1.0-0.1-0.119","635","","j","","","","","","","","","","","","","key","j","16.669237113401735","640","356","j","true","img/S_ambi40.png","方形","simultaneous",""
"","","","","","html-keyboard-response","400","934286","0.0-13.0-2.0-1.0-0.1-1.119","null","<span style='color:GreenYellow; font-size: 70px;'>正确! </span>","null","","","","","","","","","","","","","","","","","","","","","","","feedback_test"
"","","","","","html-keyboard-response","401","936245","0.0-13.0-2.0-1.0-1.1","1958","<style>.context{color:white; font-size: 35px; line-height:40px}</style>                            <div><p class='context'>您正确回答了93% 的试次。</p><p class='context'>您的平均反应时为693毫秒。</p><p class='context'>请按任意键进入休息</p></div>"," ","","","","","","","","","","","","","","","","","","","","","","",""
"","","","","","html-button-response","402","999590","0.0-13.0-2.0-1.0-2.1","63342","
                    <p>您当前还剩余2组实验</p>
                    <p>现在是休息时间，当您结束休息后，您可以点击 结束休息 按钮 继续</p>
                    <p>建议休息时间还剩余<span id=""iii"">60</span>秒</p>","0","","","","","","","","","","","","","","","","","","","","","","",""
"","","","","","psychophysics","403","1001303","0.0-13.0-2.0-1.0-0.2-0.120","711","","f","","","","","","","","","","","","","key","f","16.66916666666671","640","356","f","true","img/C_ambi40.png","三角","simultaneous",""
"","","","","","html-keyboard-response","404","1001619","0.0-13.0-2.0-1.0-0.2-1.120","null","<span style='color:GreenYellow; font-size: 70px;'>正确! </span>","null","","","","","","","","","","","","","","","","","","","","","","","feedback_test"
"","","","","","psychophysics","405","1003314","0.0-13.0-2.0-1.0-0.2-0.121","690","","f","","","","","","","","","","","","","key","f","16.66772999999928","640","356","f","true","img/C_ambi40.png","方形","simultaneous",""
"","","","","","html-keyboard-response","406","1003622","0.0-13.0-2.0-1.0-0.2-1.121","null","<span style='color:GreenYellow; font-size: 70px;'>正确! </span>","null","","","","","","","","","","","","","","","","","","","","","","","feedback_test"
"","","","","","psychophysics","407","1005250","0.0-13.0-2.0-1.0-0.2-0.122","626","","j","","","","","","","","","","","","","key","j","16.66954166666619","640","356","j","true","img/S_ambi40.png","方形","simultaneous",""
"","","","","","html-keyboard-response","408","1005560","0.0-13.0-2.0-1.0-0.2-1.122","null","<span style='color:GreenYellow; font-size: 70px;'>正确! </span>","null","","","","","","","","","","","","","","","","","","","","","","","feedback_test"
"","","","","","psychophysics","409","1007156","0.0-13.0-2.0-1.0-0.2-0.123","588","","f","","","","","","","","","","","","","key","f","16.66587368421085","640","356","f","true","img/S_ambi40.png","圆形","simultaneous",""
"","","","","","html-keyboard-response","410","1007470","0.0-13.0-2.0-1.0-0.2-1.123","null","<span style='color:GreenYellow; font-size: 70px;'>正确! </span>","null","","","","","","","","","","","","","","","","","","","","","","","feedback_test"
"","","","","","psychophysics","411","1009048","0.0-13.0-2.0-1.0-0.2-0.124","576","","j","","","","","","","","","","","","","key","j","16.669344086020995","640","356","j","true","img/T_ambi40.png","三角","simultaneous",""
"","","","","","html-keyboard-response","412","1009362","0.0-13.0-2.0-1.0-0.2-1.124","null","<span style='color:GreenYellow; font-size: 70px;'>正确! </span>","null","","","","","","","","","","","","","","","","","","","","","","","feedback_test"
"","","","","","psychophysics","413","1011045","0.0-13.0-2.0-1.0-0.2-0.125","674","","j","","","","","","","","","","","","","key","j","16.669220000000205","640","356","j","true","img/S_ambi40.png","方形","simultaneous",""
"","","","","","html-keyboard-response","414","1011360","0.0-13.0-2.0-1.0-0.2-1.125","null","<span style='color:GreenYellow; font-size: 70px;'>正确! </span>","null","","","","","","","","","","","","","","","","","","","","","","","feedback_test"
"","","","","","psychophysics","415","1013019","0.0-13.0-2.0-1.0-0.2-0.126","651","","j","","","","","","","","","","","","","key","j","16.669775510203255","640","356","j","true","img/C_ambi40.png","圆形","simultaneous",""
"","","","","","html-keyboard-response","416","1013339","0.0-13.0-2.0-1.0-0.2-1.126","null","<span style='color:GreenYellow; font-size: 70px;'>正确! </span>","null","","","","","","","","","","","","","","","","","","","","","","","feedback_test"
"","","","","","psychophysics","417","1014918","0.0-13.0-2.0-1.0-0.2-0.127","574","","f","","","","","","","","","","","","","key","f","16.66953763440852","640","356","f","true","img/T_ambi40.png","圆形","simultaneous",""
"","","","","","html-keyboard-response","418","1015235","0.0-13.0-2.0-1.0-0.2-1.127","null","<span style='color:GreenYellow; font-size: 70px;'>正确! </span>","null","","","","","","","","","","","","","","","","","","","","","","","feedback_test"
"","","","","","psychophysics","419","1016980","0.0-13.0-2.0-1.0-0.2-0.128","743","","f","","","","","","","","","","","","","key","f","16.546300970874636","640","356","f","true","img/T_ambi40.png","方形","simultaneous",""
"","","","","","html-keyboard-response","420","1017289","0.0-13.0-2.0-1.0-0.2-1.128","null","<span style='color:GreenYellow; font-size: 70px;'>正确! </span>","null","","","","","","","","","","","","","","","","","","","","","","","feedback_test"
"","","","","","psychophysics","421","1019121","0.0-13.0-2.0-1.0-0.2-0.129","825","","j","","","","","","","","","","","","","key","j","16.668963302751372","640","356","j","true","img/T_ambi40.png","三角","simultaneous",""
"","","","","","html-keyboard-response","422","1019430","0.0-13.0-2.0-1.0-0.2-1.129","null","<span style='color:GreenYellow; font-size: 70px;'>正确! </span>","null","","","","","","","","","","","","","","","","","","","","","","","feedback_test"
"","","","","","psychophysics","423","1021193","0.0-13.0-2.0-1.0-0.2-0.130","761","","f","","","","","","","","","","","","","key","f","16.669609523809605","640","356","f","true","img/S_ambi40.png","三角","simultaneous",""
"","","","","","html-keyboard-response","424","1021508","0.0-13.0-2.0-1.0-0.2-1.130","null","<span style='color:GreenYellow; font-size: 70px;'>正确! </span>","null","","","","","","","","","","","","","","","","","","","","","","","feedback_test"
"","","","","","psychophysics","425","1023108","0.0-13.0-2.0-1.0-0.2-0.131","596","","j","","","","","","","","","","","","","key","j","16.669084210525952","640","356","j","true","img/C_ambi40.png","圆形","simultaneous",""
"","","","","","html-keyboard-response","426","1023426","0.0-13.0-2.0-1.0-0.2-1.131","null","<span style='color:GreenYellow; font-size: 70px;'>正确! </span>","null","","","","","","","","","","","","","","","","","","","","","","","feedback_test"
"","","","","","psychophysics","427","1025027","0.0-13.0-2.0-1.0-0.2-0.132","594","","j","","","","","","","","","","","","","key","j","16.670000000000247","640","356","j","true","img/C_ambi40.png","圆形","simultaneous",""
"","","","","","html-keyboard-response","428","1025348","0.0-13.0-2.0-1.0-0.2-1.132","null","<span style='color:GreenYellow; font-size: 70px;'>正确! </span>","null","","","","","","","","","","","","","","","","","","","","","","","feedback_test"
"","","","","","psychophysics","429","1027058","0.0-13.0-2.0-1.0-0.2-0.133","705","","f","","","","","","","","","","","","","key","f","16.668049019607306","640","356","f","true","img/C_ambi40.png","三角","simultaneous",""
"","","","","","html-keyboard-response","430","1027375","0.0-13.0-2.0-1.0-0.2-1.133","null","<span style='color:GreenYellow; font-size: 70px;'>正确! </span>","null","","","","","","","","","","","","","","","","","","","","","","","feedback_test"
"","","","","","psychophysics","431","1028976","0.0-13.0-2.0-1.0-0.2-0.134","592","","j","","","","","","","","","","","","","key","j","16.669947368421248","640","356","j","true","img/S_ambi40.png","方形","simultaneous",""
