"success","timeout","failed_images","failed_audio","failed_video","trial_type","trial_index","time_elapsed","internal_node_id","rt","stimulus","response","value","item_width_mm","item_height_mm","item_width_px","px2mm","view_dist_mm","item_width_deg","px2deg","scale_factor","win_width_deg","win_height_deg","view_history","response_type","key_press","avg_frame_time","center_x","center_y","correct_response","correct","Image","word","condition","screen_id"
"true","false","[]","[]","[]","preload","0","976","0.0-0.0","","","","","","","","","","","","","","","","","","","","","","","","","",""
"","","","","","html-keyboard-response","1","43337","0.0-1.0","42360","
   <p>您好，欢迎参加本次实验。</p>
   <p>为充分保障您的权利，请确保您已经知晓并同意《参与实验同意书》以及《数据公开知情同意书》。</p>
   <p>如果您未见过上述内容，请咨询实验员。</p>
   <p>如果您选择继续实验，则表示您已经清楚两份知情同意书的内容并同意。</p>
   <p> <div style = ""color: green""><按任意键至下页></div> </p>
   ","arrowdown","","","","","","","","","","","","","","","","","","","","","","",""
"","","","","","html-keyboard-response","2","44854","0.0-2.0","1516","
   <p>本实验首先需要您填写一些基本个人信息。</p>
   <p> <div style = ""color: green""><按任意键至下页></div></p>
   ","arrowdown","","","","","","","","","","","","","","","","","","","","","","",""
"","","","","","call-function","3","44855","0.0-3.0-0.0","","","","","","","","","","","","","","","","","","","","","","","","","",""
"","","","","","survey-html-form","4","49842","0.0-3.0-1.0","4983","","{""Q0"":""38""}","","","","","","","","","","","","","","","","","","","","","","",""
"","","","","","html-button-response","5","51168","0.0-3.0-2.0","1323","<p style = 'color : white'>您的性别</p>","0","","","","","","","","","","","","","","","","","","","","","","",""
"","","","","","survey-html-form","6","57786","0.0-3.0-3.0","6613","","{""Q0"":""2001""}","","","","","","","","","","","","","","","","","","","","","","",""
"","","","","","survey-html-form","7","61585","0.0-3.0-4.0","3796","","{""Q0"":""5""}","","","","","","","","","","","","","","","","","","","","","","",""
"","","","","","virtual-chinrest","8","127143","0.0-4.0","65554","","","","85.6","53.98","542.9164117617264","6.342601682429646","450.33","10.858328235234529","50","0.7772835575749848","28.8","15.28","","","","","","","","","","","",""
"true","","","","","fullscreen","9","129167","0.0-5.0","","","","","","","","","","","","","","","","","","","","","","","","","",""
"","","","","","instructions","10","189769","0.0-6.0","60601","","","","","","","","","","","","","","[{""page_index"":0,""viewing_time"":1066},{""page_index"":1,""viewing_time"":14610},{""page_index"":2,""viewing_time"":23285},{""page_index"":1,""viewing_time"":3262},{""page_index"":2,""viewing_time"":4869},{""page_index"":1,""viewing_time"":5196},{""page_index"":2,""viewing_time"":1251},{""page_index"":3,""viewing_time"":7062}]","","","","","","","","","","",""
"","","","","","psychophysics","11","191965","0.0-7.0-0.0-0.0","1039","","f","","","","","","","","","","","","","key","f","16.666000000000125","720","446","f","true","img/S_ambi40.png","方形","prac_image_first",""
"","","","","","html-keyboard-response","12","192276","0.0-7.0-0.0-1.0","null","<span style='color:GreenYellow; font-size: 70px;'>正确! </span>","null","","","","","","","","","","","","","","","","","","","","","","","feedback_test"
"","","","","","psychophysics","13","194382","0.0-7.0-0.0-0.1","947","","j","","","","","","","","","","","","","key","j","16.666","720","446","j","true","img/T_ambi40.png","方形","prac_image_first",""
"","","","","","html-keyboard-response","14","194688","0.0-7.0-0.0-1.1","null","<span style='color:GreenYellow; font-size: 70px;'>正确! </span>","null","","","","","","","","","","","","","","","","","","","","","","","feedback_test"
"","","","","","psychophysics","15","196550","0.0-7.0-0.0-0.2","707","","j","","","","","","","","","","","","","key","j","16.66600000000006","720","446","j","true","img/S_ambi40.png","圆形","prac_image_first",""
"","","","","","html-keyboard-response","16","196855","0.0-7.0-0.0-1.2","null","<span style='color:GreenYellow; font-size: 70px;'>正确! </span>","null","","","","","","","","","","","","","","","","","","","","","","","feedback_test"
"","","","","","psychophysics","17","198726","0.0-7.0-0.0-0.3","716","","j","","","","","","","","","","","","","key","j","16.666000000000036","720","446","j","true","img/S_ambi40.png","三角","prac_image_first",""
"","","","","","html-keyboard-response","18","199036","0.0-7.0-0.0-1.3","null","<span style='color:GreenYellow; font-size: 70px;'>正确! </span>","null","","","","","","","","","","","","","","","","","","","","","","","feedback_test"
"","","","","","psychophysics","19","200933","0.0-7.0-0.0-0.4","741","","f","","","","","","","","","","","","","key","f","16.67063716814165","720","446","f","true","img/S_ambi40.png","方形","prac_image_first",""
"","","","","","html-keyboard-response","20","201244","0.0-7.0-0.0-1.4","null","<span style='color:GreenYellow; font-size: 70px;'>正确! </span>","null","","","","","","","","","","","","","","","","","","","","","","","feedback_test"
"","","","","","psychophysics","21","203294","0.0-7.0-0.0-0.5","897","","j","","","","","","","","","","","","","key","j","16.665999999999823","720","446","j","true","img/T_ambi40.png","圆形","prac_image_first",""
"","","","","","html-keyboard-response","22","203601","0.0-7.0-0.0-1.5","null","<span style='color:GreenYellow; font-size: 70px;'>正确! </span>","null","","","","","","","","","","","","","","","","","","","","","","","feedback_test"
"","","","","","psychophysics","23","205861","0.0-7.0-0.0-0.6","1102","","f","","","","","","","","","","","","","key","f","16.666000000000025","720","446","f","true","img/T_ambi40.png","三角","prac_image_first",""
"","","","","","html-keyboard-response","24","206168","0.0-7.0-0.0-1.6","null","<span style='color:GreenYellow; font-size: 70px;'>正确! </span>","null","","","","","","","","","","","","","","","","","","","","","","","feedback_test"
"","","","","","psychophysics","25","208125","0.0-7.0-0.0-0.7","799","","f","","","","","","","","","","","","","key","f","16.665999999999947","720","446","f","true","img/T_ambi40.png","三角","prac_image_first",""
"","","","","","html-keyboard-response","26","208435","0.0-7.0-0.0-1.7","null","<span style='color:GreenYellow; font-size: 70px;'>正确! </span>","null","","","","","","","","","","","","","","","","","","","","","","","feedback_test"
"","","","","","psychophysics","27","210453","0.0-7.0-0.0-0.8","860","","f","","","","","","","","","","","","","key","f","16.665999999999865","720","446","f","true","img/C_ambi40.png","圆形","prac_image_first",""
"","","","","","html-keyboard-response","28","210760","0.0-7.0-0.0-1.8","null","<span style='color:GreenYellow; font-size: 70px;'>正确! </span>","null","","","","","","","","","","","","","","","","","","","","","","","feedback_test"
"","","","","","psychophysics","29","212480","0.0-7.0-0.0-0.9","567","","f","","","","","","","","","","","","","key","f","16.66858823529408","720","446","f","true","img/C_ambi40.png","圆形","prac_image_first",""
"","","","","","html-keyboard-response","30","212783","0.0-7.0-0.0-1.9","null","<span style='color:GreenYellow; font-size: 70px;'>正确! </span>","null","","","","","","","","","","","","","","","","","","","","","","","feedback_test"
"","","","","","psychophysics","31","214653","0.0-7.0-0.0-0.10","714","","j","","","","","","","","","","","","","key","j","16.66600000000006","720","446","j","true","img/C_ambi40.png","方形","prac_image_first",""
"","","","","","html-keyboard-response","32","214960","0.0-7.0-0.0-1.10","null","<span style='color:GreenYellow; font-size: 70px;'>正确! </span>","null","","","","","","","","","","","","","","","","","","","","","","","feedback_test"
"","","","","","psychophysics","33","216943","0.0-7.0-0.0-0.11","820","","j","","","","","","","","","","","","","key","j","16.666000000000153","720","446","j","true","img/C_ambi40.png","三角","prac_image_first",""
"","","","","","html-keyboard-response","34","217250","0.0-7.0-0.0-1.11","null","<span style='color:GreenYellow; font-size: 70px;'>正确! </span>","null","","","","","","","","","","","","","","","","","","","","","","","feedback_test"
"","","","","","psychophysics","35","219230","0.0-7.0-0.0-0.12","821","","j","","","","","","","","","","","","","key","j","16.666000000000153","720","446","j","true","img/C_ambi40.png","三角","prac_image_first",""
"","","","","","html-keyboard-response","36","219540","0.0-7.0-0.0-1.12","null","<span style='color:GreenYellow; font-size: 70px;'>正确! </span>","null","","","","","","","","","","","","","","","","","","","","","","","feedback_test"
"","","","","","psychophysics","37","221466","0.0-7.0-0.0-0.13","774","","f","","","","","","","","","","","","","key","f","16.666000000000246","720","446","f","true","img/C_ambi40.png","圆形","prac_image_first",""
"","","","","","html-keyboard-response","38","221768","0.0-7.0-0.0-1.13","null","<span style='color:GreenYellow; font-size: 70px;'>正确! </span>","null","","","","","","","","","","","","","","","","","","","","","","","feedback_test"
"","","","","","psychophysics","39","223859","0.0-7.0-0.0-0.14","938","","f","","","","","","","","","","","","","key","f","16.666","720","446","f","true","img/C_ambi40.png","圆形","prac_image_first",""
"","","","","","html-keyboard-response","40","224168","0.0-7.0-0.0-1.14","null","<span style='color:GreenYellow; font-size: 70px;'>正确! </span>","null","","","","","","","","","","","","","","","","","","","","","","","feedback_test"
"","","","","","psychophysics","41","226001","0.0-7.0-0.0-0.15","676","","j","","","","","","","","","","","","","key","j","16.66599999999984","720","446","j","true","img/S_ambi40.png","三角","prac_image_first",""
"","","","","","html-keyboard-response","42","226308","0.0-7.0-0.0-1.15","null","<span style='color:GreenYellow; font-size: 70px;'>正确! </span>","null","","","","","","","","","","","","","","","","","","","","","","","feedback_test"
"","","","","","psychophysics","43","228402","0.0-7.0-0.0-0.16","940","","j","","","","","","","","","","","","","key","j","16.66600000000002","720","446","j","true","img/C_ambi40.png","方形","prac_image_first",""
"","","","","","html-keyboard-response","44","228708","0.0-7.0-0.0-1.16","null","<span style='color:GreenYellow; font-size: 70px;'>正确! </span>","null","","","","","","","","","","","","","","","","","","","","","","","feedback_test"
"","","","","","psychophysics","45","231370","0.0-7.0-0.0-0.17","null","","null","","","","","","","","","","","","","key","null","16.66931645569625","720","446","f","false","img/T_ambi40.png","三角","prac_image_first",""
"","","","","","html-keyboard-response","46","231671","0.0-7.0-0.0-1.17","null","<span class='add_' style='color:yellow; font-size: 70px;'> 太慢! </span>","null","","","","","","","","","","","","","","","","","","","","","","","feedback_test"
"","","","","","psychophysics","47","233731","0.0-7.0-0.0-0.18","907","","f","","","","","","","","","","","","","key","f","16.666000000000043","720","446","f","true","img/T_ambi40.png","三角","prac_image_first",""
"","","","","","html-keyboard-response","48","234044","0.0-7.0-0.0-1.18","null","<span style='color:GreenYellow; font-size: 70px;'>正确! </span>","null","","","","","","","","","","","","","","","","","","","","","","","feedback_test"
"","","","","","psychophysics","49","235898","0.0-7.0-0.0-0.19","701","","j","","","","","","","","","","","","","key","j","16.666000000000086","720","446","j","true","img/T_ambi40.png","圆形","prac_image_first",""
"","","","","","html-keyboard-response","50","236200","0.0-7.0-0.0-1.19","null","<span style='color:GreenYellow; font-size: 70px;'>正确! </span>","null","","","","","","","","","","","","","","","","","","","","","","","feedback_test"
"","","","","","psychophysics","51","238099","0.0-7.0-0.0-0.20","744","","j","","","","","","","","","","","","","key","j","16.666000000000015","720","446","j","true","img/S_ambi40.png","圆形","prac_image_first",""
"","","","","","html-keyboard-response","52","238411","0.0-7.0-0.0-1.20","null","<span style='color:GreenYellow; font-size: 70px;'>正确! </span>","null","","","","","","","","","","","","","","","","","","","","","","","feedback_test"
"","","","","","psychophysics","53","240847","0.0-7.0-0.0-0.21","1276","","j","","","","","","","","","","","","","key","j","16.666000000000047","720","446","j","true","img/T_ambi40.png","方形","prac_image_first",""
"","","","","","html-keyboard-response","54","241156","0.0-7.0-0.0-1.21","null","<span style='color:GreenYellow; font-size: 70px;'>正确! </span>","null","","","","","","","","","","","","","","","","","","","","","","","feedback_test"
"","","","","","psychophysics","55","243183","0.0-7.0-0.0-0.22","861","","f","","","","","","","","","","","","","key","f","16.666000000000086","720","446","f","true","img/S_ambi40.png","方形","prac_image_first",""
"","","","","","html-keyboard-response","56","243492","0.0-7.0-0.0-1.22","null","<span style='color:GreenYellow; font-size: 70px;'>正确! </span>","null","","","","","","","","","","","","","","","","","","","","","","","feedback_test"
"","","","","","psychophysics","57","245380","0.0-7.0-0.0-0.23","735","","f","","","","","","","","","","","","","key","f","16.666000000000036","720","446","f","true","img/S_ambi40.png","方形","prac_image_first",""
"","","","","","html-keyboard-response","58","245689","0.0-7.0-0.0-1.23","null","<span style='color:GreenYellow; font-size: 70px;'>正确! </span>","null","","","","","","","","","","","","","","","","","","","","","","","feedback_test"
"","","","","","html-keyboard-response","59","275121","0.0-8.0","29430","<style>.context{color:white; font-size: 35px; line-height:40px}</style>                            <div><p class='context'>您正确回答了96% 的试次。</p><p class='context'>您的平均反应时为838毫秒。</p><p class='context'>恭喜您完成这一阶段的练习。按任意键进入<span style='color: yellow;'>先文字后图形条件</span>的练习。</p></div>"," ","","","","","","","","","","","","","","","","","","","","","","",""
"","","","","","psychophysics","60","277192","0.0-9.0-0.0-0.0","915","","j","","","","","","","","","","","","","key","j","16.675354838709726","720","446","j","true","img/S_ambi40.png","圆形","prac_word_first",""
"","","","","","html-keyboard-response","61","277501","0.0-9.0-0.0-1.0","null","<span style='color:GreenYellow; font-size: 70px;'>正确! </span>","null","","","","","","","","","","","","","","","","","","","","","","","feedback_test"
"","","","","","psychophysics","62","279431","0.0-9.0-0.0-0.1","772","","j","","","","","","","","","","","","","key","j","16.665999999999716","720","446","j","true","img/C_ambi40.png","方形","prac_word_first",""
"","","","","","html-keyboard-response","63","279739","0.0-9.0-0.0-1.1","null","<span style='color:GreenYellow; font-size: 70px;'>正确! </span>","null","","","","","","","","","","","","","","","","","","","","","","","feedback_test"
"","","","","","psychophysics","64","281566","0.0-9.0-0.0-0.2","673","","f","","","","","","","","","","","","","key","f","16.666000000000377","720","446","f","true","img/C_ambi40.png","圆形","prac_word_first",""
"","","","","","html-keyboard-response","65","281877","0.0-9.0-0.0-1.2","null","<span style='color:GreenYellow; font-size: 70px;'>正确! </span>","null","","","","","","","","","","","","","","","","","","","","","","","feedback_test"
"","","","","","psychophysics","66","283832","0.0-9.0-0.0-0.3","804","","j","","","","","","","","","","","","","key","j","16.665999999999947","720","446","j","true","img/C_ambi40.png","三角","prac_word_first",""
"","","","","","html-keyboard-response","67","284140","0.0-9.0-0.0-1.3","null","<span style='color:GreenYellow; font-size: 70px;'>正确! </span>","null","","","","","","","","","","","","","","","","","","","","","","","feedback_test"
"","","","","","psychophysics","68","286116","0.0-9.0-0.0-0.4","810","","j","","","","","","","","","","","","","key","j","16.665999999999677","720","446","j","true","img/S_ambi40.png","三角","prac_word_first",""
"","","","","","html-keyboard-response","69","286428","0.0-9.0-0.0-1.4","null","<span style='color:GreenYellow; font-size: 70px;'>正确! </span>","null","","","","","","","","","","","","","","","","","","","","","","","feedback_test"
"","","","","","psychophysics","70","288479","0.0-9.0-0.0-0.5","900","","j","","","","","","","","","","","","","key","j","16.666000000000302","720","446","j","true","img/T_ambi40.png","圆形","prac_word_first",""
"","","","","","html-keyboard-response","71","288787","0.0-9.0-0.0-1.5","null","<span style='color:GreenYellow; font-size: 70px;'>正确! </span>","null","","","","","","","","","","","","","","","","","","","","","","","feedback_test"
"","","","","","psychophysics","72","290576","0.0-9.0-0.0-0.6","635","","j","","","","","","","","","","","","","key","j","16.665999999999887","720","446","j","true","img/T_ambi40.png","方形","prac_word_first",""
"","","","","","html-keyboard-response","73","290884","0.0-9.0-0.0-1.6","null","<span style='color:GreenYellow; font-size: 70px;'>正确! </span>","null","","","","","","","","","","","","","","","","","","","","","","","feedback_test"
"","","","","","psychophysics","74","292796","0.0-9.0-0.0-0.7","755","","f","","","","","","","","","","","","","key","f","16.665999999999993","720","446","f","true","img/T_ambi40.png","三角","prac_word_first",""
"","","","","","html-keyboard-response","75","293108","0.0-9.0-0.0-1.7","null","<span style='color:GreenYellow; font-size: 70px;'>正确! </span>","null","","","","","","","","","","","","","","","","","","","","","","","feedback_test"
"","","","","","psychophysics","76","295638","0.0-9.0-0.0-0.8","1373","","f","","","","","","","","","","","","","key","f","16.66948666666673","720","446","f","true","img/S_ambi40.png","方形","prac_word_first",""
"","","","","","html-keyboard-response","77","295945","0.0-9.0-0.0-1.8","null","<span style='color:GreenYellow; font-size: 70px;'>正确! </span>","null","","","","","","","","","","","","","","","","","","","","","","","feedback_test"
"","","","","","psychophysics","78","297874","0.0-9.0-0.0-0.9","766","","f","","","","","","","","","","","","","key","f","16.665999999999993","720","446","f","true","img/C_ambi40.png","圆形","prac_word_first",""
"","","","","","html-keyboard-response","79","298178","0.0-9.0-0.0-1.9","null","<span style='color:GreenYellow; font-size: 70px;'>正确! </span>","null","","","","","","","","","","","","","","","","","","","","","","","feedback_test"
"","","","","","psychophysics","80","299850","0.0-9.0-0.0-0.10","511","","j","","","","","","","","","","","","","key","j","16.666000000000086","720","446","f","false","img/T_ambi40.png","三角","prac_word_first",""
"","","","","","html-keyboard-response","81","300156","0.0-9.0-0.0-1.10","null","<span style='color:red; font-size: 70px;'>错误! </span>","null","","","","","","","","","","","","","","","","","","","","","","","feedback_test"
"","","","","","psychophysics","82","301975","0.0-9.0-0.0-0.11","665","","f","","","","","","","","","","","","","key","f","16.666000000000135","720","446","f","true","img/S_ambi40.png","方形","prac_word_first",""
"","","","","","html-keyboard-response","83","302280","0.0-9.0-0.0-1.11","null","<span style='color:GreenYellow; font-size: 70px;'>正确! </span>","null","","","","","","","","","","","","","","","","","","","","","","","feedback_test"
"","","","","","psychophysics","84","304155","0.0-9.0-0.0-0.12","722","","j","","","","","","","","","","","","","key","j","16.665999999999798","720","446","j","true","img/C_ambi40.png","方形","prac_word_first",""
"","","","","","html-keyboard-response","85","304456","0.0-9.0-0.0-1.12","null","<span style='color:GreenYellow; font-size: 70px;'>正确! </span>","null","","","","","","","","","","","","","","","","","","","","","","","feedback_test"
"","","","","","psychophysics","86","306557","0.0-9.0-0.0-0.13","950","","j","","","","","","","","","","","","","key","j","16.665999999999787","720","446","j","true","img/T_ambi40.png","方形","prac_word_first",""
"","","","","","html-keyboard-response","87","306865","0.0-9.0-0.0-1.13","null","<span style='color:GreenYellow; font-size: 70px;'>正确! </span>","null","","","","","","","","","","","","","","","","","","","","","","","feedback_test"
"","","","","","psychophysics","88","308639","0.0-9.0-0.0-0.14","621","","f","","","","","","","","","","","","","key","f","16.665999999999933","720","446","f","true","img/C_ambi40.png","圆形","prac_word_first",""
"","","","","","html-keyboard-response","89","308949","0.0-9.0-0.0-1.14","null","<span style='color:GreenYellow; font-size: 70px;'>正确! </span>","null","","","","","","","","","","","","","","","","","","","","","","","feedback_test"
"","","","","","psychophysics","90","310758","0.0-9.0-0.0-0.15","650","","j","","","","","","","","","","","","","key","j","16.666000000000135","720","446","j","true","img/C_ambi40.png","三角","prac_word_first",""
"","","","","","html-keyboard-response","91","311069","0.0-9.0-0.0-1.15","null","<span style='color:GreenYellow; font-size: 70px;'>正确! </span>","null","","","","","","","","","","","","","","","","","","","","","","","feedback_test"
"","","","","","psychophysics","92","313014","0.0-9.0-0.0-0.16","777","","j","","","","","","","","","","","","","key","j","16.666000000000448","720","446","j","true","img/S_ambi40.png","三角","prac_word_first",""
"","","","","","html-keyboard-response","93","313321","0.0-9.0-0.0-1.16","null","<span style='color:GreenYellow; font-size: 70px;'>正确! </span>","null","","","","","","","","","","","","","","","","","","","","","","","feedback_test"
"","","","","","psychophysics","94","315154","0.0-9.0-0.0-0.17","663","","f","","","","","","","","","","","","","key","f","16.66599999999984","720","446","f","true","img/C_ambi40.png","圆形","prac_word_first",""
"","","","","","html-keyboard-response","95","315457","0.0-9.0-0.0-1.17","null","<span style='color:GreenYellow; font-size: 70px;'>正确! </span>","null","","","","","","","","","","","","","","","","","","","","","","","feedback_test"
"","","","","","psychophysics","96","317828","0.0-9.0-0.0-0.18","1220","","f","","","","","","","","","","","","","key","f","16.66600000000012","720","446","f","true","img/S_ambi40.png","方形","prac_word_first",""
"","","","","","html-keyboard-response","97","318140","0.0-9.0-0.0-1.18","null","<span style='color:GreenYellow; font-size: 70px;'>正确! </span>","null","","","","","","","","","","","","","","","","","","","","","","","feedback_test"
"","","","","","psychophysics","98","319950","0.0-9.0-0.0-0.19","658","","j","","","","","","","","","","","","","key","j","16.665999999999887","720","446","f","false","img/T_ambi40.png","三角","prac_word_first",""
"","","","","","html-keyboard-response","99","320258","0.0-9.0-0.0-1.19","null","<span style='color:red; font-size: 70px;'>错误! </span>","null","","","","","","","","","","","","","","","","","","","","","","","feedback_test"
"","","","","","psychophysics","100","322045","0.0-9.0-0.0-0.20","625","","j","","","","","","","","","","","","","key","j","16.666000000000185","720","446","j","true","img/T_ambi40.png","圆形","prac_word_first",""
"","","","","","html-keyboard-response","101","322356","0.0-9.0-0.0-1.20","null","<span style='color:GreenYellow; font-size: 70px;'>正确! </span>","null","","","","","","","","","","","","","","","","","","","","","","","feedback_test"
"","","","","","psychophysics","102","324191","0.0-9.0-0.0-0.21","682","","j","","","","","","","","","","","","","key","j","16.665999999999595","720","446","j","true","img/S_ambi40.png","圆形","prac_word_first",""
"","","","","","html-keyboard-response","103","324498","0.0-9.0-0.0-1.21","null","<span style='color:GreenYellow; font-size: 70px;'>正确! </span>","null","","","","","","","","","","","","","","","","","","","","","","","feedback_test"
"","","","","","psychophysics","104","326265","0.0-9.0-0.0-0.22","607","","f","","","","","","","","","","","","","key","f","16.665999999999933","720","446","f","true","img/T_ambi40.png","三角","prac_word_first",""
"","","","","","html-keyboard-response","105","326571","0.0-9.0-0.0-1.22","null","<span style='color:GreenYellow; font-size: 70px;'>正确! </span>","null","","","","","","","","","","","","","","","","","","","","","","","feedback_test"
"","","","","","psychophysics","106","328715","0.0-9.0-0.0-0.23","989","","f","","","","","","","","","","","","","key","f","16.665999999999713","720","446","f","true","img/S_ambi40.png","方形","prac_word_first",""
"","","","","","html-keyboard-response","107","329021","0.0-9.0-0.0-1.23","null","<span style='color:GreenYellow; font-size: 70px;'>正确! </span>","null","","","","","","","","","","","","","","","","","","","","","","","feedback_test"
"","","","","","html-keyboard-response","108","337929","0.0-10.0","8904","<style>.context{color:white; font-size: 35px; line-height:40px}</style>                            <div><p class='context'>您正确回答了92% 的试次。</p><p class='context'>您的平均反应时为799毫秒。</p><p class='context'>恭喜您完成练习。按任意键进入<span style='color: yellow;'>图形和文字同时呈现条件</span>的练习。</p></div>"," ","","","","","","","","","","","","","","","","","","","","","","",""
"","","","","","psychophysics","109","340194","0.0-11.0-0.0-0.0","1253","","j","","","","","","","","","","","","","key","j","16.67041481481477","720","446","j","true","img/C_ambi40.png","方形","prac_simultaneous",""
"","","","","","html-keyboard-response","110","340502","0.0-11.0-0.0-1.0","null","<span style='color:GreenYellow; font-size: 70px;'>正确! </span>","null","","","","","","","","","","","","","","","","","","","","","","","feedback_test"
"","","","","","psychophysics","111","343009","0.0-11.0-0.0-0.1","null","","null","","","","","","","","","","","","","key","null","16.666000000000157","720","446","j","false","img/T_ambi40.png","方形","prac_simultaneous",""
"","","","","","html-keyboard-response","112","343318","0.0-11.0-0.0-1.1","null","<span class='add_' style='color:yellow; font-size: 70px;'> 太慢! </span>","null","","","","","","","","","","","","","","","","","","","","","","","feedback_test"
"","","","","","psychophysics","113","345233","0.0-11.0-0.0-0.2","910","","j","","","","","","","","","","","","","key","j","16.665999999999993","720","446","j","true","img/S_ambi40.png","圆形","prac_simultaneous",""
"","","","","","html-keyboard-response","114","345538","0.0-11.0-0.0-1.2","null","<span style='color:GreenYellow; font-size: 70px;'>正确! </span>","null","","","","","","","","","","","","","","","","","","","","","","","feedback_test"
"","","","","","psychophysics","115","347680","0.0-11.0-0.0-0.3","1137","","j","","","","","","","","","","","","","key","j","16.665999999999713","720","446","j","true","img/T_ambi40.png","圆形","prac_simultaneous",""
"","","","","","html-keyboard-response","116","347985","0.0-11.0-0.0-1.3","null","<span style='color:GreenYellow; font-size: 70px;'>正确! </span>","null","","","","","","","","","","","","","","","","","","","","","","","feedback_test"
"","","","","","psychophysics","117","350025","0.0-11.0-0.0-0.4","1032","","f","","","","","","","","","","","","","key","f","16.668155737705032","720","446","f","true","img/C_ambi40.png","圆形","prac_simultaneous",""
"","","","","","html-keyboard-response","118","350334","0.0-11.0-0.0-1.4","null","<span style='color:GreenYellow; font-size: 70px;'>正确! </span>","null","","","","","","","","","","","","","","","","","","","","","","","feedback_test"
"","","","","","psychophysics","119","352112","0.0-11.0-0.0-0.5","773","","f","","","","","","","","","","","","","key","f","16.665999999999634","720","446","f","true","img/C_ambi40.png","圆形","prac_simultaneous",""
"","","","","","html-keyboard-response","120","352420","0.0-11.0-0.0-1.5","null","<span style='color:GreenYellow; font-size: 70px;'>正确! </span>","null","","","","","","","","","","","","","","","","","","","","","","","feedback_test"
"","","","","","psychophysics","121","354095","0.0-11.0-0.0-0.6","669","","j","","","","","","","","","","","","","key","j","16.665999999999766","720","446","f","false","img/T_ambi40.png","三角","prac_simultaneous",""
"","","","","","html-keyboard-response","122","354402","0.0-11.0-0.0-1.6","null","<span style='color:red; font-size: 70px;'>错误! </span>","null","","","","","","","","","","","","","","","","","","","","","","","feedback_test"
"","","","","","psychophysics","123","356276","0.0-11.0-0.0-0.7","868","","j","","","","","","","","","","","","","key","j","16.666000000000036","720","446","j","true","img/S_ambi40.png","三角","prac_simultaneous",""
"","","","","","html-keyboard-response","124","356586","0.0-11.0-0.0-1.7","null","<span style='color:GreenYellow; font-size: 70px;'>正确! </span>","null","","","","","","","","","","","","","","","","","","","","","","","feedback_test"
"","","","","","psychophysics","125","358332","0.0-11.0-0.0-0.8","740","","j","","","","","","","","","","","","","key","j","16.665999999999677","720","446","f","false","img/T_ambi40.png","三角","prac_simultaneous",""
"","","","","","html-keyboard-response","126","358642","0.0-11.0-0.0-1.8","null","<span style='color:red; font-size: 70px;'>错误! </span>","null","","","","","","","","","","","","","","","","","","","","","","","feedback_test"
"","","","","","psychophysics","127","360582","0.0-11.0-0.0-0.9","937","","j","","","","","","","","","","","","","key","j","16.666000000000224","720","446","j","true","img/C_ambi40.png","三角","prac_simultaneous",""
"","","","","","html-keyboard-response","128","360884","0.0-11.0-0.0-1.9","null","<span style='color:GreenYellow; font-size: 70px;'>正确! </span>","null","","","","","","","","","","","","","","","","","","","","","","","feedback_test"
"","","","","","psychophysics","129","362575","0.0-11.0-0.0-0.10","685","","f","","","","","","","","","","","","","key","f","16.666000000000032","720","446","f","true","img/S_ambi40.png","方形","prac_simultaneous",""
"","","","","","html-keyboard-response","130","362884","0.0-11.0-0.0-1.10","null","<span style='color:GreenYellow; font-size: 70px;'>正确! </span>","null","","","","","","","","","","","","","","","","","","","","","","","feedback_test"
"","","","","","psychophysics","131","364587","0.0-11.0-0.0-0.11","695","","f","","","","","","","","","","","","","key","f","16.666000000000032","720","446","f","true","img/S_ambi40.png","方形","prac_simultaneous",""
"","","","","","html-keyboard-response","132","364894","0.0-11.0-0.0-1.11","null","<span style='color:GreenYellow; font-size: 70px;'>正确! </span>","null","","","","","","","","","","","","","","","","","","","","","","","feedback_test"
"","","","","","psychophysics","133","366743","0.0-11.0-0.0-0.12","844","","f","","","","","","","","","","","","","key","f","16.666000000000086","720","446","f","true","img/C_ambi40.png","圆形","prac_simultaneous",""
"","","","","","html-keyboard-response","134","367054","0.0-11.0-0.0-1.12","null","<span style='color:GreenYellow; font-size: 70px;'>正确! </span>","null","","","","","","","","","","","","","","","","","","","","","","","feedback_test"
"","","","","","psychophysics","135","368758","0.0-11.0-0.0-0.13","699","","j","","","","","","","","","","","","","key","j","16.67118811881225","720","446","j","true","img/S_ambi40.png","三角","prac_simultaneous",""
"","","","","","html-keyboard-response","136","369066","0.0-11.0-0.0-1.13","null","<span style='color:GreenYellow; font-size: 70px;'>正确! </span>","null","","","","","","","","","","","","","","","","","","","","","","","feedback_test"
"","","","","","psychophysics","137","370825","0.0-11.0-0.0-0.14","750","","f","","","","","","","","","","","","","key","f","16.666000000000487","720","446","j","false","img/C_ambi40.png","方形","prac_simultaneous",""
"","","","","","html-keyboard-response","138","371134","0.0-11.0-0.0-1.14","null","<span style='color:red; font-size: 70px;'>错误! </span>","null","","","","","","","","","","","","","","","","","","","","","","","feedback_test"
"","","","","","psychophysics","139","373063","0.0-11.0-0.0-0.15","921","","j","","","","","","","","","","","","","key","j","16.665999999999716","720","446","j","true","img/C_ambi40.png","三角","prac_simultaneous",""
"","","","","","html-keyboard-response","140","373369","0.0-11.0-0.0-1.15","null","<span style='color:GreenYellow; font-size: 70px;'>正确! </span>","null","","","","","","","","","","","","","","","","","","","","","","","feedback_test"
"","","","","","psychophysics","141","375281","0.0-11.0-0.0-0.16","907","","f","","","","","","","","","","","","","key","f","16.665999999999993","720","446","f","true","img/T_ambi40.png","三角","prac_simultaneous",""
"","","","","","html-keyboard-response","142","375587","0.0-11.0-0.0-1.16","null","<span style='color:GreenYellow; font-size: 70px;'>正确! </span>","null","","","","","","","","","","","","","","","","","","","","","","","feedback_test"
"","","","","","psychophysics","143","377434","0.0-11.0-0.0-0.17","841","","j","","","","","","","","","","","","","key","j","16.666000000000086","720","446","j","true","img/T_ambi40.png","圆形","prac_simultaneous",""
"","","","","","html-keyboard-response","144","377738","0.0-11.0-0.0-1.17","null","<span style='color:GreenYellow; font-size: 70px;'>正确! </span>","null","","","","","","","","","","","","","","","","","","","","","","","feedback_test"
"","","","","","psychophysics","145","379894","0.0-11.0-0.0-0.18","1152","","f","","","","","","","","","","","","","key","f","16.666000000000373","720","446","f","true","img/T_ambi40.png","三角","prac_simultaneous",""
"","","","","","html-keyboard-response","146","380202","0.0-11.0-0.0-1.18","null","<span style='color:GreenYellow; font-size: 70px;'>正确! </span>","null","","","","","","","","","","","","","","","","","","","","","","","feedback_test"
"","","","","","psychophysics","147","382065","0.0-11.0-0.0-0.19","858","","j","","","","","","","","","","","","","key","j","16.665999999999798","720","446","j","true","img/S_ambi40.png","圆形","prac_simultaneous",""
"","","","","","html-keyboard-response","148","382369","0.0-11.0-0.0-1.19","null","<span style='color:GreenYellow; font-size: 70px;'>正确! </span>","null","","","","","","","","","","","","","","","","","","","","","","","feedback_test"
"","","","","","psychophysics","149","384836","0.0-11.0-0.0-0.20","1461","","f","","","","","","","","","","","","","key","f","16.66600000000001","720","446","j","false","img/T_ambi40.png","方形","prac_simultaneous",""
"","","","","","html-keyboard-response","150","385142","0.0-11.0-0.0-1.20","null","<span style='color:red; font-size: 70px;'>错误! </span>","null","","","","","","","","","","","","","","","","","","","","","","","feedback_test"
"","","","","","psychophysics","151","386994","0.0-11.0-0.0-0.21","850","","f","","","","","","","","","","","","","key","f","16.666000000000086","720","446","f","true","img/S_ambi40.png","方形","prac_simultaneous",""
"","","","","","html-keyboard-response","152","387299","0.0-11.0-0.0-1.21","null","<span style='color:GreenYellow; font-size: 70px;'>正确! </span>","null","","","","","","","","","","","","","","","","","","","","","","","feedback_test"
"","","","","","psychophysics","153","389130","0.0-11.0-0.0-0.22","822","","f","","","","","","","","","","","","","key","f","16.670798165137334","720","446","f","true","img/C_ambi40.png","圆形","prac_simultaneous",""
"","","","","","html-keyboard-response","154","389436","0.0-11.0-0.0-1.22","null","<span style='color:GreenYellow; font-size: 70px;'>正确! </span>","null","","","","","","","","","","","","","","","","","","","","","","","feedback_test"
"","","","","","psychophysics","155","391215","0.0-11.0-0.0-0.23","773","","j","","","","","","","","","","","","","key","j","16.666000000000185","720","446","f","false","img/S_ambi40.png","方形","prac_simultaneous",""
"","","","","","html-keyboard-response","156","391526","0.0-11.0-0.0-1.23","null","<span style='color:red; font-size: 70px;'>错误! </span>","null","","","","","","","","","","","","","","","","","","","","","","","feedback_test"
"","","","","","html-keyboard-response","157","413786","0.0-12.0","22256","<style>.context{color:white; font-size: 35px; line-height:40px}</style>                            <div><p class='context'>您正确回答了75% 的试次。</p><p class='context'>您的平均反应时为899毫秒。</p><p class='context'>恭喜您完成练习。按任意键进入正式实验。</p><p class='footer' style='font-size: 35px; line-height:40px;'>请在进入正式实验实验之前将您的<span style='color: lightgreen;'>食指</span>放在电脑键盘的相应键位上进行按键。</p>"," ","","","","","","","","","","","","","","","","","","","","","","",""
"","","","","","html-keyboard-response","158","419565","0.0-13.0-0.0-0.0","5775","
    <p>请您将手指放在按键上，准备进入呈现顺序为<span style='color: yellow;'>先图形后文字条件</span>的正式匹配任务</p>
    <p> <div style = ""color: green""><按任意键进入下一阶段的匹配任务></div></p>
    "," ","","","","","","","","","","","","","","","","","","","","","","",""
"","","","","","psychophysics","159","421455","0.0-13.0-0.0-1.0-0.0-0.0","732","","j","","","","","","","","","","","","","key","j","16.666000000000036","720","446","j","true","img/T_ambi40.png","方形","image_first",""
"","","","","","html-keyboard-response","160","421761","0.0-13.0-0.0-1.0-0.0-1.0","null","<span style='color:GreenYellow; font-size: 70px;'>正确! </span>","null","","","","","","","","","","","","","","","","","","","","","","","feedback_test"
"","","","","","psychophysics","161","423665","0.0-13.0-0.0-1.0-0.0-0.1","747","","f","","","","","","","","","","","","","key","f","16.665999999999755","720","446","f","true","img/S_ambi40.png","方形","image_first",""
"","","","","","html-keyboard-response","162","423974","0.0-13.0-0.0-1.0-0.0-1.1","null","<span style='color:GreenYellow; font-size: 70px;'>正确! </span>","null","","","","","","","","","","","","","","","","","","","","","","","feedback_test"
"","","","","","psychophysics","163","425783","0.0-13.0-0.0-1.0-0.0-0.2","654","","j","","","","","","","","","","","","","key","j","16.668495327103166","720","446","j","true","img/C_ambi40.png","方形","image_first",""
"","","","","","html-keyboard-response","164","426090","0.0-13.0-0.0-1.0-0.0-1.2","null","<span style='color:GreenYellow; font-size: 70px;'>正确! </span>","null","","","","","","","","","","","","","","","","","","","","","","","feedback_test"
"","","","","","psychophysics","165","427858","0.0-13.0-0.0-1.0-0.0-0.3","616","","j","","","","","","","","","","","","","key","j","16.666000000000487","720","446","j","true","img/S_ambi40.png","圆形","image_first",""
"","","","","","html-keyboard-response","166","428166","0.0-13.0-0.0-1.0-0.0-1.3","null","<span style='color:GreenYellow; font-size: 70px;'>正确! </span>","null","","","","","","","","","","","","","","","","","","","","","","","feedback_test"
"","","","","","psychophysics","167","429929","0.0-13.0-0.0-1.0-0.0-0.4","605","","j","","","","","","","","","","","","","key","j","16.665999999999933","720","446","j","true","img/C_ambi40.png","三角","image_first",""
"","","","","","html-keyboard-response","168","430237","0.0-13.0-0.0-1.0-0.0-1.4","null","<span style='color:GreenYellow; font-size: 70px;'>正确! </span>","null","","","","","","","","","","","","","","","","","","","","","","","feedback_test"
"","","","","","psychophysics","169","431966","0.0-13.0-0.0-1.0-0.0-0.5","560","","j","","","","","","","","","","","","","key","j","16.665999999999983","720","446","j","true","img/S_ambi40.png","三角","image_first",""
"","","","","","html-keyboard-response","170","432274","0.0-13.0-0.0-1.0-0.0-1.5","null","<span style='color:GreenYellow; font-size: 70px;'>正确! </span>","null","","","","","","","","","","","","","","","","","","","","","","","feedback_test"
"","","","","","psychophysics","171","433998","0.0-13.0-0.0-1.0-0.0-0.6","571","","f","","","","","","","","","","","","","key","f","16.66600000000029","720","446","f","true","img/S_ambi40.png","方形","image_first",""
"","","","","","html-keyboard-response","172","434306","0.0-13.0-0.0-1.0-0.0-1.6","null","<span style='color:GreenYellow; font-size: 70px;'>正确! </span>","null","","","","","","","","","","","","","","","","","","","","","","","feedback_test"
"","","","","","psychophysics","173","436578","0.0-13.0-0.0-1.0-0.0-0.7","1121","","f","","","","","","","","","","","","","key","f","16.66599999999981","720","446","f","true","img/C_ambi40.png","圆形","image_first",""
"","","","","","html-keyboard-response","174","436883","0.0-13.0-0.0-1.0-0.0-1.7","null","<span style='color:GreenYellow; font-size: 70px;'>正确! </span>","null","","","","","","","","","","","","","","","","","","","","","","","feedback_test"
"","","","","","psychophysics","175","438600","0.0-13.0-0.0-1.0-0.0-0.8","558","","f","","","","","","","","","","","","","key","f","16.66600000000029","720","446","f","true","img/C_ambi40.png","圆形","image_first",""
"","","","","","html-keyboard-response","176","438911","0.0-13.0-0.0-1.0-0.0-1.8","null","<span style='color:GreenYellow; font-size: 70px;'>正确! </span>","null","","","","","","","","","","","","","","","","","","","","","","","feedback_test"
"","","","","","psychophysics","177","440652","0.0-13.0-0.0-1.0-0.0-0.9","585","","f","","","","","","","","","","","","","key","f","16.665999999999983","720","446","j","false","img/T_ambi40.png","圆形","image_first",""
"","","","","","html-keyboard-response","178","440959","0.0-13.0-0.0-1.0-0.0-1.9","null","<span style='color:red; font-size: 70px;'>错误! </span>","null","","","","","","","","","","","","","","","","","","","","","","","feedback_test"
"","","","","","psychophysics","179","442916","0.0-13.0-0.0-1.0-0.0-0.10","806","","f","","","","","","","","","","","","","key","f","16.665999999999947","720","446","f","true","img/T_ambi40.png","三角","image_first",""
"","","","","","html-keyboard-response","180","443223","0.0-13.0-0.0-1.0-0.0-1.10","null","<span style='color:GreenYellow; font-size: 70px;'>正确! </span>","null","","","","","","","","","","","","","","","","","","","","","","","feedback_test"
"","","","","","psychophysics","181","445216","0.0-13.0-0.0-1.0-0.0-0.11","842","","f","","","","","","","","","","","","","key","f","16.67043220338962","720","446","f","true","img/T_ambi40.png","三角","image_first",""
"","","","","","html-keyboard-response","182","445527","0.0-13.0-0.0-1.0-0.0-1.11","null","<span style='color:GreenYellow; font-size: 70px;'>正确! </span>","null","","","","","","","","","","","","","","","","","","","","","","","feedback_test"
"","","","","","psychophysics","183","447277","0.0-13.0-0.0-1.0-0.0-0.12","595","","f","","","","","","","","","","","","","key","f","16.66600000000024","720","446","f","true","img/C_ambi40.png","圆形","image_first",""
"","","","","","html-keyboard-response","184","447578","0.0-13.0-0.0-1.0-0.0-1.12","null","<span style='color:GreenYellow; font-size: 70px;'>正确! </span>","null","","","","","","","","","","","","","","","","","","","","","","","feedback_test"
"","","","","","psychophysics","185","449698","0.0-13.0-0.0-1.0-0.0-0.13","957","","j","","","","","","","","","","","","","key","j","16.665999999999748","720","446","j","true","img/T_ambi40.png","圆形","image_first",""
"","","","","","html-keyboard-response","186","450007","0.0-13.0-0.0-1.0-0.0-1.13","null","<span style='color:GreenYellow; font-size: 70px;'>正确! </span>","null","","","","","","","","","","","","","","","","","","","","","","","feedback_test"
"","","","","","psychophysics","187","451796","0.0-13.0-0.0-1.0-0.0-0.14","638","","j","","","","","","","","","","","","","key","j","16.666000000000185","720","446","f","false","img/T_ambi40.png","三角","image_first",""
"","","","","","html-keyboard-response","188","452103","0.0-13.0-0.0-1.0-0.0-1.14","null","<span style='color:red; font-size: 70px;'>错误! </span>","null","","","","","","","","","","","","","","","","","","","","","","","feedback_test"
"","","","","","psychophysics","189","454269","0.0-13.0-0.0-1.0-0.0-0.15","1011","","j","","","","","","","","","","","","","key","j","16.665999999999922","720","446","j","true","img/T_ambi40.png","方形","image_first",""
"","","","","","html-keyboard-response","190","454579","0.0-13.0-0.0-1.0-0.0-1.15","null","<span style='color:GreenYellow; font-size: 70px;'>正确! </span>","null","","","","","","","","","","","","","","","","","","","","","","","feedback_test"
"","","","","","psychophysics","191","456660","0.0-13.0-0.0-1.0-0.0-0.16","920","","f","","","","","","","","","","","","","key","f","16.666000000000256","720","446","f","true","img/T_ambi40.png","三角","image_first",""
"","","","","","html-keyboard-response","192","456962","0.0-13.0-0.0-1.0-0.0-1.16","null","<span style='color:GreenYellow; font-size: 70px;'>正确! </span>","null","","","","","","","","","","","","","","","","","","","","","","","feedback_test"
"","","","","","psychophysics","193","459624","0.0-13.0-0.0-1.0-0.0-0.17","null","","null","","","","","","","","","","","","","key","null","16.666000000000018","720","446","j","false","img/S_ambi40.png","三角","image_first",""
"","","","","","html-keyboard-response","194","459930","0.0-13.0-0.0-1.0-0.0-1.17","null","<span class='add_' style='color:yellow; font-size: 70px;'> 太慢! </span>","null","","","","","","","","","","","","","","","","","","","","","","","feedback_test"
"","","","","","psychophysics","195","462223","0.0-13.0-0.0-1.0-0.0-0.18","1138","","f","","","","","","","","","","","","","key","f","16.666000000000007","720","446","f","true","img/S_ambi40.png","方形","image_first",""
"","","","","","html-keyboard-response","196","462535","0.0-13.0-0.0-1.0-0.0-1.18","null","<span style='color:GreenYellow; font-size: 70px;'>正确! </span>","null","","","","","","","","","","","","","","","","","","","","","","","feedback_test"
"","","","","","psychophysics","197","464515","0.0-13.0-0.0-1.0-0.0-0.19","825","","j","","","","","","","","","","","","","key","j","16.6704406779658","720","446","j","true","img/C_ambi40.png","方形","image_first",""
"","","","","","html-keyboard-response","198","464818","0.0-13.0-0.0-1.0-0.0-1.19","null","<span style='color:GreenYellow; font-size: 70px;'>正确! </span>","null","","","","","","","","","","","","","","","","","","","","","","","feedback_test"
"","","","","","psychophysics","199","466632","0.0-13.0-0.0-1.0-0.0-0.20","659","","j","","","","","","","","","","","","","key","j","16.666000000000135","720","446","j","true","img/C_ambi40.png","三角","image_first",""
"","","","","","html-keyboard-response","200","466939","0.0-13.0-0.0-1.0-0.0-1.20","null","<span style='color:GreenYellow; font-size: 70px;'>正确! </span>","null","","","","","","","","","","","","","","","","","","","","","","","feedback_test"
"","","","","","psychophysics","201","468883","0.0-13.0-0.0-1.0-0.0-0.21","791","","f","","","","","","","","","","","","","key","f","16.666000000000224","720","446","f","true","img/C_ambi40.png","圆形","image_first",""
"","","","","","html-keyboard-response","202","469191","0.0-13.0-0.0-1.0-0.0-1.21","null","<span style='color:GreenYellow; font-size: 70px;'>正确! </span>","null","","","","","","","","","","","","","","","","","","","","","","","feedback_test"
"","","","","","psychophysics","203","470965","0.0-13.0-0.0-1.0-0.0-0.22","622","","f","","","","","","","","","","","","","key","f","16.665999999999933","720","446","j","false","img/S_ambi40.png","圆形","image_first",""
"","","","","","html-keyboard-response","204","471270","0.0-13.0-0.0-1.0-0.0-1.22","null","<span style='color:red; font-size: 70px;'>错误! </span>","null","","","","","","","","","","","","","","","","","","","","","","","feedback_test"
"","","","","","psychophysics","205","473099","0.0-13.0-0.0-1.0-0.0-0.23","674","","f","","","","","","","","","","","","","key","f","16.666000000000377","720","446","f","true","img/S_ambi40.png","方形","image_first",""
"","","","","","html-keyboard-response","206","473407","0.0-13.0-0.0-1.0-0.0-1.23","null","<span style='color:GreenYellow; font-size: 70px;'>正确! </span>","null","","","","","","","","","","","","","","","","","","","","","","","feedback_test"
"","","","","","psychophysics","207","475174","0.0-13.0-0.0-1.0-0.0-0.24","607","","j","","","","","","","","","","","","","key","j","16.66600000000024","720","446","f","false","img/T_ambi40.png","三角","image_first",""
"","","","","","html-keyboard-response","208","475482","0.0-13.0-0.0-1.0-0.0-1.24","null","<span style='color:red; font-size: 70px;'>错误! </span>","null","","","","","","","","","","","","","","","","","","","","","","","feedback_test"
"","","","","","psychophysics","209","477320","0.0-13.0-0.0-1.0-0.0-0.25","685","","j","","","","","","","","","","","","","key","j","16.66599999999984","720","446","j","true","img/S_ambi40.png","圆形","image_first",""
"","","","","","html-keyboard-response","210","477628","0.0-13.0-0.0-1.0-0.0-1.25","null","<span style='color:GreenYellow; font-size: 70px;'>正确! </span>","null","","","","","","","","","","","","","","","","","","","","","","","feedback_test"
"","","","","","psychophysics","211","479453","0.0-13.0-0.0-1.0-0.0-0.26","662","","j","","","","","","","","","","","","","key","j","16.666000000000135","720","446","j","true","img/T_ambi40.png","圆形","image_first",""
"","","","","","html-keyboard-response","212","479755","0.0-13.0-0.0-1.0-0.0-1.26","null","<span style='color:GreenYellow; font-size: 70px;'>正确! </span>","null","","","","","","","","","","","","","","","","","","","","","","","feedback_test"
"","","","","","psychophysics","213","481741","0.0-13.0-0.0-1.0-0.0-0.27","834","","f","","","","","","","","","","","","","key","f","16.66600000000013","720","446","j","false","img/T_ambi40.png","方形","image_first",""
"","","","","","html-keyboard-response","214","482043","0.0-13.0-0.0-1.0-0.0-1.27","null","<span style='color:red; font-size: 70px;'>错误! </span>","null","","","","","","","","","","","","","","","","","","","","","","","feedback_test"
"","","","","","psychophysics","215","484054","0.0-13.0-0.0-1.0-0.0-0.28","859","","j","","","","","","","","","","","","","key","j","16.66600000000013","720","446","j","true","img/C_ambi40.png","方形","image_first",""
"","","","","","html-keyboard-response","216","484367","0.0-13.0-0.0-1.0-0.0-1.28","null","<span style='color:GreenYellow; font-size: 70px;'>正确! </span>","null","","","","","","","","","","","","","","","","","","","","","","","feedback_test"
"","","","","","psychophysics","217","486239","0.0-13.0-0.0-1.0-0.0-0.29","716","","f","","","","","","","","","","","","","key","f","16.666000000000324","720","446","f","true","img/C_ambi40.png","圆形","image_first",""
"","","","","","html-keyboard-response","218","486551","0.0-13.0-0.0-1.0-0.0-1.29","null","<span style='color:GreenYellow; font-size: 70px;'>正确! </span>","null","","","","","","","","","","","","","","","","","","","","","","","feedback_test"
"","","","","","psychophysics","219","488364","0.0-13.0-0.0-1.0-0.0-0.30","658","","f","","","","","","","","","","","","","key","f","16.665999999999595","720","446","f","true","img/S_ambi40.png","方形","image_first",""
"","","","","","html-keyboard-response","220","488671","0.0-13.0-0.0-1.0-0.0-1.30","null","<span style='color:GreenYellow; font-size: 70px;'>正确! </span>","null","","","","","","","","","","","","","","","","","","","","","","","feedback_test"
"","","","","","psychophysics","221","490550","0.0-13.0-0.0-1.0-0.0-0.31","725","","j","","","","","","","","","","","","","key","j","16.666000000000036","720","446","j","true","img/C_ambi40.png","三角","image_first",""
"","","","","","html-keyboard-response","222","490863","0.0-13.0-0.0-1.0-0.0-1.31","null","<span style='color:GreenYellow; font-size: 70px;'>正确! </span>","null","","","","","","","","","","","","","","","","","","","","","","","feedback_test"
"","","","","","psychophysics","223","492714","0.0-13.0-0.0-1.0-0.0-0.32","694","","f","","","","","","","","","","","","","key","f","16.666000000000086","720","446","f","true","img/C_ambi40.png","圆形","image_first",""
"","","","","","html-keyboard-response","224","493021","0.0-13.0-0.0-1.0-0.0-1.32","null","<span style='color:GreenYellow; font-size: 70px;'>正确! </span>","null","","","","","","","","","","","","","","","","","","","","","","","feedback_test"
"","","","","","psychophysics","225","494752","0.0-13.0-0.0-1.0-0.0-0.33","577","","j","","","","","","","","","","","","","key","j","16.665999999999983","720","446","j","true","img/S_ambi40.png","三角","image_first",""
"","","","","","html-keyboard-response","226","495061","0.0-13.0-0.0-1.0-0.0-1.33","null","<span style='color:GreenYellow; font-size: 70px;'>正确! </span>","null","","","","","","","","","","","","","","","","","","","","","","","feedback_test"
"","","","","","psychophysics","227","496820","0.0-13.0-0.0-1.0-0.0-0.34","601","","f","","","","","","","","","","","","","key","f","16.665999999999677","720","446","f","true","img/S_ambi40.png","方形","image_first",""
"","","","","","html-keyboard-response","228","497126","0.0-13.0-0.0-1.0-0.0-1.34","null","<span style='color:GreenYellow; font-size: 70px;'>正确! </span>","null","","","","","","","","","","","","","","","","","","","","","","","feedback_test"
"","","","","","psychophysics","229","499344","0.0-13.0-0.0-1.0-0.0-0.35","1057","","f","","","","","","","","","","","","","key","f","16.666000000000086","720","446","f","true","img/T_ambi40.png","三角","image_first",""
"","","","","","html-keyboard-response","230","499655","0.0-13.0-0.0-1.0-0.0-1.35","null","<span style='color:GreenYellow; font-size: 70px;'>正确! </span>","null","","","","","","","","","","","","","","","","","","","","","","","feedback_test"
"","","","","","psychophysics","231","501502","0.0-13.0-0.0-1.0-0.0-0.36","694","","j","","","","","","","","","","","","","key","j","16.666000000000086","720","446","j","true","img/S_ambi40.png","圆形","image_first",""
"","","","","","html-keyboard-response","232","501811","0.0-13.0-0.0-1.0-0.0-1.36","null","<span style='color:GreenYellow; font-size: 70px;'>正确! </span>","null","","","","","","","","","","","","","","","","","","","","","","","feedback_test"
"","","","","","psychophysics","233","503690","0.0-13.0-0.0-1.0-0.0-0.37","716","","f","","","","","","","","","","","","","key","f","16.665999999999798","720","446","f","true","img/S_ambi40.png","方形","image_first",""
"","","","","","html-keyboard-response","234","503995","0.0-13.0-0.0-1.0-0.0-1.37","null","<span style='color:GreenYellow; font-size: 70px;'>正确! </span>","null","","","","","","","","","","","","","","","","","","","","","","","feedback_test"
"","","","","","psychophysics","235","505961","0.0-13.0-0.0-1.0-0.0-0.38","803","","f","","","","","","","","","","","","","key","f","16.670478632478602","720","446","f","true","img/S_ambi40.png","方形","image_first",""
"","","","","","html-keyboard-response","236","506269","0.0-13.0-0.0-1.0-0.0-1.38","null","<span style='color:GreenYellow; font-size: 70px;'>正确! </span>","null","","","","","","","","","","","","","","","","","","","","","","","feedback_test"
"","","","","","psychophysics","237","507991","0.0-13.0-0.0-1.0-0.0-0.39","567","","j","","","","","","","","","","","","","key","j","16.665999999999983","720","446","f","false","img/T_ambi40.png","三角","image_first",""
"","","","","","html-keyboard-response","238","508303","0.0-13.0-0.0-1.0-0.0-1.39","null","<span style='color:red; font-size: 70px;'>错误! </span>","null","","","","","","","","","","","","","","","","","","","","","","","feedback_test"
"","","","","","psychophysics","239","510249","0.0-13.0-0.0-1.0-0.0-0.40","790","","j","","","","","","","","","","","","","key","j","16.665999999999947","720","446","j","true","img/T_ambi40.png","圆形","image_first",""
"","","","","","html-keyboard-response","240","510559","0.0-13.0-0.0-1.0-0.0-1.40","null","<span style='color:GreenYellow; font-size: 70px;'>正确! </span>","null","","","","","","","","","","","","","","","","","","","","","","","feedback_test"
"","","","","","psychophysics","241","512747","0.0-13.0-0.0-1.0-0.0-0.41","1036","","j","","","","","","","","","","","","","key","j","16.666000000000125","720","446","j","true","img/T_ambi40.png","方形","image_first",""
"","","","","","html-keyboard-response","242","513053","0.0-13.0-0.0-1.0-0.0-1.41","null","<span style='color:GreenYellow; font-size: 70px;'>正确! </span>","null","","","","","","","","","","","","","","","","","","","","","","","feedback_test"
"","","","","","psychophysics","243","515074","0.0-13.0-0.0-1.0-0.0-0.42","866","","j","","","","","","","","","","","","","key","j","16.666000000000086","720","446","j","true","img/C_ambi40.png","方形","image_first",""
"","","","","","html-keyboard-response","244","515383","0.0-13.0-0.0-1.0-0.0-1.42","null","<span style='color:GreenYellow; font-size: 70px;'>正确! </span>","null","","","","","","","","","","","","","","","","","","","","","","","feedback_test"
"","","","","","psychophysics","245","517650","0.0-13.0-0.0-1.0-0.0-0.43","1109","","j","","","","","","","","","","","","","key","j","16.666000000000242","720","446","j","true","img/C_ambi40.png","三角","image_first",""
"","","","","","html-keyboard-response","246","517959","0.0-13.0-0.0-1.0-0.0-1.43","null","<span style='color:GreenYellow; font-size: 70px;'>正确! </span>","null","","","","","","","","","","","","","","","","","","","","","","","feedback_test"
"","","","","","psychophysics","247","519732","0.0-13.0-0.0-1.0-0.0-0.44","617","","f","","","","","","","","","","","","","key","f","16.666000000000487","720","446","f","true","img/C_ambi40.png","圆形","image_first",""
"","","","","","html-keyboard-response","248","520037","0.0-13.0-0.0-1.0-0.0-1.44","null","<span style='color:GreenYellow; font-size: 70px;'>正确! </span>","null","","","","","","","","","","","","","","","","","","","","","","","feedback_test"
"","","","","","psychophysics","249","522400","0.0-13.0-0.0-1.0-0.0-0.45","1208","","f","","","","","","","","","","","","","key","f","16.66600000000012","720","446","f","true","img/T_ambi40.png","三角","image_first",""
"","","","","","html-keyboard-response","250","522710","0.0-13.0-0.0-1.0-0.0-1.45","null","<span style='color:GreenYellow; font-size: 70px;'>正确! </span>","null","","","","","","","","","","","","","","","","","","","","","","","feedback_test"
"","","","","","psychophysics","251","524583","0.0-13.0-0.0-1.0-0.0-0.46","716","","j","","","","","","","","","","","","","key","j","16.67071171171244","720","446","j","true","img/S_ambi40.png","三角","image_first",""
"","","","","","html-keyboard-response","252","524893","0.0-13.0-0.0-1.0-0.0-1.46","null","<span style='color:GreenYellow; font-size: 70px;'>正确! </span>","null","","","","","","","","","","","","","","","","","","","","","","","feedback_test"
"","","","","","psychophysics","253","526795","0.0-13.0-0.0-1.0-0.0-0.47","744","","f","","","","","","","","","","","","","key","f","16.66600000000027","720","446","f","true","img/C_ambi40.png","圆形","image_first",""
"","","","","","html-keyboard-response","254","527103","0.0-13.0-0.0-1.0-0.0-1.47","null","<span style='color:GreenYellow; font-size: 70px;'>正确! </span>","null","","","","","","","","","","","","","","","","","","","","","","","feedback_test"
"","","","","","psychophysics","255","529041","0.0-13.0-0.0-1.0-0.0-0.48","783","","f","","","","","","","","","","","","","key","f","16.665999999999446","720","446","f","true","img/S_ambi40.png","方形","image_first",""
"","","","","","html-keyboard-response","256","529351","0.0-13.0-0.0-1.0-0.0-1.48","null","<span style='color:GreenYellow; font-size: 70px;'>正确! </span>","null","","","","","","","","","","","","","","","","","","","","","","","feedback_test"
"","","","","","psychophysics","257","531147","0.0-13.0-0.0-1.0-0.0-0.49","639","","j","","","","","","","","","","","","","key","j","16.665999999999887","720","446","j","true","img/S_ambi40.png","三角","image_first",""
"","","","","","html-keyboard-response","258","531453","0.0-13.0-0.0-1.0-0.0-1.49","null","<span style='color:GreenYellow; font-size: 70px;'>正确! </span>","null","","","","","","","","","","","","","","","","","","","","","","","feedback_test"
"","","","","","psychophysics","259","533478","0.0-13.0-0.0-1.0-0.0-0.50","870","","f","","","","","","","","","","","","","key","f","16.666000000000086","720","446","f","true","img/C_ambi40.png","圆形","image_first",""
"","","","","","html-keyboard-response","260","533788","0.0-13.0-0.0-1.0-0.0-1.50","null","<span style='color:GreenYellow; font-size: 70px;'>正确! </span>","null","","","","","","","","","","","","","","","","","","","","","","","feedback_test"
"","","","","","psychophysics","261","536153","0.0-13.0-0.0-1.0-0.0-0.51","1212","","f","","","","","","","","","","","","","key","f","16.66599999999971","720","446","f","true","img/C_ambi40.png","圆形","image_first",""
"","","","","","html-keyboard-response","262","536460","0.0-13.0-0.0-1.0-0.0-1.51","null","<span style='color:GreenYellow; font-size: 70px;'>正确! </span>","null","","","","","","","","","","","","","","","","","","","","","","","feedback_test"
"","","","","","psychophysics","263","538254","0.0-13.0-0.0-1.0-0.0-0.52","636","","j","","","","","","","","","","","","","key","j","16.666000000000185","720","446","j","true","img/C_ambi40.png","方形","image_first",""
"","","","","","html-keyboard-response","264","538567","0.0-13.0-0.0-1.0-0.0-1.52","null","<span style='color:GreenYellow; font-size: 70px;'>正确! </span>","null","","","","","","","","","","","","","","","","","","","","","","","feedback_test"
"","","","","","psychophysics","265","540830","0.0-13.0-0.0-1.0-0.0-0.53","1108","","j","","","","","","","","","","","","","key","j","16.666000000000242","720","446","j","true","img/S_ambi40.png","圆形","image_first",""
"","","","","","html-keyboard-response","266","541144","0.0-13.0-0.0-1.0-0.0-1.53","null","<span style='color:GreenYellow; font-size: 70px;'>正确! </span>","null","","","","","","","","","","","","","","","","","","","","","","","feedback_test"
"","","","","","psychophysics","267","542926","0.0-13.0-0.0-1.0-0.0-0.54","628","","j","","","","","","","","","","","","","key","j","16.666000000000185","720","446","j","true","img/C_ambi40.png","三角","image_first",""
"","","","","","html-keyboard-response","268","543240","0.0-13.0-0.0-1.0-0.0-1.54","null","<span style='color:GreenYellow; font-size: 70px;'>正确! </span>","null","","","","","","","","","","","","","","","","","","","","","","","feedback_test"
"","","","","","psychophysics","269","545158","0.0-13.0-0.0-1.0-0.0-0.55","766","","j","","","","","","","","","","","","","key","j","16.67058771929863","720","446","j","true","img/T_ambi40.png","圆形","image_first",""
"","","","","","html-keyboard-response","270","545472","0.0-13.0-0.0-1.0-0.0-1.55","null","<span style='color:GreenYellow; font-size: 70px;'>正确! </span>","null","","","","","","","","","","","","","","","","","","","","","","","feedback_test"
"","","","","","psychophysics","271","547992","0.0-13.0-0.0-1.0-0.0-0.56","1368","","j","","","","","","","","","","","","","key","j","16.665999999999944","720","446","f","false","img/S_ambi40.png","方形","image_first",""
"","","","","","html-keyboard-response","272","548304","0.0-13.0-0.0-1.0-0.0-1.56","null","<span style='color:red; font-size: 70px;'>错误! </span>","null","","","","","","","","","","","","","","","","","","","","","","","feedback_test"
"","","","","","psychophysics","273","550333","0.0-13.0-0.0-1.0-0.0-0.57","874","","f","","","","","","","","","","","","","key","f","16.666000000000086","720","446","f","true","img/T_ambi40.png","三角","image_first",""
"","","","","","html-keyboard-response","274","550640","0.0-13.0-0.0-1.0-0.0-1.57","null","<span style='color:GreenYellow; font-size: 70px;'>正确! </span>","null","","","","","","","","","","","","","","","","","","","","","","","feedback_test"
"","","","","","psychophysics","275","552590","0.0-13.0-0.0-1.0-0.0-0.58","800","","j","","","","","","","","","","","","","key","j","16.665999999999716","720","446","j","true","img/T_ambi40.png","方形","image_first",""
"","","","","","html-keyboard-response","276","552901","0.0-13.0-0.0-1.0-0.0-1.58","null","<span style='color:GreenYellow; font-size: 70px;'>正确! </span>","null","","","","","","","","","","","","","","","","","","","","","","","feedback_test"
"","","","","","psychophysics","277","554911","0.0-13.0-0.0-1.0-0.0-0.59","845","","f","","","","","","","","","","","","","key","f","16.66599999999938","720","446","f","true","img/T_ambi40.png","三角","image_first",""
"","","","","","html-keyboard-response","278","555224","0.0-13.0-0.0-1.0-0.0-1.59","null","<span style='color:GreenYellow; font-size: 70px;'>正确! </span>","null","","","","","","","","","","","","","","","","","","","","","","","feedback_test"
"","","","","","html-keyboard-response","279","583243","0.0-13.0-0.0-1.0-1.0","28016","<style>.context{color:white; font-size: 35px; line-height:40px}</style>                            <div><p class='context'>您正确回答了87% 的试次。</p><p class='context'>您的平均反应时为790毫秒。</p><p class='context'>请按任意键进入休息</p></div>"," ","","","","","","","","","","","","","","","","","","","","","","",""
"","","","","","html-button-response","280","647503","0.0-13.0-0.0-1.0-2.0","64256","
                    <p>您当前还剩余3组实验</p>
                    <p>现在是休息时间，当您结束休息后，您可以点击 结束休息 按钮 继续</p>
                    <p>建议休息时间还剩余<span id=""iii"">60</span>秒</p>","0","","","","","","","","","","","","","","","","","","","","","","",""
"","","","","","psychophysics","281","649663","0.0-13.0-0.0-1.0-0.1-0.60","1006","","f","","","","","","","","","","","","","key","f","16.666000000000167","720","446","f","true","img/C_ambi40.png","圆形","image_first",""
"","","","","","html-keyboard-response","282","649973","0.0-13.0-0.0-1.0-0.1-1.60","null","<span style='color:GreenYellow; font-size: 70px;'>正确! </span>","null","","","","","","","","","","","","","","","","","","","","","","","feedback_test"
"","","","","","psychophysics","283","651700","0.0-13.0-0.0-1.0-0.1-0.61","575","","j","","","","","","","","","","","","","key","j","16.66599999999915","720","446","j","true","img/C_ambi40.png","三角","image_first",""
"","","","","","html-keyboard-response","284","652004","0.0-13.0-0.0-1.0-0.1-1.61","null","<span style='color:GreenYellow; font-size: 70px;'>正确! </span>","null","","","","","","","","","","","","","","","","","","","","","","","feedback_test"
"","","","","","psychophysics","285","653839","0.0-13.0-0.0-1.0-0.1-0.62","682","","j","","","","","","","","","","","","","key","j","16.665999999999308","720","446","j","true","img/S_ambi40.png","圆形","image_first",""
"","","","","","html-keyboard-response","286","654152","0.0-13.0-0.0-1.0-0.1-1.62","null","<span style='color:GreenYellow; font-size: 70px;'>正确! </span>","null","","","","","","","","","","","","","","","","","","","","","","","feedback_test"
"","","","","","psychophysics","287","655858","0.0-13.0-0.0-1.0-0.1-0.63","550","","f","","","","","","","","","","","","","key","f","16.66599999999915","720","446","f","true","img/C_ambi40.png","圆形","image_first",""
"","","","","","html-keyboard-response","288","656166","0.0-13.0-0.0-1.0-0.1-1.63","null","<span style='color:GreenYellow; font-size: 70px;'>正确! </span>","null","","","","","","","","","","","","","","","","","","","","","","","feedback_test"
"","","","","","psychophysics","289","658281","0.0-13.0-0.0-1.0-0.1-0.64","958","","f","","","","","","","","","","","","","key","f","16.665999999999748","720","446","f","true","img/S_ambi40.png","方形","image_first",""
"","","","","","html-keyboard-response","290","658593","0.0-13.0-0.0-1.0-0.1-1.64","null","<span style='color:GreenYellow; font-size: 70px;'>正确! </span>","null","","","","","","","","","","","","","","","","","","","","","","","feedback_test"
"","","","","","psychophysics","291","660300","0.0-13.0-0.0-1.0-0.1-0.65","547","","j","","","","","","","","","","","","","key","j","16.666000000000608","720","446","j","true","img/S_ambi40.png","三角","image_first",""
"","","","","","html-keyboard-response","292","660608","0.0-13.0-0.0-1.0-0.1-1.65","null","<span style='color:GreenYellow; font-size: 70px;'>正确! </span>","null","","","","","","","","","","","","","","","","","","","","","","","feedback_test"
"","","","","","psychophysics","293","662452","0.0-13.0-0.0-1.0-0.1-0.66","685","","j","","","","","","","","","","","","","key","j","16.666000000000377","720","446","f","false","img/T_ambi40.png","三角","image_first",""
"","","","","","html-keyboard-response","294","662759","0.0-13.0-0.0-1.0-0.1-1.66","null","<span style='color:red; font-size: 70px;'>错误! </span>","null","","","","","","","","","","","","","","","","","","","","","","","feedback_test"
"","","","","","psychophysics","295","664661","0.0-13.0-0.0-1.0-0.1-0.67","740","","j","","","","","","","","","","","","","key","j","16.66600000000027","720","446","j","true","img/T_ambi40.png","圆形","image_first",""
"","","","","","html-keyboard-response","296","664967","0.0-13.0-0.0-1.0-0.1-1.67","null","<span style='color:GreenYellow; font-size: 70px;'>正确! </span>","null","","","","","","","","","","","","","","","","","","","","","","","feedback_test"
"","","","","","psychophysics","297","666761","0.0-13.0-0.0-1.0-0.1-0.68","639","","j","","","","","","","","","","","","","key","j","16.665999999999887","720","446","j","true","img/T_ambi40.png","方形","image_first",""
"","","","","","html-keyboard-response","298","667073","0.0-13.0-0.0-1.0-0.1-1.68","null","<span style='color:GreenYellow; font-size: 70px;'>正确! </span>","null","","","","","","","","","","","","","","","","","","","","","","","feedback_test"
"","","","","","psychophysics","299","668812","0.0-13.0-0.0-1.0-0.1-0.69","587","","j","","","","","","","","","","","","","key","j","16.671106796116042","720","446","f","false","img/T_ambi40.png","三角","image_first",""
"","","","","","html-keyboard-response","300","669117","0.0-13.0-0.0-1.0-0.1-1.69","null","<span style='color:red; font-size: 70px;'>错误! </span>","null","","","","","","","","","","","","","","","","","","","","","","","feedback_test"
"","","","","","psychophysics","301","670945","0.0-13.0-0.0-1.0-0.1-0.70","670","","f","","","","","","","","","","","","","key","f","16.666000000000377","720","446","f","true","img/S_ambi40.png","方形","image_first",""
"","","","","","html-keyboard-response","302","671254","0.0-13.0-0.0-1.0-0.1-1.70","null","<span style='color:GreenYellow; font-size: 70px;'>正确! </span>","null","","","","","","","","","","","","","","","","","","","","","","","feedback_test"
"","","","","","psychophysics","303","673184","0.0-13.0-0.0-1.0-0.1-0.71","776","","j","","","","","","","","","","","","","key","j","16.665999999999716","720","446","j","true","img/C_ambi40.png","方形","image_first",""
"","","","","","html-keyboard-response","304","673497","0.0-13.0-0.0-1.0-0.1-1.71","null","<span style='color:GreenYellow; font-size: 70px;'>正确! </span>","null","","","","","","","","","","","","","","","","","","","","","","","feedback_test"
"","","","","","psychophysics","305","675443","0.0-13.0-0.0-1.0-0.1-0.72","787","","f","","","","","","","","","","","","","key","f","16.665999999999446","720","446","f","true","img/C_ambi40.png","圆形","image_first",""
"","","","","","html-keyboard-response","306","675753","0.0-13.0-0.0-1.0-0.1-1.72","null","<span style='color:GreenYellow; font-size: 70px;'>正确! </span>","null","","","","","","","","","","","","","","","","","","","","","","","feedback_test"
"","","","","","psychophysics","307","677544","0.0-13.0-0.0-1.0-0.1-0.73","638","","j","","","","","","","","","","","","","key","j","16.665999999999887","720","446","j","true","img/C_ambi40.png","三角","image_first",""
"","","","","","html-keyboard-response","308","677853","0.0-13.0-0.0-1.0-0.1-1.73","null","<span style='color:GreenYellow; font-size: 70px;'>正确! </span>","null","","","","","","","","","","","","","","","","","","","","","","","feedback_test"
"","","","","","psychophysics","309","679620","0.0-13.0-0.0-1.0-0.1-0.74","612","","f","","","","","","","","","","","","","key","f","16.66599999999938","720","446","f","true","img/S_ambi40.png","方形","image_first",""
"","","","","","html-keyboard-response","310","679925","0.0-13.0-0.0-1.0-0.1-1.74","null","<span style='color:GreenYellow; font-size: 70px;'>正确! </span>","null","","","","","","","","","","","","","","","","","","","","","","","feedback_test"
"","","","","","psychophysics","311","681755","0.0-13.0-0.0-1.0-0.1-0.75","669","","f","","","","","","","","","","","","","key","f","16.665999999999595","720","446","f","true","img/C_ambi40.png","圆形","image_first",""
"","","","","","html-keyboard-response","312","682062","0.0-13.0-0.0-1.0-0.1-1.75","null","<span style='color:GreenYellow; font-size: 70px;'>正确! </span>","null","","","","","","","","","","","","","","","","","","","","","","","feedback_test"
"","","","","","psychophysics","313","683864","0.0-13.0-0.0-1.0-0.1-0.76","642","","j","","","","","","","","","","","","","key","j","16.665999999999887","720","446","j","true","img/S_ambi40.png","三角","image_first",""
"","","","","","html-keyboard-response","314","684173","0.0-13.0-0.0-1.0-0.1-1.76","null","<span style='color:GreenYellow; font-size: 70px;'>正确! </span>","null","","","","","","","","","","","","","","","","","","","","","","","feedback_test"
"","","","","","psychophysics","315","686437","0.0-13.0-0.0-1.0-0.1-0.77","1113","","f","","","","","","","","","","","","","key","f","16.66600000000048","720","446","f","true","img/T_ambi40.png","三角","image_first",""
"","","","","","html-keyboard-response","316","686744","0.0-13.0-0.0-1.0-0.1-1.77","null","<span style='color:GreenYellow; font-size: 70px;'>正确! </span>","null","","","","","","","","","","","","","","","","","","","","","","","feedback_test"
"","","","","","psychophysics","317","688577","0.0-13.0-0.0-1.0-0.1-0.78","676","","j","","","","","","","","","","","","","key","j","16.670807339449695","720","446","j","true","img/T_ambi40.png","方形","image_first",""
"","","","","","html-keyboard-response","318","688885","0.0-13.0-0.0-1.0-0.1-1.78","null","<span style='color:GreenYellow; font-size: 70px;'>正确! </span>","null","","","","","","","","","","","","","","","","","","","","","","","feedback_test"
"","","","","","psychophysics","319","690736","0.0-13.0-0.0-1.0-0.1-0.79","696","","f","","","","","","","","","","","","","key","f","16.666000000000086","720","446","f","true","img/T_ambi40.png","三角","image_first",""
"","","","","","html-keyboard-response","320","691049","0.0-13.0-0.0-1.0-0.1-1.79","null","<span style='color:GreenYellow; font-size: 70px;'>正确! </span>","null","","","","","","","","","","","","","","","","","","","","","","","feedback_test"
"","","","","","psychophysics","321","692922","0.0-13.0-0.0-1.0-0.1-0.80","715","","j","","","","","","","","","","","","","key","j","16.666000000000846","720","446","j","true","img/S_ambi40.png","圆形","image_first",""
"","","","","","html-keyboard-response","322","693228","0.0-13.0-0.0-1.0-0.1-1.80","null","<span style='color:GreenYellow; font-size: 70px;'>正确! </span>","null","","","","","","","","","","","","","","","","","","","","","","","feedback_test"
"","","","","","psychophysics","323","695111","0.0-13.0-0.0-1.0-0.1-0.81","726","","j","","","","","","","","","","","","","key","j","16.666000000000558","720","446","j","true","img/T_ambi40.png","圆形","image_first",""
"","","","","","html-keyboard-response","324","695417","0.0-13.0-0.0-1.0-0.1-1.81","null","<span style='color:GreenYellow; font-size: 70px;'>正确! </span>","null","","","","","","","","","","","","","","","","","","","","","","","feedback_test"
"","","","","","psychophysics","325","697415","0.0-13.0-0.0-1.0-0.1-0.82","842","","j","","","","","","","","","","","","","key","j","16.66599999999964","720","446","j","true","img/C_ambi40.png","方形","image_first",""
"","","","","","html-keyboard-response","326","697721","0.0-13.0-0.0-1.0-0.1-1.82","null","<span style='color:GreenYellow; font-size: 70px;'>正确! </span>","null","","","","","","","","","","","","","","","","","","","","","","","feedback_test"
"","","","","","psychophysics","327","699643","0.0-13.0-0.0-1.0-0.1-0.83","770","","f","","","","","","","","","","","","","key","f","16.665999999999716","720","446","f","true","img/S_ambi40.png","方形","image_first",""
"","","","","","html-keyboard-response","328","699953","0.0-13.0-0.0-1.0-0.1-1.83","null","<span style='color:GreenYellow; font-size: 70px;'>正确! </span>","null","","","","","","","","","","","","","","","","","","","","","","","feedback_test"
"","","","","","psychophysics","329","702123","0.0-13.0-0.0-1.0-0.1-0.84","1016","","j","","","","","","","","","","","","","key","j","16.665999999999677","720","446","j","true","img/T_ambi40.png","方形","image_first",""
"","","","","","html-keyboard-response","330","702433","0.0-13.0-0.0-1.0-0.1-1.84","null","<span style='color:GreenYellow; font-size: 70px;'>正确! </span>","null","","","","","","","","","","","","","","","","","","","","","","","feedback_test"
"","","","","","psychophysics","331","704183","0.0-13.0-0.0-1.0-0.1-0.85","593","","j","","","","","","","","","","","","","key","j","16.665999999999677","720","446","j","true","img/S_ambi40.png","三角","image_first",""
"","","","","","html-keyboard-response","332","704485","0.0-13.0-0.0-1.0-0.1-1.85","null","<span style='color:GreenYellow; font-size: 70px;'>正确! </span>","null","","","","","","","","","","","","","","","","","","","","","","","feedback_test"
"","","","","","psychophysics","333","706257","0.0-13.0-0.0-1.0-0.1-0.86","616","","f","","","","","","","","","","","","","key","f","16.665999999999087","720","446","f","true","img/T_ambi40.png","三角","image_first",""
"","","","","","html-keyboard-response","334","706569","0.0-13.0-0.0-1.0-0.1-1.86","null","<span style='color:GreenYellow; font-size: 70px;'>正确! </span>","null","","","","","","","","","","","","","","","","","","","","","","","feedback_test"
"","","","","","psychophysics","335","708411","0.0-13.0-0.0-1.0-0.1-0.87","688","","f","","","","","","","","","","","","","key","f","16.6707636363635","720","446","f","true","img/S_ambi40.png","方形","image_first",""
"","","","","","html-keyboard-response","336","708721","0.0-13.0-0.0-1.0-0.1-1.87","null","<span style='color:GreenYellow; font-size: 70px;'>正确! </span>","null","","","","","","","","","","","","","","","","","","","","","","","feedback_test"
"","","","","","psychophysics","337","710504","0.0-13.0-0.0-1.0-0.1-0.88","630","","f","","","","","","","","","","","","","key","f","16.666000000000185","720","446","f","true","img/S_ambi40.png","方形","image_first",""
"","","","","","html-keyboard-response","338","710817","0.0-13.0-0.0-1.0-0.1-1.88","null","<span style='color:GreenYellow; font-size: 70px;'>正确! </span>","null","","","","","","","","","","","","","","","","","","","","","","","feedback_test"
"","","","","","psychophysics","339","712602","0.0-13.0-0.0-1.0-0.1-0.89","627","","j","","","","","","","","","","","","","key","j","16.666000000000185","720","446","j","true","img/C_ambi40.png","方形","image_first",""
"","","","","","html-keyboard-response","340","712912","0.0-13.0-0.0-1.0-0.1-1.89","null","<span style='color:GreenYellow; font-size: 70px;'>正确! </span>","null","","","","","","","","","","","","","","","","","","","","","","","feedback_test"
"","","","","","psychophysics","341","714759","0.0-13.0-0.0-1.0-0.1-0.90","686","","f","","","","","","","","","","","","","key","f","16.666000000000086","720","446","f","true","img/T_ambi40.png","三角","image_first",""
"","","","","","html-keyboard-response","342","715062","0.0-13.0-0.0-1.0-0.1-1.90","null","<span style='color:GreenYellow; font-size: 70px;'>正确! </span>","null","","","","","","","","","","","","","","","","","","","","","","","feedback_test"
"","","","","","psychophysics","343","716946","0.0-13.0-0.0-1.0-0.1-0.91","725","","f","","","","","","","","","","","","","key","f","16.665999999999517","720","446","f","true","img/C_ambi40.png","圆形","image_first",""
"","","","","","html-keyboard-response","344","717253","0.0-13.0-0.0-1.0-0.1-1.91","null","<span style='color:GreenYellow; font-size: 70px;'>正确! </span>","null","","","","","","","","","","","","","","","","","","","","","","","feedback_test"
"","","","","","psychophysics","345","719083","0.0-13.0-0.0-1.0-0.1-0.92","675","","f","","","","","","","","","","","","","key","f","16.668431192661053","720","446","f","true","img/C_ambi40.png","圆形","image_first",""
"","","","","","html-keyboard-response","346","719392","0.0-13.0-0.0-1.0-0.1-1.92","null","<span style='color:GreenYellow; font-size: 70px;'>正确! </span>","null","","","","","","","","","","","","","","","","","","","","","","","feedback_test"
"","","","","","psychophysics","347","721193","0.0-13.0-0.0-1.0-0.1-0.93","649","","j","","","","","","","","","","","","","key","j","16.665999999999887","720","446","j","true","img/S_ambi40.png","圆形","image_first",""
"","","","","","html-keyboard-response","348","721501","0.0-13.0-0.0-1.0-0.1-1.93","null","<span style='color:GreenYellow; font-size: 70px;'>正确! </span>","null","","","","","","","","","","","","","","","","","","","","","","","feedback_test"
"","","","","","psychophysics","349","723288","0.0-13.0-0.0-1.0-0.1-0.94","635","","j","","","","","","","","","","","","","key","j","16.666000000000185","720","446","j","true","img/C_ambi40.png","三角","image_first",""
"","","","","","html-keyboard-response","350","723596","0.0-13.0-0.0-1.0-0.1-1.94","null","<span style='color:GreenYellow; font-size: 70px;'>正确! </span>","null","","","","","","","","","","","","","","","","","","","","","","","feedback_test"
"","","","","","psychophysics","351","725546","0.0-13.0-0.0-1.0-0.1-0.95","793","","j","","","","","","","","","","","","","key","j","16.665999999999446","720","446","j","true","img/T_ambi40.png","圆形","image_first",""
"","","","","","html-keyboard-response","352","725855","0.0-13.0-0.0-1.0-0.1-1.95","null","<span style='color:GreenYellow; font-size: 70px;'>正确! </span>","null","","","","","","","","","","","","","","","","","","","","","","","feedback_test"
"","","","","","psychophysics","353","727678","0.0-13.0-0.0-1.0-0.1-0.96","670","","f","","","","","","","","","","","","","key","f","16.665999999999595","720","446","f","true","img/S_ambi40.png","方形","image_first",""
"","","","","","html-keyboard-response","354","727981","0.0-13.0-0.0-1.0-0.1-1.96","null","<span style='color:GreenYellow; font-size: 70px;'>正确! </span>","null","","","","","","","","","","","","","","","","","","","","","","","feedback_test"
"","","","","","psychophysics","355","729728","0.0-13.0-0.0-1.0-0.1-0.97","595","","j","","","","","","","","","","","","","key","j","16.666000000000796","720","446","j","true","img/S_ambi40.png","三角","image_first",""
"","","","","","html-keyboard-response","356","730041","0.0-13.0-0.0-1.0-0.1-1.97","null","<span style='color:GreenYellow; font-size: 70px;'>正确! </span>","null","","","","","","","","","","","","","","","","","","","","","","","feedback_test"
"","","","","","psychophysics","357","732197","0.0-13.0-0.0-1.0-0.1-0.98","1004","","f","","","","","","","","","","","","","key","f","16.666000000000167","720","446","f","true","img/T_ambi40.png","三角","image_first",""
"","","","","","html-keyboard-response","358","732504","0.0-13.0-0.0-1.0-0.1-1.98","null","<span style='color:GreenYellow; font-size: 70px;'>正确! </span>","null","","","","","","","","","","","","","","","","","","","","","","","feedback_test"
"","","","","","psychophysics","359","734394","0.0-13.0-0.0-1.0-0.1-0.99","737","","j","","","","","","","","","","","","","key","j","16.66600000000027","720","446","j","true","img/T_ambi40.png","方形","image_first",""
"","","","","","html-keyboard-response","360","734705","0.0-13.0-0.0-1.0-0.1-1.99","null","<span style='color:GreenYellow; font-size: 70px;'>正确! </span>","null","","","","","","","","","","","","","","","","","","","","","","","feedback_test"
"","","","","","psychophysics","361","736536","0.0-13.0-0.0-1.0-0.1-0.100","679","","f","","","","","","","","","","","","","key","f","16.666000000000672","720","446","f","true","img/S_ambi40.png","方形","image_first",""
"","","","","","html-keyboard-response","362","736850","0.0-13.0-0.0-1.0-0.1-1.100","null","<span style='color:GreenYellow; font-size: 70px;'>正确! </span>","null","","","","","","","","","","","","","","","","","","","","","","","feedback_test"
"","","","","","psychophysics","363","738665","0.0-13.0-0.0-1.0-0.1-0.101","657","","j","","","","","","","","","","","","","key","j","16.6708518518523","720","446","j","true","img/S_ambi40.png","圆形","image_first",""
"","","","","","html-keyboard-response","364","738975","0.0-13.0-0.0-1.0-0.1-1.101","null","<span style='color:GreenYellow; font-size: 70px;'>正确! </span>","null","","","","","","","","","","","","","","","","","","","","","","","feedback_test"
"","","","","","psychophysics","365","740687","0.0-13.0-0.0-1.0-0.1-0.102","550","","f","","","","","","","","","","","","","key","f","16.665999999999457","720","446","f","true","img/C_ambi40.png","圆形","image_first",""
"","","","","","html-keyboard-response","366","740990","0.0-13.0-0.0-1.0-0.1-1.102","null","<span style='color:GreenYellow; font-size: 70px;'>正确! </span>","null","","","","","","","","","","","","","","","","","","","","","","","feedback_test"
"","","","","","psychophysics","367","742717","0.0-13.0-0.0-1.0-0.1-0.103","575","","j","","","","","","","","","","","","","key","j","16.66600000000029","720","446","j","true","img/T_ambi40.png","圆形","image_first",""
"","","","","","html-keyboard-response","368","743022","0.0-13.0-0.0-1.0-0.1-1.103","null","<span style='color:GreenYellow; font-size: 70px;'>正确! </span>","null","","","","","","","","","","","","","","","","","","","","","","","feedback_test"
"","","","","","psychophysics","369","744674","0.0-13.0-0.0-1.0-0.1-0.104","499","","f","","","","","","","","","","","","","key","f","16.66600000000041","720","446","f","true","img/T_ambi40.png","三角","image_first",""
"","","","","","html-keyboard-response","370","744981","0.0-13.0-0.0-1.0-0.1-1.104","null","<span style='color:GreenYellow; font-size: 70px;'>正确! </span>","null","","","","","","","","","","","","","","","","","","","","","","","feedback_test"
"","","","","","psychophysics","371","746778","0.0-13.0-0.0-1.0-0.1-0.105","637","","j","","","","","","","","","","","","","key","j","16.665999999999887","720","446","j","true","img/C_ambi40.png","方形","image_first",""
"","","","","","html-keyboard-response","372","747090","0.0-13.0-0.0-1.0-0.1-1.105","null","<span style='color:GreenYellow; font-size: 70px;'>正确! </span>","null","","","","","","","","","","","","","","","","","","","","","","","feedback_test"
"","","","","","psychophysics","373","748833","0.0-13.0-0.0-1.0-0.1-0.106","588","","j","","","","","","","","","","","","","key","j","16.665999999999983","720","446","j","true","img/C_ambi40.png","三角","image_first",""
"","","","","","html-keyboard-response","374","749141","0.0-13.0-0.0-1.0-0.1-1.106","null","<span style='color:GreenYellow; font-size: 70px;'>正确! </span>","null","","","","","","","","","","","","","","","","","","","","","","","feedback_test"
"","","","","","psychophysics","375","750939","0.0-13.0-0.0-1.0-0.1-0.107","647","","f","","","","","","","","","","","","","key","f","16.666000000000185","720","446","f","true","img/C_ambi40.png","圆形","image_first",""
"","","","","","html-keyboard-response","376","751250","0.0-13.0-0.0-1.0-0.1-1.107","null","<span style='color:GreenYellow; font-size: 70px;'>正确! </span>","null","","","","","","","","","","","","","","","","","","","","","","","feedback_test"
"","","","","","psychophysics","377","753046","0.0-13.0-0.0-1.0-0.1-0.108","640","","j","","","","","","","","","","","","","key","j","16.665999999999887","720","446","j","true","img/C_ambi40.png","方形","image_first",""
"","","","","","html-keyboard-response","378","753354","0.0-13.0-0.0-1.0-0.1-1.108","null","<span style='color:GreenYellow; font-size: 70px;'>正确! </span>","null","","","","","","","","","","","","","","","","","","","","","","","feedback_test"
"","","","","","psychophysics","379","755876","0.0-13.0-0.0-1.0-0.1-0.109","1368","","j","","","","","","","","","","","","","key","j","16.666000000000714","720","446","j","true","img/S_ambi40.png","圆形","image_first",""
"","","","","","html-keyboard-response","380","756182","0.0-13.0-0.0-1.0-0.1-1.109","null","<span style='color:GreenYellow; font-size: 70px;'>正确! </span>","null","","","","","","","","","","","","","","","","","","","","","","","feedback_test"
"","","","","","psychophysics","381","758075","0.0-13.0-0.0-1.0-0.1-0.110","736","","j","","","","","","","","","","","","","key","j","16.67063716814165","720","446","j","true","img/T_ambi40.png","圆形","image_first",""
"","","","","","html-keyboard-response","382","758382","0.0-13.0-0.0-1.0-0.1-1.110","null","<span style='color:GreenYellow; font-size: 70px;'>正确! </span>","null","","","","","","","","","","","","","","","","","","","","","","","feedback_test"
"","","","","","psychophysics","383","760224","0.0-13.0-0.0-1.0-0.1-0.111","684","","j","","","","","","","","","","","","","key","j","16.666000000000086","720","446","j","true","img/S_ambi40.png","三角","image_first",""
"","","","","","html-keyboard-response","384","760534","0.0-13.0-0.0-1.0-0.1-1.111","null","<span style='color:GreenYellow; font-size: 70px;'>正确! </span>","null","","","","","","","","","","","","","","","","","","","","","","","feedback_test"
"","","","","","psychophysics","385","762238","0.0-13.0-0.0-1.0-0.1-0.112","548","","f","","","","","","","","","","","","","key","f","16.665999999999457","720","446","f","true","img/T_ambi40.png","三角","image_first",""
"","","","","","html-keyboard-response","386","762544","0.0-13.0-0.0-1.0-0.1-1.112","null","<span style='color:GreenYellow; font-size: 70px;'>正确! </span>","null","","","","","","","","","","","","","","","","","","","","","","","feedback_test"
"","","","","","psychophysics","387","764379","0.0-13.0-0.0-1.0-0.1-0.113","678","","f","","","","","","","","","","","","","key","f","16.665999999999308","720","446","f","true","img/C_ambi40.png","圆形","image_first",""
"","","","","","html-keyboard-response","388","764685","0.0-13.0-0.0-1.0-0.1-1.113","null","<span style='color:GreenYellow; font-size: 70px;'>正确! </span>","null","","","","","","","","","","","","","","","","","","","","","","","feedback_test"
"","","","","","psychophysics","389","766438","0.0-13.0-0.0-1.0-0.1-0.114","600","","f","","","","","","","","","","","","","key","f","16.665999999999677","720","446","f","true","img/S_ambi40.png","方形","image_first",""
"","","","","","html-keyboard-response","390","766742","0.0-13.0-0.0-1.0-0.1-1.114","null","<span style='color:GreenYellow; font-size: 70px;'>正确! </span>","null","","","","","","","","","","","","","","","","","","","","","","","feedback_test"
"","","","","","psychophysics","391","768582","0.0-13.0-0.0-1.0-0.1-0.115","689","","j","","","","","","","","","","","","","key","j","16.666000000000377","720","446","f","false","img/C_ambi40.png","圆形","image_first",""
"","","","","","html-keyboard-response","392","768886","0.0-13.0-0.0-1.0-0.1-1.115","null","<span style='color:red; font-size: 70px;'>错误! </span>","null","","","","","","","","","","","","","","","","","","","","","","","feedback_test"
"","","","","","psychophysics","393","771056","0.0-13.0-0.0-1.0-0.1-0.116","1016","","j","","","","","","","","","","","","","key","j","16.665999999999922","720","446","j","true","img/T_ambi40.png","方形","image_first",""
"","","","","","html-keyboard-response","394","771361","0.0-13.0-0.0-1.0-0.1-1.116","null","<span style='color:GreenYellow; font-size: 70px;'>正确! </span>","null","","","","","","","","","","","","","","","","","","","","","","","feedback_test"
"","","","","","psychophysics","395","773183","0.0-13.0-0.0-1.0-0.1-0.117","661","","j","","","","","","","","","","","","","key","j","16.665999999999595","720","446","j","true","img/C_ambi40.png","三角","image_first",""
"","","","","","html-keyboard-response","396","773486","0.0-13.0-0.0-1.0-0.1-1.117","null","<span style='color:GreenYellow; font-size: 70px;'>正确! </span>","null","","","","","","","","","","","","","","","","","","","","","","","feedback_test"
"","","","","","psychophysics","397","775176","0.0-13.0-0.0-1.0-0.1-0.118","537","","f","","","","","","","","","","","","","key","f","16.666000000000608","720","446","f","true","img/S_ambi40.png","方形","image_first",""
"","","","","","html-keyboard-response","398","775482","0.0-13.0-0.0-1.0-0.1-1.118","null","<span style='color:GreenYellow; font-size: 70px;'>正确! </span>","null","","","","","","","","","","","","","","","","","","","","","","","feedback_test"
"","","","","","psychophysics","399","777560","0.0-13.0-0.0-1.0-0.1-0.119","920","","f","","","","","","","","","","","","","key","f","16.670225806451672","720","446","f","true","img/T_ambi40.png","三角","image_first",""
"","","","","","html-keyboard-response","400","777861","0.0-13.0-0.0-1.0-0.1-1.119","null","<span style='color:GreenYellow; font-size: 70px;'>正确! </span>","null","","","","","","","","","","","","","","","","","","","","","","","feedback_test"
"","","","","","html-keyboard-response","401","785327","0.0-13.0-0.0-1.0-1.1","7465","<style>.context{color:white; font-size: 35px; line-height:40px}</style>                            <div><p class='context'>您正确回答了95% 的试次。</p><p class='context'>您的平均反应时为712毫秒。</p><p class='context'>请按任意键进入休息</p></div>"," ","","","","","","","","","","","","","","","","","","","","","","",""
"","","","","","html-button-response","402","866605","0.0-13.0-0.0-1.0-2.1","81274","
                    <p>您当前还剩余2组实验</p>
                    <p>现在是休息时间，当您结束休息后，您可以点击 结束休息 按钮 继续</p>
                    <p>建议休息时间还剩余<span id=""iii"">60</span>秒</p>","0","","","","","","","","","","","","","","","","","","","","","","",""
"","","","","","psychophysics","403","869259","0.0-13.0-0.0-1.0-0.2-0.120","null","","null","","","","","","","","","","","","","key","null","16.672006329114083","720","446","f","false","img/T_ambi40.png","三角","image_first",""
"","","","","","html-keyboard-response","404","869569","0.0-13.0-0.0-1.0-0.2-1.120","null","<span class='add_' style='color:yellow; font-size: 70px;'> 太慢! </span>","null","","","","","","","","","","","","","","","","","","","","","","","feedback_test"
"","","","","","psychophysics","405","871333","0.0-13.0-0.0-1.0-0.2-0.121","611","","j","","","","","","","","","","","","","key","j","16.66599999999938","720","446","j","true","img/S_ambi40.png","三角","image_first",""
"","","","","","html-keyboard-response","406","871639","0.0-13.0-0.0-1.0-0.2-1.121","null","<span style='color:GreenYellow; font-size: 70px;'>正确! </span>","null","","","","","","","","","","","","","","","","","","","","","","","feedback_test"
"","","","","","psychophysics","407","873354","0.0-13.0-0.0-1.0-0.2-0.122","552","","j","","","","","","","","","","","","","key","j","16.665999999999457","720","446","j","true","img/C_ambi40.png","三角","image_first",""
"","","","","","html-keyboard-response","408","873662","0.0-13.0-0.0-1.0-0.2-1.122","null","<span style='color:GreenYellow; font-size: 70px;'>正确! </span>","null","","","","","","","","","","","","","","","","","","","","","","","feedback_test"
"","","","","","psychophysics","409","876321","0.0-13.0-0.0-1.0-0.2-0.123","null","","null","","","","","","","","","","","","","key","null","16.666000000000018","720","446","f","false","img/S_ambi40.png","方形","image_first",""
"","","","","","html-keyboard-response","410","876623","0.0-13.0-0.0-1.0-0.2-1.123","null","<span class='add_' style='color:yellow; font-size: 70px;'> 太慢! </span>","null","","","","","","","","","","","","","","","","","","","","","","","feedback_test"
"","","","","","psychophysics","411","878379","0.0-13.0-0.0-1.0-0.2-0.124","598","","j","","","","","","","","","","","","","key","j","16.66851923076991","720","446","j","true","img/T_ambi40.png","圆形","image_first",""
"","","","","","html-keyboard-response","412","878695","0.0-13.0-0.0-1.0-0.2-1.124","null","<span style='color:GreenYellow; font-size: 70px;'>正确! </span>","null","","","","","","","","","","","","","","","","","","","","","","","feedback_test"
"","","","","","psychophysics","413","880572","0.0-13.0-0.0-1.0-0.2-0.125","716","","j","","","","","","","","","","","","","key","j","16.665999999999517","720","446","j","true","img/T_ambi40.png","方形","image_first",""
"","","","","","html-keyboard-response","414","880883","0.0-13.0-0.0-1.0-0.2-1.125","null","<span style='color:GreenYellow; font-size: 70px;'>正确! </span>","null","","","","","","","","","","","","","","","","","","","","","","","feedback_test"
"","","","","","psychophysics","415","883007","0.0-13.0-0.0-1.0-0.2-0.126","967","","j","","","","","","","","","","","","","key","j","16.665999999999503","720","446","j","true","img/C_ambi40.png","方形","image_first",""
"","","","","","html-keyboard-response","416","883313","0.0-13.0-0.0-1.0-0.2-1.126","null","<span style='color:GreenYellow; font-size: 70px;'>正确! </span>","null","","","","","","","","","","","","","","","","","","","","","","","feedback_test"
"","","","","","psychophysics","417","885013","0.0-13.0-0.0-1.0-0.2-0.127","541","","f","","","","","","","","","","","","","key","f","16.666000000000608","720","446","f","true","img/C_ambi40.png","圆形","image_first",""
"","","","","","html-keyboard-response","418","885320","0.0-13.0-0.0-1.0-0.2-1.127","null","<span style='color:GreenYellow; font-size: 70px;'>正确! </span>","null","","","","","","","","","","","","","","","","","","","","","","","feedback_test"
"","","","","","psychophysics","419","887064","0.0-13.0-0.0-1.0-0.2-0.128","591","","j","","","","","","","","","","","","","key","j","16.665999999999677","720","446","j","true","img/S_ambi40.png","圆形","image_first",""
"","","","","","html-keyboard-response","420","887369","0.0-13.0-0.0-1.0-0.2-1.128","null","<span style='color:GreenYellow; font-size: 70px;'>正确! </span>","null","","","","","","","","","","","","","","","","","","","","","","","feedback_test"
"","","","","","psychophysics","421","889411","0.0-13.0-0.0-1.0-0.2-0.129","888","","f","","","","","","","","","","","","","key","f","16.66600000000078","720","446","f","true","img/C_ambi40.png","圆形","image_first",""
"","","","","","html-keyboard-response","422","889719","0.0-13.0-0.0-1.0-0.2-1.129","null","<span style='color:GreenYellow; font-size: 70px;'>正确! </span>","null","","","","","","","","","","","","","","","","","","","","","","","feedback_test"
"","","","","","psychophysics","423","891588","0.0-13.0-0.0-1.0-0.2-0.130","718","","f","","","","","","","","","","","","","key","f","16.665999999999798","720","446","f","true","img/S_ambi40.png","方形","image_first",""
"","","","","","html-keyboard-response","424","891897","0.0-13.0-0.0-1.0-0.2-1.130","null","<span style='color:GreenYellow; font-size: 70px;'>正确! </span>","null","","","","","","","","","","","","","","","","","","","","","","","feedback_test"
"","","","","","psychophysics","425","893610","0.0-13.0-0.0-1.0-0.2-0.131","556","","j","","","","","","","","","","","","","key","j","16.66600000000029","720","446","f","false","img/T_ambi40.png","三角","image_first",""
"","","","","","html-keyboard-response","426","893921","0.0-13.0-0.0-1.0-0.2-1.131","null","<span style='color:red; font-size: 70px;'>错误! </span>","null","","","","","","","","","","","","","","","","","","","","","","","feedback_test"
"","","","","","psychophysics","427","895665","0.0-13.0-0.0-1.0-0.2-0.132","591","","f","","","","","","","","","","","","","key","f","16.665999999999983","720","446","f","true","img/S_ambi40.png","方形","image_first",""
"","","","","","html-keyboard-response","428","895970","0.0-13.0-0.0-1.0-0.2-1.132","null","<span style='color:GreenYellow; font-size: 70px;'>正确! </span>","null","","","","","","","","","","","","","","","","","","","","","","","feedback_test"
"","","","","","psychophysics","429","897620","0.0-13.0-0.0-1.0-0.2-0.133","496","","f","","","","","","","","","","","","","key","f","16.67134693877567","720","446","f","true","img/C_ambi40.png","圆形","image_first",""
"","","","","","html-keyboard-response","430","897927","0.0-13.0-0.0-1.0-0.2-1.133","null","<span style='color:GreenYellow; font-size: 70px;'>正确! </span>","null","","","","","","","","","","","","","","","","","","","","","","","feedback_test"
