"success","timeout","failed_images","failed_audio","failed_video","trial_type","trial_index","time_elapsed","internal_node_id","rt","stimulus","response","value","item_width_mm","item_height_mm","item_width_px","px2mm","view_dist_mm","item_width_deg","px2deg","scale_factor","win_width_deg","win_height_deg","view_history","response_type","key_press","avg_frame_time","center_x","center_y","correct_response","correct","Image","word","condition","screen_id"
"true","false","[]","[]","[]","preload","0","20694","0.0-0.0","","","","","","","","","","","","","","","","","","","","","","","","","",""
"","","","","","html-keyboard-response","1","35916","0.0-1.0","15221","
   <p>您好，欢迎参加本次实验。</p>
   <p>为充分保障您的权利，请确保您已经知晓并同意《参与实验同意书》以及《数据公开知情同意书》。</p>
   <p>如果您未见过上述内容，请咨询实验员。</p>
   <p>如果您选择继续实验，则表示您已经清楚两份知情同意书的内容并同意。</p>
   <p> <div style = ""color: green""><按任意键至下页></div> </p>
   ","arrowdown","","","","","","","","","","","","","","","","","","","","","","",""
"","","","","","html-keyboard-response","2","38458","0.0-2.0","2541","
   <p>本实验首先需要您填写一些基本个人信息。</p>
   <p> <div style = ""color: green""><按任意键至下页></div></p>
   ","arrowdown","","","","","","","","","","","","","","","","","","","","","","",""
"","","","","","call-function","3","38459","0.0-3.0-0.0","","","","","","","","","","","","","","","","","","","","","","","","","",""
"","","","","","survey-html-form","4","44728","0.0-3.0-1.0","6267","","{""Q0"":""16""}","","","","","","","","","","","","","","","","","","","","","","",""
"","","","","","html-button-response","5","46281","0.0-3.0-2.0","1551","<p style = 'color : white'>您的性别</p>","1","","","","","","","","","","","","","","","","","","","","","","",""
"","","","","","survey-html-form","6","50625","0.0-3.0-3.0","4343","","{""Q0"":""2001""}","","","","","","","","","","","","","","","","","","","","","","",""
"","","","","","survey-html-form","7","62232","0.0-3.0-4.0","11606","","{""Q0"":""5""}","","","","","","","","","","","","","","","","","","","","","","",""
"","","","","","virtual-chinrest","8","262989","0.0-4.0","200753","","","","85.6","53.98","486.6055165898933","5.685879677544948","502.74","9.732110331797866","50","0.7562594081935718","28.84","14.44","","","","","","","","","","","",""
"true","","","","","fullscreen","9","271244","0.0-5.0","","","","","","","","","","","","","","","","","","","","","","","","","",""
"","","","","","instructions","10","351473","0.0-6.0","80229","","","","","","","","","","","","","","[{""page_index"":0,""viewing_time"":6606},{""page_index"":1,""viewing_time"":39534},{""page_index"":2,""viewing_time"":29368},{""page_index"":3,""viewing_time"":4721}]","","","","","","","","","","",""
"","","","","","psychophysics","11","354139","0.0-7.0-0.0-0.0","null","","null","","","","","","","","","","","","","key","null","16.650786163521865","768","428","f","false","img/C_ambi40.png","圆形","prac_image_first",""
"","","","","","html-keyboard-response","12","354452","0.0-7.0-0.0-1.0","null","<span class='add_' style='color:yellow; font-size: 70px;'> 太慢! </span>","null","","","","","","","","","","","","","","","","","","","","","","","feedback_test"
"","","","","","psychophysics","13","355817","0.0-7.0-0.0-0.1","205","","f","","","","","","","","","","","","","key","f","16.650222222222286","768","428","j","false","img/T_ambi40.png","方形","prac_image_first",""
"","","","","","html-keyboard-response","14","356134","0.0-7.0-0.0-1.1","null","<span style='color:red; font-size: 70px;'>错误! </span>","null","","","","","","","","","","","","","","","","","","","","","","","feedback_test"
"","","","","","psychophysics","15","358794","0.0-7.0-0.0-0.2","null","","null","","","","","","","","","","","","","key","null","16.650677215189695","768","428","j","false","img/C_ambi40.png","方形","prac_image_first",""
"","","","","","html-keyboard-response","16","359106","0.0-7.0-0.0-1.2","null","<span class='add_' style='color:yellow; font-size: 70px;'> 太慢! </span>","null","","","","","","","","","","","","","","","","","","","","","","","feedback_test"
"","","","","","psychophysics","17","360539","0.0-7.0-0.0-0.3","280","","f","","","","","","","","","","","","","key","f","16.652174418604645","768","428","f","true","img/S_ambi40.png","方形","prac_image_first",""
"","","","","","html-keyboard-response","18","360849","0.0-7.0-0.0-1.3","null","<span style='color:GreenYellow; font-size: 70px;'>正确! </span>","null","","","","","","","","","","","","","","","","","","","","","","","feedback_test"
"","","","","","psychophysics","19","362385","0.0-7.0-0.0-0.4","383","","j","","","","","","","","","","","","","key","j","16.6516043956041","768","428","j","true","img/T_ambi40.png","圆形","prac_image_first",""
"","","","","","html-keyboard-response","20","362706","0.0-7.0-0.0-1.4","null","<span style='color:GreenYellow; font-size: 70px;'>正确! </span>","null","","","","","","","","","","","","","","","","","","","","","","","feedback_test"
"","","","","","psychophysics","21","364229","0.0-7.0-0.0-0.5","372","","f","","","","","","","","","","","","","key","f","16.498833333332893","768","428","j","false","img/C_ambi40.png","三角","prac_image_first",""
"","","","","","html-keyboard-response","22","364537","0.0-7.0-0.0-1.5","null","<span style='color:red; font-size: 70px;'>错误! </span>","null","","","","","","","","","","","","","","","","","","","","","","","feedback_test"
"","","","","","psychophysics","23","367204","0.0-7.0-0.0-0.6","null","","null","","","","","","","","","","","","","key","null","16.652177215189838","768","428","j","false","img/S_ambi40.png","三角","prac_image_first",""
"","","","","","html-keyboard-response","24","367517","0.0-7.0-0.0-1.6","null","<span class='add_' style='color:yellow; font-size: 70px;'> 太慢! </span>","null","","","","","","","","","","","","","","","","","","","","","","","feedback_test"
"","","","","","psychophysics","25","369032","0.0-7.0-0.0-0.7","363","","f","","","","","","","","","","","","","key","f","16.52092134831421","768","428","j","false","img/S_ambi40.png","圆形","prac_image_first",""
"","","","","","html-keyboard-response","26","369343","0.0-7.0-0.0-1.7","null","<span style='color:red; font-size: 70px;'>错误! </span>","null","","","","","","","","","","","","","","","","","","","","","","","feedback_test"
"","","","","","psychophysics","27","371330","0.0-7.0-0.0-0.8","830","","j","","","","","","","","","","","","","key","j","16.651881355932378","768","428","f","false","img/T_ambi40.png","三角","prac_image_first",""
"","","","","","html-keyboard-response","28","371645","0.0-7.0-0.0-1.8","null","<span style='color:red; font-size: 70px;'>错误! </span>","null","","","","","","","","","","","","","","","","","","","","","","","feedback_test"
"","","","","","psychophysics","29","373351","0.0-7.0-0.0-0.9","553","","f","","","","","","","","","","","","","key","f","16.651803921568597","768","428","f","true","img/S_ambi40.png","方形","prac_image_first",""
"","","","","","html-keyboard-response","30","373674","0.0-7.0-0.0-1.9","null","<span style='color:GreenYellow; font-size: 70px;'>正确! </span>","null","","","","","","","","","","","","","","","","","","","","","","","feedback_test"
"","","","","","psychophysics","31","375217","0.0-7.0-0.0-0.10","390","","f","","","","","","","","","","","","","key","f","16.65144565217412","768","428","f","true","img/C_ambi40.png","圆形","prac_image_first",""
"","","","","","html-keyboard-response","32","375525","0.0-7.0-0.0-1.10","null","<span style='color:GreenYellow; font-size: 70px;'>正确! </span>","null","","","","","","","","","","","","","","","","","","","","","","","feedback_test"
"","","","","","psychophysics","33","377140","0.0-7.0-0.0-0.11","462","","j","","","","","","","","","","","","","key","j","16.650302083333372","768","428","f","false","img/T_ambi40.png","三角","prac_image_first",""
"","","","","","html-keyboard-response","34","377447","0.0-7.0-0.0-1.11","null","<span style='color:red; font-size: 70px;'>错误! </span>","null","","","","","","","","","","","","","","","","","","","","","","","feedback_test"
"","","","","","psychophysics","35","379284","0.0-7.0-0.0-0.12","681","","j","","","","","","","","","","","","","key","j","16.651587155963178","768","428","j","true","img/S_ambi40.png","圆形","prac_image_first",""
"","","","","","html-keyboard-response","36","379591","0.0-7.0-0.0-1.12","null","<span style='color:GreenYellow; font-size: 70px;'>正确! </span>","null","","","","","","","","","","","","","","","","","","","","","","","feedback_test"
"","","","","","psychophysics","37","381348","0.0-7.0-0.0-0.13","601","","f","","","","","","","","","","","","","key","f","16.651371428571707","768","428","f","true","img/T_ambi40.png","三角","prac_image_first",""
"","","","","","html-keyboard-response","38","381664","0.0-7.0-0.0-1.13","null","<span style='color:GreenYellow; font-size: 70px;'>正确! </span>","null","","","","","","","","","","","","","","","","","","","","","","","feedback_test"
"","","","","","psychophysics","39","383432","0.0-7.0-0.0-0.14","614","","j","","","","","","","","","","","","","key","j","16.650714285714397","768","428","f","false","img/T_ambi40.png","三角","prac_image_first",""
"","","","","","html-keyboard-response","40","383732","0.0-7.0-0.0-1.14","null","<span style='color:red; font-size: 70px;'>错误! </span>","null","","","","","","","","","","","","","","","","","","","","","","","feedback_test"
"","","","","","psychophysics","41","385427","0.0-7.0-0.0-0.15","541","","f","","","","","","","","","","","","","key","f","16.65056435643559","768","428","f","true","img/C_ambi40.png","圆形","prac_image_first",""
"","","","","","html-keyboard-response","42","385739","0.0-7.0-0.0-1.15","null","<span style='color:GreenYellow; font-size: 70px;'>正确! </span>","null","","","","","","","","","","","","","","","","","","","","","","","feedback_test"
"","","","","","psychophysics","43","387574","0.0-7.0-0.0-0.16","675","","j","","","","","","","","","","","","","key","j","16.651761467890054","768","428","j","true","img/S_ambi40.png","三角","prac_image_first",""
"","","","","","html-keyboard-response","44","387888","0.0-7.0-0.0-1.16","null","<span style='color:GreenYellow; font-size: 70px;'>正确! </span>","null","","","","","","","","","","","","","","","","","","","","","","","feedback_test"
"","","","","","psychophysics","45","389680","0.0-7.0-0.0-0.17","637","","j","","","","","","","","","","","","","key","j","16.651669811320662","768","428","j","true","img/C_ambi40.png","三角","prac_image_first",""
"","","","","","html-keyboard-response","46","390001","0.0-7.0-0.0-1.17","null","<span style='color:GreenYellow; font-size: 70px;'>正确! </span>","null","","","","","","","","","","","","","","","","","","","","","","","feedback_test"
"","","","","","psychophysics","47","392059","0.0-7.0-0.0-0.18","904","","j","","","","","","","","","","","","","key","j","16.649162601626088","768","428","j","true","img/C_ambi40.png","方形","prac_image_first",""
"","","","","","html-keyboard-response","48","392372","0.0-7.0-0.0-1.18","null","<span style='color:GreenYellow; font-size: 70px;'>正确! </span>","null","","","","","","","","","","","","","","","","","","","","","","","feedback_test"
"","","","","","psychophysics","49","394292","0.0-7.0-0.0-0.19","763","","f","","","","","","","","","","","","","key","f","16.651201754385653","768","428","f","true","img/C_ambi40.png","圆形","prac_image_first",""
"","","","","","html-keyboard-response","50","394601","0.0-7.0-0.0-1.19","null","<span style='color:GreenYellow; font-size: 70px;'>正确! </span>","null","","","","","","","","","","","","","","","","","","","","","","","feedback_test"
"","","","","","psychophysics","51","396385","0.0-7.0-0.0-0.20","630","","f","","","","","","","","","","","","","key","f","16.652377358490583","768","428","j","false","img/T_ambi40.png","圆形","prac_image_first",""
"","","","","","html-keyboard-response","52","396687","0.0-7.0-0.0-1.20","null","<span style='color:red; font-size: 70px;'>错误! </span>","null","","","","","","","","","","","","","","","","","","","","","","","feedback_test"
"","","","","","psychophysics","53","398550","0.0-7.0-0.0-0.21","709","","j","","","","","","","","","","","","","key","j","16.652603603603723","768","428","j","true","img/T_ambi40.png","方形","prac_image_first",""
"","","","","","html-keyboard-response","54","398873","0.0-7.0-0.0-1.21","null","<span style='color:GreenYellow; font-size: 70px;'>正确! </span>","null","","","","","","","","","","","","","","","","","","","","","","","feedback_test"
"","","","","","psychophysics","55","400645","0.0-7.0-0.0-0.22","621","","f","","","","","","","","","","","","","key","f","16.65109523809515","768","428","f","true","img/S_ambi40.png","方形","prac_image_first",""
"","","","","","html-keyboard-response","56","400960","0.0-7.0-0.0-1.22","null","<span style='color:GreenYellow; font-size: 70px;'>正确! </span>","null","","","","","","","","","","","","","","","","","","","","","","","feedback_test"
"","","","","","psychophysics","57","402870","0.0-7.0-0.0-0.23","755","","f","","","","","","","","","","","","","key","f","16.64977192982476","768","428","f","true","img/S_ambi40.png","方形","prac_image_first",""
"","","","","","html-keyboard-response","58","403176","0.0-7.0-0.0-1.23","null","<span style='color:GreenYellow; font-size: 70px;'>正确! </span>","null","","","","","","","","","","","","","","","","","","","","","","","feedback_test"
"","","","","","html-keyboard-response","59","415702","0.0-7.0-1.0-0.0","12524","<style>.context{color:white; font-size: 35px; line-height:40px}</style>                            <div><p class='context'>您正确回答了58% 的试次。</p><p class='context'>您的平均反应时为607毫秒。</p>","arrowup","","","","","","","","","","","","","","","","","","","","","","",""
"","","","","","instructions","60","432549","0.0-7.0-1.0-1.0","16844","","","","","","","","","","","","","","[{""page_index"":0,""viewing_time"":11607},{""page_index"":1,""viewing_time"":3600},{""page_index"":2,""viewing_time"":1637}]","","","","","","","","","","",""
"","","","","","psychophysics","61","434519","0.0-7.1-0.1-0.24","812","","j","","","","","","","","","","","","","key","j","16.65131623931647","768","428","j","true","img/T_ambi40.png","圆形","prac_image_first",""
"","","","","","html-keyboard-response","62","434839","0.0-7.1-0.1-1.24","null","<span style='color:GreenYellow; font-size: 70px;'>正确! </span>","null","","","","","","","","","","","","","","","","","","","","","","","feedback_test"
"","","","","","psychophysics","63","436796","0.0-7.1-0.1-0.25","807","","f","","","","","","","","","","","","","key","f","16.65075213675194","768","428","f","true","img/T_ambi40.png","三角","prac_image_first",""
"","","","","","html-keyboard-response","64","437112","0.0-7.1-0.1-1.25","null","<span style='color:GreenYellow; font-size: 70px;'>正确! </span>","null","","","","","","","","","","","","","","","","","","","","","","","feedback_test"
"","","","","","psychophysics","65","438826","0.0-7.1-0.1-0.26","559","","f","","","","","","","","","","","","","key","f","16.651500000000368","768","428","f","true","img/C_ambi40.png","圆形","prac_image_first",""
"","","","","","html-keyboard-response","66","439137","0.0-7.1-0.1-1.26","null","<span style='color:GreenYellow; font-size: 70px;'>正确! </span>","null","","","","","","","","","","","","","","","","","","","","","","","feedback_test"
"","","","","","psychophysics","67","440893","0.0-7.1-0.1-0.27","601","","f","","","","","","","","","","","","","key","f","16.650714285713843","768","428","f","true","img/S_ambi40.png","方形","prac_image_first",""
"","","","","","html-keyboard-response","68","441206","0.0-7.1-0.1-1.27","null","<span style='color:GreenYellow; font-size: 70px;'>正确! </span>","null","","","","","","","","","","","","","","","","","","","","","","","feedback_test"
"","","","","","psychophysics","69","443030","0.0-7.1-0.1-0.28","667","","j","","","","","","","","","","","","","key","j","16.651119266055126","768","428","j","true","img/S_ambi40.png","圆形","prac_image_first",""
"","","","","","html-keyboard-response","70","443347","0.0-7.1-0.1-1.28","null","<span style='color:GreenYellow; font-size: 70px;'>正确! </span>","null","","","","","","","","","","","","","","","","","","","","","","","feedback_test"
"","","","","","psychophysics","71","445153","0.0-7.1-0.1-0.29","654","","f","","","","","","","","","","","","","key","f","16.651037037037355","768","428","j","false","img/C_ambi40.png","方形","prac_image_first",""
"","","","","","html-keyboard-response","72","445463","0.0-7.1-0.1-1.29","null","<span style='color:red; font-size: 70px;'>错误! </span>","null","","","","","","","","","","","","","","","","","","","","","","","feedback_test"
"","","","","","psychophysics","73","447305","0.0-7.1-0.1-0.30","691","","f","","","","","","","","","","","","","key","f","16.650660550458902","768","428","f","true","img/S_ambi40.png","方形","prac_image_first",""
"","","","","","html-keyboard-response","74","447612","0.0-7.1-0.1-1.30","null","<span style='color:GreenYellow; font-size: 70px;'>正确! </span>","null","","","","","","","","","","","","","","","","","","","","","","","feedback_test"
"","","","","","psychophysics","75","449463","0.0-7.1-0.1-0.31","691","","j","","","","","","","","","","","","","key","j","16.651372727272314","768","428","j","true","img/S_ambi40.png","三角","prac_image_first",""
"","","","","","html-keyboard-response","76","449782","0.0-7.1-0.1-1.31","null","<span style='color:GreenYellow; font-size: 70px;'>正确! </span>","null","","","","","","","","","","","","","","","","","","","","","","","feedback_test"
"","","","","","psychophysics","77","451986","0.0-7.1-0.1-0.32","1047","","j","","","","","","","","","","","","","key","j","16.651335877862685","768","428","j","true","img/T_ambi40.png","方形","prac_image_first",""
"","","","","","html-keyboard-response","78","452295","0.0-7.1-0.1-1.32","null","<span style='color:GreenYellow; font-size: 70px;'>正确! </span>","null","","","","","","","","","","","","","","","","","","","","","","","feedback_test"
"","","","","","psychophysics","79","454417","0.0-7.1-0.1-0.33","965","","f","","","","","","","","","","","","","key","f","16.651579365079265","768","428","f","true","img/T_ambi40.png","三角","prac_image_first",""
"","","","","","html-keyboard-response","80","454738","0.0-7.1-0.1-1.33","null","<span style='color:GreenYellow; font-size: 70px;'>正确! </span>","null","","","","","","","","","","","","","","","","","","","","","","","feedback_test"
"","","","","","psychophysics","81","456531","0.0-7.1-0.1-0.34","638","","j","","","","","","","","","","","","","key","j","16.650130841121072","768","428","j","true","img/C_ambi40.png","三角","prac_image_first",""
"","","","","","html-keyboard-response","82","456845","0.0-7.1-0.1-1.34","null","<span style='color:GreenYellow; font-size: 70px;'>正确! </span>","null","","","","","","","","","","","","","","","","","","","","","","","feedback_test"
"","","","","","psychophysics","83","458592","0.0-7.1-0.1-0.35","590","","f","","","","","","","","","","","","","key","f","16.65071153846153","768","428","f","true","img/C_ambi40.png","圆形","prac_image_first",""
"","","","","","html-keyboard-response","84","458910","0.0-7.1-0.1-1.35","null","<span style='color:GreenYellow; font-size: 70px;'>正确! </span>","null","","","","","","","","","","","","","","","","","","","","","","","feedback_test"
"","","","","","psychophysics","85","460911","0.0-7.1-0.1-0.36","844","","f","","","","","","","","","","","","","key","f","16.65127731092419","768","428","f","true","img/T_ambi40.png","三角","prac_image_first",""
"","","","","","html-keyboard-response","86","461233","0.0-7.1-0.1-1.36","null","<span style='color:GreenYellow; font-size: 70px;'>正确! </span>","null","","","","","","","","","","","","","","","","","","","","","","","feedback_test"
"","","","","","psychophysics","87","463005","0.0-7.1-0.1-0.37","617","","j","","","","","","","","","","","","","key","j","16.651113207547","768","428","j","true","img/S_ambi40.png","三角","prac_image_first",""
"","","","","","html-keyboard-response","88","463318","0.0-7.1-0.1-1.37","null","<span style='color:GreenYellow; font-size: 70px;'>正确! </span>","null","","","","","","","","","","","","","","","","","","","","","","","feedback_test"
"","","","","","psychophysics","89","465167","0.0-7.1-0.1-0.38","691","","j","","","","","","","","","","","","","key","j","16.650181818181988","768","428","j","true","img/C_ambi40.png","三角","prac_image_first",""
"","","","","","html-keyboard-response","90","465476","0.0-7.1-0.1-1.38","null","<span style='color:GreenYellow; font-size: 70px;'>正确! </span>","null","","","","","","","","","","","","","","","","","","","","","","","feedback_test"
"","","","","","psychophysics","91","467325","0.0-7.1-0.1-0.39","697","","f","","","","","","","","","","","","","key","f","16.540963302751994","768","428","f","true","img/S_ambi40.png","方形","prac_image_first",""
"","","","","","html-keyboard-response","92","467631","0.0-7.1-0.1-1.39","null","<span style='color:GreenYellow; font-size: 70px;'>正确! </span>","null","","","","","","","","","","","","","","","","","","","","","","","feedback_test"
"","","","","","psychophysics","93","469411","0.0-7.1-0.1-0.40","624","","j","","","","","","","","","","","","","key","j","16.65183018867908","768","428","j","true","img/S_ambi40.png","圆形","prac_image_first",""
"","","","","","html-keyboard-response","94","469718","0.0-7.1-0.1-1.40","null","<span style='color:GreenYellow; font-size: 70px;'>正确! </span>","null","","","","","","","","","","","","","","","","","","","","","","","feedback_test"
"","","","","","psychophysics","95","471436","0.0-7.1-0.1-0.41","563","","f","","","","","","","","","","","","","key","f","16.650582524271936","768","428","f","true","img/C_ambi40.png","圆形","prac_image_first",""
"","","","","","html-keyboard-response","96","471743","0.0-7.1-0.1-1.41","null","<span style='color:GreenYellow; font-size: 70px;'>正确! </span>","null","","","","","","","","","","","","","","","","","","","","","","","feedback_test"
"","","","","","psychophysics","97","473610","0.0-7.1-0.1-0.42","711","","j","","","","","","","","","","","","","key","j","16.651360360360684","768","428","f","false","img/C_ambi40.png","圆形","prac_image_first",""
"","","","","","html-keyboard-response","98","473917","0.0-7.1-0.1-1.42","null","<span style='color:red; font-size: 70px;'>错误! </span>","null","","","","","","","","","","","","","","","","","","","","","","","feedback_test"
"","","","","","psychophysics","99","475791","0.0-7.1-0.1-0.43","706","","j","","","","","","","","","","","","","key","j","16.651758928571194","768","428","j","true","img/C_ambi40.png","方形","prac_image_first",""
"","","","","","html-keyboard-response","100","476106","0.0-7.1-0.1-1.43","null","<span style='color:GreenYellow; font-size: 70px;'>正确! </span>","null","","","","","","","","","","","","","","","","","","","","","","","feedback_test"
"","","","","","psychophysics","101","478105","0.0-7.1-0.1-0.44","845","","j","","","","","","","","","","","","","key","j","16.650546218487218","768","428","j","true","img/T_ambi40.png","圆形","prac_image_first",""
"","","","","","html-keyboard-response","102","478419","0.0-7.1-0.1-1.44","null","<span style='color:GreenYellow; font-size: 70px;'>正确! </span>","null","","","","","","","","","","","","","","","","","","","","","","","feedback_test"
"","","","","","psychophysics","103","480135","0.0-7.1-0.1-0.45","562","","f","","","","","","","","","","","","","key","f","16.650382352941534","768","428","f","true","img/S_ambi40.png","方形","prac_image_first",""
"","","","","","html-keyboard-response","104","480458","0.0-7.1-0.1-1.45","null","<span style='color:GreenYellow; font-size: 70px;'>正确! </span>","null","","","","","","","","","","","","","","","","","","","","","","","feedback_test"
"","","","","","psychophysics","105","482640","0.0-7.1-0.1-0.46","1028","","j","","","","","","","","","","","","","key","j","16.650976923076758","768","428","j","true","img/T_ambi40.png","方形","prac_image_first",""
"","","","","","html-keyboard-response","106","482944","0.0-7.1-0.1-1.46","null","<span style='color:GreenYellow; font-size: 70px;'>正确! </span>","null","","","","","","","","","","","","","","","","","","","","","","","feedback_test"
"","","","","","psychophysics","107","484769","0.0-7.1-0.1-0.47","673","","j","","","","","","","","","","","","","key","j","16.651509259258834","768","428","f","false","img/T_ambi40.png","三角","prac_image_first",""
"","","","","","html-keyboard-response","108","485088","0.0-7.1-0.1-1.47","null","<span style='color:red; font-size: 70px;'>错误! </span>","null","","","","","","","","","","","","","","","","","","","","","","","feedback_test"
"","","","","","html-keyboard-response","109","490001","0.0-8.0","4911","<style>.context{color:white; font-size: 35px; line-height:40px}</style>                            <div><p class='context'>您正确回答了88% 的试次。</p><p class='context'>您的平均反应时为726毫秒。</p><p class='context'>恭喜您完成这一阶段的练习。按任意键进入<span style='color: yellow;'>先文字后图形条件</span>的练习。</p></div>","arrowdown","","","","","","","","","","","","","","","","","","","","","","",""
"","","","","","psychophysics","110","492422","0.0-9.0-0.0-0.0","1254","","f","","","","","","","","","","","","","key","f","16.65127586206895","768","428","f","true","img/S_ambi40.png","方形","prac_word_first",""
"","","","","","html-keyboard-response","111","492725","0.0-9.0-0.0-1.0","null","<span style='color:GreenYellow; font-size: 70px;'>正确! </span>","null","","","","","","","","","","","","","","","","","","","","","","","feedback_test"
"","","","","","psychophysics","112","494888","0.0-9.0-0.0-0.1","1005","","f","","","","","","","","","","","","","key","f","16.651348837209564","768","428","f","true","img/T_ambi40.png","三角","prac_word_first",""
"","","","","","html-keyboard-response","113","495205","0.0-9.0-0.0-1.1","null","<span style='color:GreenYellow; font-size: 70px;'>正确! </span>","null","","","","","","","","","","","","","","","","","","","","","","","feedback_test"
"","","","","","psychophysics","114","497054","0.0-9.0-0.0-0.2","691","","j","","","","","","","","","","","","","key","j","16.652609090908662","768","428","j","true","img/S_ambi40.png","三角","prac_word_first",""
"","","","","","html-keyboard-response","115","497370","0.0-9.0-0.0-1.2","null","<span style='color:GreenYellow; font-size: 70px;'>正确! </span>","null","","","","","","","","","","","","","","","","","","","","","","","feedback_test"
"","","","","","psychophysics","116","499129","0.0-9.0-0.0-0.3","605","","f","","","","","","","","","","","","","key","f","16.65129807692294","768","428","f","true","img/C_ambi40.png","圆形","prac_word_first",""
"","","","","","html-keyboard-response","117","499442","0.0-9.0-0.0-1.3","null","<span style='color:GreenYellow; font-size: 70px;'>正确! </span>","null","","","","","","","","","","","","","","","","","","","","","","","feedback_test"
"","","","","","psychophysics","118","501446","0.0-9.0-0.0-0.4","850","","j","","","","","","","","","","","","","key","j","16.79055833333356","768","428","j","true","img/C_ambi40.png","方形","prac_word_first",""
"","","","","","html-keyboard-response","119","501759","0.0-9.0-0.0-1.4","null","<span style='color:GreenYellow; font-size: 70px;'>正确! </span>","null","","","","","","","","","","","","","","","","","","","","","","","feedback_test"
"","","","","","psychophysics","120","503713","0.0-9.0-0.0-0.5","802","","j","","","","","","","","","","","","","key","j","16.65100862068959","768","428","j","true","img/T_ambi40.png","圆形","prac_word_first",""
"","","","","","html-keyboard-response","121","504033","0.0-9.0-0.0-1.5","null","<span style='color:GreenYellow; font-size: 70px;'>正确! </span>","null","","","","","","","","","","","","","","","","","","","","","","","feedback_test"
"","","","","","psychophysics","122","505931","0.0-9.0-0.0-0.6","745","","j","","","","","","","","","","","","","key","j","16.65164035087729","768","428","j","true","img/C_ambi40.png","三角","prac_word_first",""
"","","","","","html-keyboard-response","123","506236","0.0-9.0-0.0-1.6","null","<span style='color:GreenYellow; font-size: 70px;'>正确! </span>","null","","","","","","","","","","","","","","","","","","","","","","","feedback_test"
"","","","","","psychophysics","124","508137","0.0-9.0-0.0-0.7","746","","f","","","","","","","","","","","","","key","f","16.55770535714276","768","428","f","true","img/S_ambi40.png","方形","prac_word_first",""
"","","","","","html-keyboard-response","125","508459","0.0-9.0-0.0-1.7","null","<span style='color:GreenYellow; font-size: 70px;'>正确! </span>","null","","","","","","","","","","","","","","","","","","","","","","","feedback_test"
"","","","","","psychophysics","126","510316","0.0-9.0-0.0-0.8","705","","f","","","","","","","","","","","","","key","f","16.650872727272905","768","428","f","true","img/C_ambi40.png","圆形","prac_word_first",""
"","","","","","html-keyboard-response","127","510635","0.0-9.0-0.0-1.8","null","<span style='color:GreenYellow; font-size: 70px;'>正确! </span>","null","","","","","","","","","","","","","","","","","","","","","","","feedback_test"
"","","","","","psychophysics","128","512578","0.0-9.0-0.0-0.9","792","","f","","","","","","","","","","","","","key","f","16.650017241379327","768","428","f","true","img/T_ambi40.png","三角","prac_word_first",""
"","","","","","html-keyboard-response","129","512890","0.0-9.0-0.0-1.9","null","<span style='color:GreenYellow; font-size: 70px;'>正确! </span>","null","","","","","","","","","","","","","","","","","","","","","","","feedback_test"
"","","","","","psychophysics","130","515375","0.0-9.0-0.0-0.10","1332","","f","","","","","","","","","","","","","key","f","16.6512364864863","768","428","j","false","img/T_ambi40.png","方形","prac_word_first",""
"","","","","","html-keyboard-response","131","515682","0.0-9.0-0.0-1.10","null","<span style='color:red; font-size: 70px;'>错误! </span>","null","","","","","","","","","","","","","","","","","","","","","","","feedback_test"
"","","","","","psychophysics","132","517540","0.0-9.0-0.0-0.11","704","","j","","","","","","","","","","","","","key","j","16.650954545454375","768","428","j","true","img/S_ambi40.png","圆形","prac_word_first",""
"","","","","","html-keyboard-response","133","517847","0.0-9.0-0.0-1.11","null","<span style='color:GreenYellow; font-size: 70px;'>正确! </span>","null","","","","","","","","","","","","","","","","","","","","","","","feedback_test"
"","","","","","psychophysics","134","519870","0.0-9.0-0.0-0.12","865","","j","","","","","","","","","","","","","key","j","16.651350000000093","768","428","j","true","img/T_ambi40.png","方形","prac_word_first",""
"","","","","","html-keyboard-response","135","520173","0.0-9.0-0.0-1.12","null","<span style='color:GreenYellow; font-size: 70px;'>正确! </span>","null","","","","","","","","","","","","","","","","","","","","","","","feedback_test"
"","","","","","psychophysics","136","522136","0.0-9.0-0.0-0.13","798","","f","","","","","","","","","","","","","key","f","16.651410256410475","768","428","f","true","img/S_ambi40.png","方形","prac_word_first",""
"","","","","","html-keyboard-response","137","522445","0.0-9.0-0.0-1.13","null","<span style='color:GreenYellow; font-size: 70px;'>正确! </span>","null","","","","","","","","","","","","","","","","","","","","","","","feedback_test"
"","","","","","psychophysics","138","524258","0.0-9.0-0.0-0.14","654","","j","","","","","","","","","","","","","key","j","16.652129629629567","768","428","j","true","img/S_ambi40.png","圆形","prac_word_first",""
"","","","","","html-keyboard-response","139","524565","0.0-9.0-0.0-1.14","null","<span style='color:GreenYellow; font-size: 70px;'>正确! </span>","null","","","","","","","","","","","","","","","","","","","","","","","feedback_test"
"","","","","","psychophysics","140","526699","0.0-9.0-0.0-0.15","977","","j","","","","","","","","","","","","","key","j","16.65093700787397","768","428","j","true","img/T_ambi40.png","圆形","prac_word_first",""
"","","","","","html-keyboard-response","141","527011","0.0-9.0-0.0-1.15","null","<span style='color:GreenYellow; font-size: 70px;'>正确! </span>","null","","","","","","","","","","","","","","","","","","","","","","","feedback_test"
"","","","","","psychophysics","142","528734","0.0-9.0-0.0-0.16","571","","f","","","","","","","","","","","","","key","f","16.65262135922303","768","428","f","true","img/C_ambi40.png","圆形","prac_word_first",""
"","","","","","html-keyboard-response","143","529048","0.0-9.0-0.0-1.16","null","<span style='color:GreenYellow; font-size: 70px;'>正确! </span>","null","","","","","","","","","","","","","","","","","","","","","","","feedback_test"
"","","","","","psychophysics","144","530828","0.0-9.0-0.0-0.17","626","","f","","","","","","","","","","","","","key","f","16.650622641509575","768","428","f","true","img/T_ambi40.png","三角","prac_word_first",""
"","","","","","html-keyboard-response","145","531136","0.0-9.0-0.0-1.17","null","<span style='color:GreenYellow; font-size: 70px;'>正确! </span>","null","","","","","","","","","","","","","","","","","","","","","","","feedback_test"
"","","","","","psychophysics","146","532908","0.0-9.0-0.0-0.18","617","","j","","","","","","","","","","","","","key","j","16.651809523808993","768","428","j","true","img/C_ambi40.png","方形","prac_word_first",""
"","","","","","html-keyboard-response","147","533223","0.0-9.0-0.0-1.18","null","<span style='color:GreenYellow; font-size: 70px;'>正确! </span>","null","","","","","","","","","","","","","","","","","","","","","","","feedback_test"
"","","","","","psychophysics","148","534842","0.0-9.0-0.0-0.19","463","","f","","","","","","","","","","","","","key","f","16.65171134020634","768","428","f","true","img/C_ambi40.png","圆形","prac_word_first",""
"","","","","","html-keyboard-response","149","535154","0.0-9.0-0.0-1.19","null","<span style='color:GreenYellow; font-size: 70px;'>正确! </span>","null","","","","","","","","","","","","","","","","","","","","","","","feedback_test"
"","","","","","psychophysics","150","537007","0.0-9.0-0.0-0.20","699","","f","","","","","","","","","","","","","key","f","16.65010909090898","768","428","f","true","img/T_ambi40.png","三角","prac_word_first",""
"","","","","","html-keyboard-response","151","537331","0.0-9.0-0.0-1.20","null","<span style='color:GreenYellow; font-size: 70px;'>正确! </span>","null","","","","","","","","","","","","","","","","","","","","","","","feedback_test"
"","","","","","psychophysics","152","539190","0.0-9.0-0.0-0.21","706","","j","","","","","","","","","","","","","key","j","16.649720720721298","768","428","j","true","img/S_ambi40.png","三角","prac_word_first",""
"","","","","","html-keyboard-response","153","539499","0.0-9.0-0.0-1.21","null","<span style='color:GreenYellow; font-size: 70px;'>正确! </span>","null","","","","","","","","","","","","","","","","","","","","","","","feedback_test"
"","","","","","psychophysics","154","541079","0.0-9.0-0.0-0.22","428","","f","","","","","","","","","","","","","key","f","16.651768421052072","768","428","f","true","img/S_ambi40.png","方形","prac_word_first",""
"","","","","","html-keyboard-response","155","541383","0.0-9.0-0.0-1.22","null","<span style='color:GreenYellow; font-size: 70px;'>正确! </span>","null","","","","","","","","","","","","","","","","","","","","","","","feedback_test"
"","","","","","psychophysics","156","543311","0.0-9.0-0.0-0.23","771","","f","","","","","","","","","","","","","key","f","16.651095652174327","768","428","j","false","img/C_ambi40.png","三角","prac_word_first",""
"","","","","","html-keyboard-response","157","543626","0.0-9.0-0.0-1.23","null","<span style='color:red; font-size: 70px;'>错误! </span>","null","","","","","","","","","","","","","","","","","","","","","","","feedback_test"
"","","","","","html-keyboard-response","158","549223","0.0-10.0","5596","<style>.context{color:white; font-size: 35px; line-height:40px}</style>                            <div><p class='context'>您正确回答了92% 的试次。</p><p class='context'>您的平均反应时为741毫秒。</p><p class='context'>恭喜您完成练习。按任意键进入<span style='color: yellow;'>图形和文字同时呈现条件</span>的练习。</p></div>","arrowdown","","","","","","","","","","","","","","","","","","","","","","",""
"","","","","","psychophysics","159","551517","0.0-11.0-0.0-0.0","1284","","f","","","","","","","","","","","","","key","f","16.651167883212256","768","428","f","true","img/T_ambi40.png","三角","prac_simultaneous",""
"","","","","","html-keyboard-response","160","551826","0.0-11.0-0.0-1.0","null","<span style='color:GreenYellow; font-size: 70px;'>正确! </span>","null","","","","","","","","","","","","","","","","","","","","","","","feedback_test"
"","","","","","psychophysics","161","553471","0.0-11.0-0.0-0.1","642","","f","","","","","","","","","","","","","key","f","16.651336734693935","768","428","f","true","img/S_ambi40.png","方形","prac_simultaneous",""
"","","","","","html-keyboard-response","162","553792","0.0-11.0-0.0-1.1","null","<span style='color:GreenYellow; font-size: 70px;'>正确! </span>","null","","","","","","","","","","","","","","","","","","","","","","","feedback_test"
"","","","","","psychophysics","163","555616","0.0-11.0-0.0-0.2","822","","j","","","","","","","","","","","","","key","j","16.804229357797833","768","428","j","true","img/C_ambi40.png","方形","prac_simultaneous",""
"","","","","","html-keyboard-response","164","555931","0.0-11.0-0.0-1.2","null","<span style='color:GreenYellow; font-size: 70px;'>正确! </span>","null","","","","","","","","","","","","","","","","","","","","","","","feedback_test"
"","","","","","psychophysics","165","557661","0.0-11.0-0.0-0.3","722","","f","","","","","","","","","","","","","key","f","16.650310679611263","768","428","f","true","img/T_ambi40.png","三角","prac_simultaneous",""
"","","","","","html-keyboard-response","166","557976","0.0-11.0-0.0-1.3","null","<span style='color:GreenYellow; font-size: 70px;'>正确! </span>","null","","","","","","","","","","","","","","","","","","","","","","","feedback_test"
"","","","","","psychophysics","167","559612","0.0-11.0-0.0-0.4","633","","f","","","","","","","","","","","","","key","f","16.65154081632678","768","428","f","true","img/S_ambi40.png","方形","prac_simultaneous",""
"","","","","","html-keyboard-response","168","559918","0.0-11.0-0.0-1.4","null","<span style='color:GreenYellow; font-size: 70px;'>正确! </span>","null","","","","","","","","","","","","","","","","","","","","","","","feedback_test"
"","","","","","psychophysics","169","561641","0.0-11.0-0.0-0.5","717","","j","","","","","","","","","","","","","key","j","16.652269230769328","768","428","j","true","img/T_ambi40.png","圆形","prac_simultaneous",""
"","","","","","html-keyboard-response","170","561961","0.0-11.0-0.0-1.5","null","<span style='color:GreenYellow; font-size: 70px;'>正确! </span>","null","","","","","","","","","","","","","","","","","","","","","","","feedback_test"
"","","","","","psychophysics","171","563732","0.0-11.0-0.0-0.6","768","","j","","","","","","","","","","","","","key","j","16.651066037736182","768","428","j","true","img/S_ambi40.png","三角","prac_simultaneous",""
"","","","","","html-keyboard-response","172","564044","0.0-11.0-0.0-1.6","null","<span style='color:GreenYellow; font-size: 70px;'>正确! </span>","null","","","","","","","","","","","","","","","","","","","","","","","feedback_test"
"","","","","","psychophysics","173","565647","0.0-11.0-0.0-0.7","595","","f","","","","","","","","","","","","","key","f","16.651114583334373","768","428","f","true","img/C_ambi40.png","圆形","prac_simultaneous",""
"","","","","","html-keyboard-response","174","565955","0.0-11.0-0.0-1.7","null","<span style='color:GreenYellow; font-size: 70px;'>正确! </span>","null","","","","","","","","","","","","","","","","","","","","","","","feedback_test"
"","","","","","psychophysics","175","567681","0.0-11.0-0.0-0.8","718","","j","","","","","","","","","","","","","key","j","16.650833333333424","768","428","j","true","img/S_ambi40.png","圆形","prac_simultaneous",""
"","","","","","html-keyboard-response","176","567997","0.0-11.0-0.0-1.8","null","<span style='color:GreenYellow; font-size: 70px;'>正确! </span>","null","","","","","","","","","","","","","","","","","","","","","","","feedback_test"
"","","","","","psychophysics","177","569708","0.0-11.0-0.0-0.9","708","","j","","","","","","","","","","","","","key","j","16.520930693068745","768","428","j","true","img/C_ambi40.png","三角","prac_simultaneous",""
"","","","","","html-keyboard-response","178","570015","0.0-11.0-0.0-1.9","null","<span style='color:GreenYellow; font-size: 70px;'>正确! </span>","null","","","","","","","","","","","","","","","","","","","","","","","feedback_test"
"","","","","","psychophysics","179","571757","0.0-11.0-0.0-0.10","738","","j","","","","","","","","","","","","","key","j","16.651442307692307","768","428","j","true","img/T_ambi40.png","方形","prac_simultaneous",""
"","","","","","html-keyboard-response","180","572074","0.0-11.0-0.0-1.10","null","<span style='color:GreenYellow; font-size: 70px;'>正确! </span>","null","","","","","","","","","","","","","","","","","","","","","","","feedback_test"
"","","","","","psychophysics","181","573756","0.0-11.0-0.0-0.11","677","","f","","","","","","","","","","","","","key","f","16.655909999998986","768","428","f","true","img/C_ambi40.png","圆形","prac_simultaneous",""
"","","","","","html-keyboard-response","182","574064","0.0-11.0-0.0-1.11","null","<span style='color:GreenYellow; font-size: 70px;'>正确! </span>","null","","","","","","","","","","","","","","","","","","","","","","","feedback_test"
"","","","","","psychophysics","183","575722","0.0-11.0-0.0-0.12","647","","j","","","","","","","","","","","","","key","j","16.650714285714475","768","428","j","true","img/T_ambi40.png","圆形","prac_simultaneous",""
"","","","","","html-keyboard-response","184","576029","0.0-11.0-0.0-1.12","null","<span style='color:GreenYellow; font-size: 70px;'>正确! </span>","null","","","","","","","","","","","","","","","","","","","","","","","feedback_test"
"","","","","","psychophysics","185","577640","0.0-11.0-0.0-0.13","604","","f","","","","","","","","","","","","","key","f","16.65139583333318","768","428","f","true","img/S_ambi40.png","方形","prac_simultaneous",""
"","","","","","html-keyboard-response","186","577953","0.0-11.0-0.0-1.13","null","<span style='color:GreenYellow; font-size: 70px;'>正确! </span>","null","","","","","","","","","","","","","","","","","","","","","","","feedback_test"
"","","","","","psychophysics","187","579626","0.0-11.0-0.0-0.14","671","","j","","","","","","","","","","","","","key","j","16.65039999999921","768","428","j","true","img/S_ambi40.png","圆形","prac_simultaneous",""
"","","","","","html-keyboard-response","188","579944","0.0-11.0-0.0-1.14","null","<span style='color:GreenYellow; font-size: 70px;'>正确! </span>","null","","","","","","","","","","","","","","","","","","","","","","","feedback_test"
"","","","","","psychophysics","189","581685","0.0-11.0-0.0-0.15","738","","j","","","","","","","","","","","","","key","j","16.65125242718473","768","428","j","true","img/C_ambi40.png","三角","prac_simultaneous",""
"","","","","","html-keyboard-response","190","581993","0.0-11.0-0.0-1.15","null","<span style='color:GreenYellow; font-size: 70px;'>正确! </span>","null","","","","","","","","","","","","","","","","","","","","","","","feedback_test"
"","","","","","psychophysics","191","583664","0.0-11.0-0.0-0.16","669","","j","","","","","","","","","","","","","key","j","16.65026262626193","768","428","j","true","img/C_ambi40.png","方形","prac_simultaneous",""
"","","","","","html-keyboard-response","192","583986","0.0-11.0-0.0-1.16","null","<span style='color:GreenYellow; font-size: 70px;'>正确! </span>","null","","","","","","","","","","","","","","","","","","","","","","","feedback_test"
"","","","","","psychophysics","193","585812","0.0-11.0-0.0-0.17","816","","f","","","","","","","","","","","","","key","f","16.650851851852","768","428","j","false","img/T_ambi40.png","方形","prac_simultaneous",""
"","","","","","html-keyboard-response","194","586120","0.0-11.0-0.0-1.17","null","<span style='color:red; font-size: 70px;'>错误! </span>","null","","","","","","","","","","","","","","","","","","","","","","","feedback_test"
"","","","","","psychophysics","195","588012","0.0-11.0-0.0-0.18","889","","f","","","","","","","","","","","","","key","f","16.650539823009353","768","428","f","true","img/T_ambi40.png","三角","prac_simultaneous",""
"","","","","","html-keyboard-response","196","588320","0.0-11.0-0.0-1.18","null","<span style='color:GreenYellow; font-size: 70px;'>正确! </span>","null","","","","","","","","","","","","","","","","","","","","","","","feedback_test"
"","","","","","psychophysics","197","590099","0.0-11.0-0.0-0.19","776","","f","","","","","","","","","","","","","key","f","16.652518867924677","768","428","f","true","img/C_ambi40.png","圆形","prac_simultaneous",""
"","","","","","html-keyboard-response","198","590404","0.0-11.0-0.0-1.19","null","<span style='color:GreenYellow; font-size: 70px;'>正确! </span>","null","","","","","","","","","","","","","","","","","","","","","","","feedback_test"
"","","","","","psychophysics","199","591975","0.0-11.0-0.0-0.20","564","","f","","","","","","","","","","","","","key","f","16.650838709676698","768","428","f","true","img/C_ambi40.png","圆形","prac_simultaneous",""
"","","","","","html-keyboard-response","200","592296","0.0-11.0-0.0-1.20","null","<span style='color:GreenYellow; font-size: 70px;'>正确! </span>","null","","","","","","","","","","","","","","","","","","","","","","","feedback_test"
"","","","","","psychophysics","201","594115","0.0-11.0-0.0-0.21","816","","f","","","","","","","","","","","","","key","f","16.651444444443634","768","428","f","true","img/T_ambi40.png","三角","prac_simultaneous",""
"","","","","","html-keyboard-response","202","594420","0.0-11.0-0.0-1.21","null","<span style='color:GreenYellow; font-size: 70px;'>正确! </span>","null","","","","","","","","","","","","","","","","","","","","","","","feedback_test"
"","","","","","psychophysics","203","596060","0.0-11.0-0.0-0.22","636","","j","","","","","","","","","","","","","key","j","16.65118367347049","768","428","j","true","img/S_ambi40.png","三角","prac_simultaneous",""
"","","","","","html-keyboard-response","204","596373","0.0-11.0-0.0-1.22","null","<span style='color:GreenYellow; font-size: 70px;'>正确! </span>","null","","","","","","","","","","","","","","","","","","","","","","","feedback_test"
"","","","","","psychophysics","205","598008","0.0-11.0-0.0-0.23","634","","f","","","","","","","","","","","","","key","f","16.652030612245838","768","428","f","true","img/S_ambi40.png","方形","prac_simultaneous",""
"","","","","","html-keyboard-response","206","598321","0.0-11.0-0.0-1.23","null","<span style='color:GreenYellow; font-size: 70px;'>正确! </span>","null","","","","","","","","","","","","","","","","","","","","","","","feedback_test"
"","","","","","html-keyboard-response","207","603927","0.0-12.0","5603","<style>.context{color:white; font-size: 35px; line-height:40px}</style>                            <div><p class='context'>您正确回答了96% 的试次。</p><p class='context'>您的平均反应时为725毫秒。</p><p class='context'>恭喜您完成练习。按任意键进入正式实验。</p><p class='footer' style='font-size: 35px; line-height:40px;'>请在进入正式实验实验之前将您的<span style='color: lightgreen;'>食指</span>放在电脑键盘的相应键位上进行按键。</p>","arrowdown","","","","","","","","","","","","","","","","","","","","","","",""
"","","","","","html-keyboard-response","208","607215","0.0-13.0-0.0-0.0","3284","
    <p>请您将手指放在按键上，准备进入呈现顺序为<span style='color: yellow;'>先图形后文字条件</span>的正式匹配任务</p>
    <p> <div style = ""color: green""><按任意键进入下一阶段的匹配任务></div></p>
    ","arrowdown","","","","","","","","","","","","","","","","","","","","","","",""
"","","","","","psychophysics","209","609039","0.0-13.0-0.0-1.0-0.0-0.0","667","","j","","","","","","","","","","","","","key","j","16.651203703703317","768","428","j","true","img/S_ambi40.png","圆形","image_first",""
"","","","","","html-keyboard-response","210","609352","0.0-13.0-0.0-1.0-0.0-1.0","null","<span style='color:GreenYellow; font-size: 70px;'>正确! </span>","null","","","","","","","","","","","","","","","","","","","","","","","feedback_test"
"","","","","","psychophysics","211","611619","0.0-13.0-0.0-1.0-0.0-0.1","1112","","j","","","","","","","","","","","","","key","j","16.651794117646848","768","428","j","true","img/C_ambi40.png","方形","image_first",""
"","","","","","html-keyboard-response","212","611937","0.0-13.0-0.0-1.0-0.0-1.1","null","<span style='color:GreenYellow; font-size: 70px;'>正确! </span>","null","","","","","","","","","","","","","","","","","","","","","","","feedback_test"
"","","","","","psychophysics","213","613843","0.0-13.0-0.0-1.0-0.0-0.2","752","","j","","","","","","","","","","","","","key","j","16.6527192982459","768","428","j","true","img/S_ambi40.png","三角","image_first",""
"","","","","","html-keyboard-response","214","614157","0.0-13.0-0.0-1.0-0.0-1.2","null","<span style='color:GreenYellow; font-size: 70px;'>正确! </span>","null","","","","","","","","","","","","","","","","","","","","","","","feedback_test"
"","","","","","psychophysics","215","615921","0.0-13.0-0.0-1.0-0.0-0.3","606","","f","","","","","","","","","","","","","key","f","16.64985576923041","768","428","f","true","img/S_ambi40.png","方形","image_first",""
"","","","","","html-keyboard-response","216","616228","0.0-13.0-0.0-1.0-0.0-1.3","null","<span style='color:GreenYellow; font-size: 70px;'>正确! </span>","null","","","","","","","","","","","","","","","","","","","","","","","feedback_test"
"","","","","","psychophysics","217","617975","0.0-13.0-0.0-1.0-0.0-0.4","589","","j","","","","","","","","","","","","","key","j","16.651276190475826","768","428","j","true","img/T_ambi40.png","方形","image_first",""
"","","","","","html-keyboard-response","218","618288","0.0-13.0-0.0-1.0-0.0-1.4","null","<span style='color:GreenYellow; font-size: 70px;'>正确! </span>","null","","","","","","","","","","","","","","","","","","","","","","","feedback_test"
"","","","","","psychophysics","219","620001","0.0-13.0-0.0-1.0-0.0-0.5","557","","f","","","","","","","","","","","","","key","f","16.65087254901928","768","428","f","true","img/T_ambi40.png","三角","image_first",""
"","","","","","html-keyboard-response","220","620313","0.0-13.0-0.0-1.0-0.0-1.5","null","<span style='color:GreenYellow; font-size: 70px;'>正确! </span>","null","","","","","","","","","","","","","","","","","","","","","","","feedback_test"
"","","","","","psychophysics","221","622010","0.0-13.0-0.0-1.0-0.0-0.6","542","","j","","","","","","","","","","","","","key","j","16.651009900989887","768","428","j","true","img/T_ambi40.png","圆形","image_first",""
"","","","","","html-keyboard-response","222","622320","0.0-13.0-0.0-1.0-0.0-1.6","null","<span style='color:GreenYellow; font-size: 70px;'>正确! </span>","null","","","","","","","","","","","","","","","","","","","","","","","feedback_test"
"","","","","","psychophysics","223","623995","0.0-13.0-0.0-1.0-0.0-0.7","519","","f","","","","","","","","","","","","","key","f","16.651080000000075","768","428","f","true","img/C_ambi40.png","圆形","image_first",""
"","","","","","html-keyboard-response","224","624311","0.0-13.0-0.0-1.0-0.0-1.7","null","<span style='color:GreenYellow; font-size: 70px;'>正确! </span>","null","","","","","","","","","","","","","","","","","","","","","","","feedback_test"
"","","","","","psychophysics","225","625986","0.0-13.0-0.0-1.0-0.0-0.8","524","","f","","","","","","","","","","","","","key","f","16.65228282828284","768","428","f","true","img/C_ambi40.png","圆形","image_first",""
"","","","","","html-keyboard-response","226","626292","0.0-13.0-0.0-1.0-0.0-1.8","null","<span style='color:GreenYellow; font-size: 70px;'>正确! </span>","null","","","","","","","","","","","","","","","","","","","","","","","feedback_test"
"","","","","","psychophysics","227","627942","0.0-13.0-0.0-1.0-0.0-0.9","498","","f","","","","","","","","","","","","","key","f","16.65086597938105","768","428","f","true","img/T_ambi40.png","三角","image_first",""
"","","","","","html-keyboard-response","228","628259","0.0-13.0-0.0-1.0-0.0-1.9","null","<span style='color:GreenYellow; font-size: 70px;'>正确! </span>","null","","","","","","","","","","","","","","","","","","","","","","","feedback_test"
"","","","","","psychophysics","229","629945","0.0-13.0-0.0-1.0-0.0-0.10","534","","f","","","","","","","","","","","","","key","f","16.651539999999805","768","428","f","true","img/S_ambi40.png","方形","image_first",""
"","","","","","html-keyboard-response","230","630251","0.0-13.0-0.0-1.0-0.0-1.10","null","<span style='color:GreenYellow; font-size: 70px;'>正确! </span>","null","","","","","","","","","","","","","","","","","","","","","","","feedback_test"
"","","","","","psychophysics","231","631949","0.0-13.0-0.0-1.0-0.0-0.11","546","","j","","","","","","","","","","","","","key","j","16.650764705882608","768","428","j","true","img/C_ambi40.png","三角","image_first",""
"","","","","","html-keyboard-response","232","632263","0.0-13.0-0.0-1.0-0.0-1.11","null","<span style='color:GreenYellow; font-size: 70px;'>正确! </span>","null","","","","","","","","","","","","","","","","","","","","","","","feedback_test"
"","","","","","psychophysics","233","633936","0.0-13.0-0.0-1.0-0.0-0.12","518","","j","","","","","","","","","","","","","key","j","16.651030303029618","768","428","j","true","img/T_ambi40.png","圆形","image_first",""
"","","","","","html-keyboard-response","234","634251","0.0-13.0-0.0-1.0-0.0-1.12","null","<span style='color:GreenYellow; font-size: 70px;'>正确! </span>","null","","","","","","","","","","","","","","","","","","","","","","","feedback_test"
"","","","","","psychophysics","235","636117","0.0-13.0-0.0-1.0-0.0-0.13","715","","j","","","","","","","","","","","","","key","j","16.652270270270286","768","428","j","true","img/S_ambi40.png","圆形","image_first",""
"","","","","","html-keyboard-response","236","636424","0.0-13.0-0.0-1.0-0.0-1.13","null","<span style='color:GreenYellow; font-size: 70px;'>正确! </span>","null","","","","","","","","","","","","","","","","","","","","","","","feedback_test"
"","","","","","psychophysics","237","638086","0.0-13.0-0.0-1.0-0.0-0.14","507","","f","","","","","","","","","","","","","key","f","16.652737373737807","768","428","f","true","img/T_ambi40.png","三角","image_first",""
"","","","","","html-keyboard-response","238","638396","0.0-13.0-0.0-1.0-0.0-1.14","null","<span style='color:GreenYellow; font-size: 70px;'>正确! </span>","null","","","","","","","","","","","","","","","","","","","","","","","feedback_test"
"","","","","","psychophysics","239","640106","0.0-13.0-0.0-1.0-0.0-0.15","557","","f","","","","","","","","","","","","","key","f","16.651323529412313","768","428","f","true","img/T_ambi40.png","三角","image_first",""
"","","","","","html-keyboard-response","240","640413","0.0-13.0-0.0-1.0-0.0-1.15","null","<span style='color:GreenYellow; font-size: 70px;'>正确! </span>","null","","","","","","","","","","","","","","","","","","","","","","","feedback_test"
"","","","","","psychophysics","241","642225","0.0-13.0-0.0-1.0-0.0-0.16","660","","f","","","","","","","","","","","","","key","f","16.65199065420594","768","428","f","true","img/S_ambi40.png","方形","image_first",""
"","","","","","html-keyboard-response","242","642544","0.0-13.0-0.0-1.0-0.0-1.16","null","<span style='color:GreenYellow; font-size: 70px;'>正确! </span>","null","","","","","","","","","","","","","","","","","","","","","","","feedback_test"
"","","","","","psychophysics","243","644130","0.0-13.0-0.0-1.0-0.0-0.17","433","","f","","","","","","","","","","","","","key","f","16.651147368420407","768","428","f","true","img/C_ambi40.png","圆形","image_first",""
"","","","","","html-keyboard-response","244","644446","0.0-13.0-0.0-1.0-0.0-1.17","null","<span style='color:GreenYellow; font-size: 70px;'>正确! </span>","null","","","","","","","","","","","","","","","","","","","","","","","feedback_test"
"","","","","","psychophysics","245","646280","0.0-13.0-0.0-1.0-0.0-0.18","677","","j","","","","","","","","","","","","","key","j","16.650449541285248","768","428","j","true","img/T_ambi40.png","方形","image_first",""
"","","","","","html-keyboard-response","246","646596","0.0-13.0-0.0-1.0-0.0-1.18","null","<span style='color:GreenYellow; font-size: 70px;'>正确! </span>","null","","","","","","","","","","","","","","","","","","","","","","","feedback_test"
"","","","","","psychophysics","247","648463","0.0-13.0-0.0-1.0-0.0-0.19","707","","j","","","","","","","","","","","","","key","j","16.651270270269986","768","428","j","true","img/S_ambi40.png","三角","image_first",""
"","","","","","html-keyboard-response","248","648780","0.0-13.0-0.0-1.0-0.0-1.19","null","<span style='color:GreenYellow; font-size: 70px;'>正确! </span>","null","","","","","","","","","","","","","","","","","","","","","","","feedback_test"
"","","","","","psychophysics","249","650650","0.0-13.0-0.0-1.0-0.0-0.20","718","","j","","","","","","","","","","","","","key","j","16.650714285714326","768","428","j","true","img/C_ambi40.png","三角","image_first",""
"","","","","","html-keyboard-response","250","650970","0.0-13.0-0.0-1.0-0.0-1.20","null","<span style='color:GreenYellow; font-size: 70px;'>正确! </span>","null","","","","","","","","","","","","","","","","","","","","","","","feedback_test"
"","","","","","psychophysics","251","652800","0.0-13.0-0.0-1.0-0.0-0.21","679","","j","","","","","","","","","","","","","key","j","16.534462962962508","768","428","j","true","img/C_ambi40.png","方形","image_first",""
"","","","","","html-keyboard-response","252","653108","0.0-13.0-0.0-1.0-0.0-1.21","null","<span style='color:GreenYellow; font-size: 70px;'>正确! </span>","null","","","","","","","","","","","","","","","","","","","","","","","feedback_test"
"","","","","","psychophysics","253","654864","0.0-13.0-0.0-1.0-0.0-0.22","596","","f","","","","","","","","","","","","","key","f","16.6512788461528","768","428","f","true","img/C_ambi40.png","圆形","image_first",""
"","","","","","html-keyboard-response","254","655182","0.0-13.0-0.0-1.0-0.0-1.22","null","<span style='color:GreenYellow; font-size: 70px;'>正确! </span>","null","","","","","","","","","","","","","","","","","","","","","","","feedback_test"
"","","","","","psychophysics","255","656937","0.0-13.0-0.0-1.0-0.0-0.23","602","","f","","","","","","","","","","","","","key","f","16.653326923076886","768","428","f","true","img/S_ambi40.png","方形","image_first",""
"","","","","","html-keyboard-response","256","657244","0.0-13.0-0.0-1.0-0.0-1.23","null","<span style='color:GreenYellow; font-size: 70px;'>正确! </span>","null","","","","","","","","","","","","","","","","","","","","","","","feedback_test"
"","","","","","psychophysics","257","658930","0.0-13.0-0.0-1.0-0.0-0.24","532","","j","","","","","","","","","","","","","key","j","16.651110000000337","768","428","j","true","img/T_ambi40.png","方形","image_first",""
"","","","","","html-keyboard-response","258","659238","0.0-13.0-0.0-1.0-0.0-1.24","null","<span style='color:GreenYellow; font-size: 70px;'>正确! </span>","null","","","","","","","","","","","","","","","","","","","","","","","feedback_test"
"","","","","","psychophysics","259","660853","0.0-13.0-0.0-1.0-0.0-0.25","457","","f","","","","","","","","","","","","","key","f","16.651536082474458","768","428","f","true","img/C_ambi40.png","圆形","image_first",""
"","","","","","html-keyboard-response","260","661158","0.0-13.0-0.0-1.0-0.0-1.25","null","<span style='color:GreenYellow; font-size: 70px;'>正确! </span>","null","","","","","","","","","","","","","","","","","","","","","","","feedback_test"
"","","","","","psychophysics","261","662739","0.0-13.0-0.0-1.0-0.0-0.26","427","","f","","","","","","","","","","","","","key","f","16.653638297872757","768","428","f","true","img/T_ambi40.png","三角","image_first",""
"","","","","","html-keyboard-response","262","663051","0.0-13.0-0.0-1.0-0.0-1.26","null","<span style='color:GreenYellow; font-size: 70px;'>正确! </span>","null","","","","","","","","","","","","","","","","","","","","","","","feedback_test"
"","","","","","psychophysics","263","664751","0.0-13.0-0.0-1.0-0.0-0.27","548","","f","","","","","","","","","","","","","key","f","16.65105882352994","768","428","f","true","img/S_ambi40.png","方形","image_first",""
"","","","","","html-keyboard-response","264","665074","0.0-13.0-0.0-1.0-0.0-1.27","null","<span style='color:GreenYellow; font-size: 70px;'>正确! </span>","null","","","","","","","","","","","","","","","","","","","","","","","feedback_test"
"","","","","","psychophysics","265","666688","0.0-13.0-0.0-1.0-0.0-0.28","463","","f","","","","","","","","","","","","","key","f","16.650687500000156","768","428","f","true","img/C_ambi40.png","圆形","image_first",""
"","","","","","html-keyboard-response","266","666996","0.0-13.0-0.0-1.0-0.0-1.28","null","<span style='color:GreenYellow; font-size: 70px;'>正确! </span>","null","","","","","","","","","","","","","","","","","","","","","","","feedback_test"
"","","","","","psychophysics","267","668661","0.0-13.0-0.0-1.0-0.0-0.29","506","","j","","","","","","","","","","","","","key","j","16.650383838384197","768","428","j","true","img/C_ambi40.png","三角","image_first",""
"","","","","","html-keyboard-response","268","668966","0.0-13.0-0.0-1.0-0.0-1.29","null","<span style='color:GreenYellow; font-size: 70px;'>正确! </span>","null","","","","","","","","","","","","","","","","","","","","","","","feedback_test"
"","","","","","psychophysics","269","670672","0.0-13.0-0.0-1.0-0.0-0.30","552","","j","","","","","","","","","","","","","key","j","16.65095098039213","768","428","j","true","img/S_ambi40.png","三角","image_first",""
"","","","","","html-keyboard-response","270","670992","0.0-13.0-0.0-1.0-0.0-1.30","null","<span style='color:GreenYellow; font-size: 70px;'>正确! </span>","null","","","","","","","","","","","","","","","","","","","","","","","feedback_test"
"","","","","","psychophysics","271","672738","0.0-13.0-0.0-1.0-0.0-0.31","591","","f","","","","","","","","","","","","","key","f","16.651285714284693","768","428","f","true","img/S_ambi40.png","方形","image_first",""
"","","","","","html-keyboard-response","272","673057","0.0-13.0-0.0-1.0-0.0-1.31","null","<span style='color:GreenYellow; font-size: 70px;'>正确! </span>","null","","","","","","","","","","","","","","","","","","","","","","","feedback_test"
"","","","","","psychophysics","273","674869","0.0-13.0-0.0-1.0-0.0-0.32","657","","j","","","","","","","","","","","","","key","j","16.65210091743144","768","428","j","true","img/C_ambi40.png","方形","image_first",""
"","","","","","html-keyboard-response","274","675174","0.0-13.0-0.0-1.0-0.0-1.32","null","<span style='color:GreenYellow; font-size: 70px;'>正确! </span>","null","","","","","","","","","","","","","","","","","","","","","","","feedback_test"
"","","","","","psychophysics","275","676800","0.0-13.0-0.0-1.0-0.0-0.33","469","","f","","","","","","","","","","","","","key","f","16.652206185567866","768","428","f","true","img/T_ambi40.png","三角","image_first",""
"","","","","","html-keyboard-response","276","677109","0.0-13.0-0.0-1.0-0.0-1.33","null","<span style='color:GreenYellow; font-size: 70px;'>正确! </span>","null","","","","","","","","","","","","","","","","","","","","","","","feedback_test"
"","","","","","psychophysics","277","678734","0.0-13.0-0.0-1.0-0.0-0.34","471","","j","","","","","","","","","","","","","key","j","16.652103092783065","768","428","j","true","img/T_ambi40.png","圆形","image_first",""
"","","","","","html-keyboard-response","278","679054","0.0-13.0-0.0-1.0-0.0-1.34","null","<span style='color:GreenYellow; font-size: 70px;'>正确! </span>","null","","","","","","","","","","","","","","","","","","","","","","","feedback_test"
"","","","","","psychophysics","279","680773","0.0-13.0-0.0-1.0-0.0-0.35","561","","j","","","","","","","","","","","","","key","j","16.651495145631557","768","428","j","true","img/S_ambi40.png","圆形","image_first",""
"","","","","","html-keyboard-response","280","681077","0.0-13.0-0.0-1.0-0.0-1.35","null","<span style='color:GreenYellow; font-size: 70px;'>正确! </span>","null","","","","","","","","","","","","","","","","","","","","","","","feedback_test"
"","","","","","psychophysics","281","682856","0.0-13.0-0.0-1.0-0.0-0.36","620","","j","","","","","","","","","","","","","key","j","16.65061320754796","768","428","j","true","img/T_ambi40.png","方形","image_first",""
"","","","","","html-keyboard-response","282","683167","0.0-13.0-0.0-1.0-0.0-1.36","null","<span style='color:GreenYellow; font-size: 70px;'>正确! </span>","null","","","","","","","","","","","","","","","","","","","","","","","feedback_test"
"","","","","","psychophysics","283","684921","0.0-13.0-0.0-1.0-0.0-0.37","597","","f","","","","","","","","","","","","","key","f","16.650807692307772","768","428","f","true","img/S_ambi40.png","方形","image_first",""
"","","","","","html-keyboard-response","284","685229","0.0-13.0-0.0-1.0-0.0-1.37","null","<span style='color:GreenYellow; font-size: 70px;'>正确! </span>","null","","","","","","","","","","","","","","","","","","","","","","","feedback_test"
"","","","","","psychophysics","285","686909","0.0-13.0-0.0-1.0-0.0-0.38","521","","j","","","","","","","","","","","","","key","j","16.651287128711996","768","428","j","true","img/C_ambi40.png","方形","image_first",""
"","","","","","html-keyboard-response","286","687225","0.0-13.0-0.0-1.0-0.0-1.38","null","<span style='color:GreenYellow; font-size: 70px;'>正确! </span>","null","","","","","","","","","","","","","","","","","","","","","","","feedback_test"
"","","","","","psychophysics","287","689031","0.0-13.0-0.0-1.0-0.0-0.39","652","","f","","","","","","","","","","","","","key","f","16.651953703703366","768","428","f","true","img/T_ambi40.png","三角","image_first",""
"","","","","","html-keyboard-response","288","689351","0.0-13.0-0.0-1.0-0.0-1.39","null","<span style='color:GreenYellow; font-size: 70px;'>正确! </span>","null","","","","","","","","","","","","","","","","","","","","","","","feedback_test"
"","","","","","psychophysics","289","691039","0.0-13.0-0.0-1.0-0.0-0.40","537","","j","","","","","","","","","","","","","key","j","16.649440000000176","768","428","j","true","img/C_ambi40.png","三角","image_first",""
"","","","","","html-keyboard-response","290","691351","0.0-13.0-0.0-1.0-0.0-1.40","null","<span style='color:GreenYellow; font-size: 70px;'>正确! </span>","null","","","","","","","","","","","","","","","","","","","","","","","feedback_test"
"","","","","","psychophysics","291","693023","0.0-13.0-0.0-1.0-0.0-0.41","516","","j","","","","","","","","","","","","","key","j","16.65072727272748","768","428","j","true","img/T_ambi40.png","圆形","image_first",""
"","","","","","html-keyboard-response","292","693332","0.0-13.0-0.0-1.0-0.0-1.41","null","<span style='color:GreenYellow; font-size: 70px;'>正确! </span>","null","","","","","","","","","","","","","","","","","","","","","","","feedback_test"
"","","","","","psychophysics","293","694948","0.0-13.0-0.0-1.0-0.0-0.42","457","","f","","","","","","","","","","","","","key","f","16.65213541666647","768","428","f","true","img/S_ambi40.png","方形","image_first",""
"","","","","","html-keyboard-response","294","695258","0.0-13.0-0.0-1.0-0.0-1.42","null","<span style='color:GreenYellow; font-size: 70px;'>正确! </span>","null","","","","","","","","","","","","","","","","","","","","","","","feedback_test"
"","","","","","psychophysics","295","696938","0.0-13.0-0.0-1.0-0.0-0.43","528","","f","","","","","","","","","","","","","key","f","16.651861386138503","768","428","f","true","img/T_ambi40.png","三角","image_first",""
"","","","","","html-keyboard-response","296","697255","0.0-13.0-0.0-1.0-0.0-1.43","null","<span style='color:GreenYellow; font-size: 70px;'>正确! </span>","null","","","","","","","","","","","","","","","","","","","","","","","feedback_test"
"","","","","","psychophysics","297","698977","0.0-13.0-0.0-1.0-0.0-0.44","565","","j","","","","","","","","","","","","","key","j","16.649754901961014","768","428","j","true","img/S_ambi40.png","圆形","image_first",""
"","","","","","html-keyboard-response","298","699297","0.0-13.0-0.0-1.0-0.0-1.44","null","<span style='color:GreenYellow; font-size: 70px;'>正确! </span>","null","","","","","","","","","","","","","","","","","","","","","","","feedback_test"
"","","","","","psychophysics","299","701008","0.0-13.0-0.0-1.0-0.0-0.45","557","","j","","","","","","","","","","","","","key","j","16.65177227722799","768","428","j","true","img/S_ambi40.png","三角","image_first",""
"","","","","","html-keyboard-response","300","701328","0.0-13.0-0.0-1.0-0.0-1.45","null","<span style='color:GreenYellow; font-size: 70px;'>正确! </span>","null","","","","","","","","","","","","","","","","","","","","","","","feedback_test"
"","","","","","psychophysics","301","703040","0.0-13.0-0.0-1.0-0.0-0.46","558","","f","","","","","","","","","","","","","key","f","16.651176470588645","768","428","f","true","img/C_ambi40.png","圆形","image_first",""
"","","","","","html-keyboard-response","302","703361","0.0-13.0-0.0-1.0-0.0-1.46","null","<span style='color:GreenYellow; font-size: 70px;'>正确! </span>","null","","","","","","","","","","","","","","","","","","","","","","","feedback_test"
"","","","","","psychophysics","303","705059","0.0-13.0-0.0-1.0-0.0-0.47","544","","f","","","","","","","","","","","","","key","f","16.651287128713147","768","428","f","true","img/C_ambi40.png","圆形","image_first",""
"","","","","","html-keyboard-response","304","705364","0.0-13.0-0.0-1.0-0.0-1.47","null","<span style='color:GreenYellow; font-size: 70px;'>正确! </span>","null","","","","","","","","","","","","","","","","","","","","","","","feedback_test"
"","","","","","psychophysics","305","706950","0.0-13.0-0.0-1.0-0.0-0.48","431","","f","","","","","","","","","","","","","key","f","16.6510531914896","768","428","f","true","img/C_ambi40.png","圆形","image_first",""
"","","","","","html-keyboard-response","306","707274","0.0-13.0-0.0-1.0-0.0-1.48","null","<span style='color:GreenYellow; font-size: 70px;'>正确! </span>","null","","","","","","","","","","","","","","","","","","","","","","","feedback_test"
"","","","","","psychophysics","307","708920","0.0-13.0-0.0-1.0-0.0-0.49","493","","j","","","","","","","","","","","","","key","j","16.651632653061082","768","428","j","true","img/T_ambi40.png","方形","image_first",""
"","","","","","html-keyboard-response","308","709238","0.0-13.0-0.0-1.0-0.0-1.49","null","<span style='color:GreenYellow; font-size: 70px;'>正确! </span>","null","","","","","","","","","","","","","","","","","","","","","","","feedback_test"
"","","","","","psychophysics","309","710970","0.0-13.0-0.0-1.0-0.0-0.50","575","","f","","","","","","","","","","","","","key","f","16.650796116504917","768","428","f","true","img/T_ambi40.png","三角","image_first",""
"","","","","","html-keyboard-response","310","711284","0.0-13.0-0.0-1.0-0.0-1.50","null","<span style='color:GreenYellow; font-size: 70px;'>正确! </span>","null","","","","","","","","","","","","","","","","","","","","","","","feedback_test"
"","","","","","psychophysics","311","712986","0.0-13.0-0.0-1.0-0.0-0.51","543","","j","","","","","","","","","","","","","key","j","16.650705882352685","768","428","j","true","img/T_ambi40.png","圆形","image_first",""
"","","","","","html-keyboard-response","312","713300","0.0-13.0-0.0-1.0-0.0-1.51","null","<span style='color:GreenYellow; font-size: 70px;'>正确! </span>","null","","","","","","","","","","","","","","","","","","","","","","","feedback_test"
"","","","","","psychophysics","313","714956","0.0-13.0-0.0-1.0-0.0-0.52","498","","j","","","","","","","","","","","","","key","j","16.65124489795963","768","428","j","true","img/C_ambi40.png","方形","image_first",""
"","","","","","html-keyboard-response","314","715260","0.0-13.0-0.0-1.0-0.0-1.52","null","<span style='color:GreenYellow; font-size: 70px;'>正确! </span>","null","","","","","","","","","","","","","","","","","","","","","","","feedback_test"
"","","","","","psychophysics","315","716933","0.0-13.0-0.0-1.0-0.0-0.53","521","","f","","","","","","","","","","","","","key","f","16.651080808080167","768","428","f","true","img/T_ambi40.png","三角","image_first",""
"","","","","","html-keyboard-response","316","717244","0.0-13.0-0.0-1.0-0.0-1.53","null","<span style='color:GreenYellow; font-size: 70px;'>正确! </span>","null","","","","","","","","","","","","","","","","","","","","","","","feedback_test"
"","","","","","psychophysics","317","719031","0.0-13.0-0.0-1.0-0.0-0.54","628","","f","","","","","","","","","","","","","key","f","16.650448598130822","768","428","f","true","img/S_ambi40.png","方形","image_first",""
"","","","","","html-keyboard-response","318","719354","0.0-13.0-0.0-1.0-0.0-1.54","null","<span style='color:GreenYellow; font-size: 70px;'>正确! </span>","null","","","","","","","","","","","","","","","","","","","","","","","feedback_test"
"","","","","","psychophysics","319","720999","0.0-13.0-0.0-1.0-0.0-0.55","493","","f","","","","","","","","","","","","","key","f","16.65092857142825","768","428","f","true","img/C_ambi40.png","圆形","image_first",""
"","","","","","html-keyboard-response","320","721319","0.0-13.0-0.0-1.0-0.0-1.55","null","<span style='color:GreenYellow; font-size: 70px;'>正确! </span>","null","","","","","","","","","","","","","","","","","","","","","","","feedback_test"
"","","","","","psychophysics","321","723016","0.0-13.0-0.0-1.0-0.0-0.56","545","","j","","","","","","","","","","","","","key","j","16.652108910891208","768","428","j","true","img/C_ambi40.png","三角","image_first",""
"","","","","","html-keyboard-response","322","723332","0.0-13.0-0.0-1.0-0.0-1.56","null","<span style='color:GreenYellow; font-size: 70px;'>正确! </span>","null","","","","","","","","","","","","","","","","","","","","","","","feedback_test"
"","","","","","psychophysics","323","725082","0.0-13.0-0.0-1.0-0.0-0.57","595","","j","","","","","","","","","","","","","key","j","16.650971153846164","768","428","j","true","img/S_ambi40.png","圆形","image_first",""
"","","","","","html-keyboard-response","324","725384","0.0-13.0-0.0-1.0-0.0-1.57","null","<span style='color:GreenYellow; font-size: 70px;'>正确! </span>","null","","","","","","","","","","","","","","","","","","","","","","","feedback_test"
"","","","","","psychophysics","325","727074","0.0-13.0-0.0-1.0-0.0-0.58","539","","f","","","","","","","","","","","","","key","f","16.650574257425586","768","428","f","true","img/S_ambi40.png","方形","image_first",""
"","","","","","html-keyboard-response","326","727383","0.0-13.0-0.0-1.0-0.0-1.58","null","<span style='color:GreenYellow; font-size: 70px;'>正确! </span>","null","","","","","","","","","","","","","","","","","","","","","","","feedback_test"
"","","","","","psychophysics","327","729140","0.0-13.0-0.0-1.0-0.0-0.59","602","","j","","","","","","","","","","","","","key","j","16.65104807692338","768","428","j","true","img/S_ambi40.png","三角","image_first",""
"","","","","","html-keyboard-response","328","729450","0.0-13.0-0.0-1.0-0.0-1.59","null","<span style='color:GreenYellow; font-size: 70px;'>正确! </span>","null","","","","","","","","","","","","","","","","","","","","","","","feedback_test"
"","","","","","html-keyboard-response","329","733910","0.0-13.0-0.0-1.0-1.0","4458","<style>.context{color:white; font-size: 35px; line-height:40px}</style>                            <div><p class='context'>您正确回答了100% 的试次。</p><p class='context'>您的平均反应时为569毫秒。</p><p class='context'>请按任意键进入休息</p></div>","arrowdown","","","","","","","","","","","","","","","","","","","","","","",""
"","","","","","html-button-response","330","759137","0.0-13.0-0.0-1.0-2.0","25223","
                    <p>您当前还剩余3组实验</p>
                    <p>现在是休息时间，当您结束休息后，您可以点击 结束休息 按钮 继续</p>
                    <p>建议休息时间还剩余<span id=""iii"">60</span>秒</p>","0","","","","","","","","","","","","","","","","","","","","","","",""
"","","","","","psychophysics","331","760894","0.0-13.0-0.0-1.0-0.1-0.60","593","","j","","","","","","","","","","","","","key","j","16.570038461538317","768","428","j","true","img/T_ambi40.png","圆形","image_first",""
"","","","","","html-keyboard-response","332","761222","0.0-13.0-0.0-1.0-0.1-1.60","null","<span style='color:GreenYellow; font-size: 70px;'>正确! </span>","null","","","","","","","","","","","","","","","","","","","","","","","feedback_test"
"","","","","","psychophysics","333","762910","0.0-13.0-0.0-1.0-0.1-0.61","531","","j","","","","","","","","","","","","","key","j","16.65077227722775","768","428","j","true","img/C_ambi40.png","方形","image_first",""
"","","","","","html-keyboard-response","334","763219","0.0-13.0-0.0-1.0-0.1-1.61","null","<span style='color:GreenYellow; font-size: 70px;'>正确! </span>","null","","","","","","","","","","","","","","","","","","","","","","","feedback_test"
"","","","","","psychophysics","335","764990","0.0-13.0-0.0-1.0-0.1-0.62","620","","j","","","","","","","","","","","","","key","j","16.650528301886844","768","428","j","true","img/S_ambi40.png","三角","image_first",""
"","","","","","html-keyboard-response","336","765299","0.0-13.0-0.0-1.0-0.1-1.62","null","<span style='color:GreenYellow; font-size: 70px;'>正确! </span>","null","","","","","","","","","","","","","","","","","","","","","","","feedback_test"
"","","","","","psychophysics","337","766980","0.0-13.0-0.0-1.0-0.1-0.63","521","","f","","","","","","","","","","","","","key","f","16.651181818182447","768","428","j","false","img/S_ambi40.png","圆形","image_first",""
"","","","","","html-keyboard-response","338","767295","0.0-13.0-0.0-1.0-0.1-1.63","null","<span style='color:red; font-size: 70px;'>错误! </span>","null","","","","","","","","","","","","","","","","","","","","","","","feedback_test"
"","","","","","psychophysics","339","769041","0.0-13.0-0.0-1.0-0.1-0.64","590","","f","","","","","","","","","","","","","key","f","16.650242718446375","768","428","f","true","img/S_ambi40.png","方形","image_first",""
"","","","","","html-keyboard-response","340","769350","0.0-13.0-0.0-1.0-0.1-1.64","null","<span style='color:GreenYellow; font-size: 70px;'>正确! </span>","null","","","","","","","","","","","","","","","","","","","","","","","feedback_test"
"","","","","","psychophysics","341","771198","0.0-13.0-0.0-1.0-0.1-0.65","691","","f","","","","","","","","","","","","","key","f","16.65126363636439","768","428","f","true","img/S_ambi40.png","方形","image_first",""
"","","","","","html-keyboard-response","342","771515","0.0-13.0-0.0-1.0-0.1-1.65","null","<span style='color:GreenYellow; font-size: 70px;'>正确! </span>","null","","","","","","","","","","","","","","","","","","","","","","","feedback_test"
"","","","","","psychophysics","343","773169","0.0-13.0-0.0-1.0-0.1-0.66","502","","f","","","","","","","","","","","","","key","f","16.651939393939553","768","428","f","true","img/C_ambi40.png","圆形","image_first",""
"","","","","","html-keyboard-response","344","773479","0.0-13.0-0.0-1.0-0.1-1.66","null","<span style='color:GreenYellow; font-size: 70px;'>正确! </span>","null","","","","","","","","","","","","","","","","","","","","","","","feedback_test"
"","","","","","psychophysics","345","775183","0.0-13.0-0.0-1.0-0.1-0.67","548","","j","","","","","","","","","","","","","key","j","16.650784313725534","768","428","j","true","img/C_ambi40.png","三角","image_first",""
"","","","","","html-keyboard-response","346","775491","0.0-13.0-0.0-1.0-0.1-1.67","null","<span style='color:GreenYellow; font-size: 70px;'>正确! </span>","null","","","","","","","","","","","","","","","","","","","","","","","feedback_test"
"","","","","","psychophysics","347","777389","0.0-13.0-0.0-1.0-0.1-0.68","738","","j","","","","","","","","","","","","","key","j","16.650859649122587","768","428","j","true","img/T_ambi40.png","方形","image_first",""
"","","","","","html-keyboard-response","348","777694","0.0-13.0-0.0-1.0-0.1-1.68","null","<span style='color:GreenYellow; font-size: 70px;'>正确! </span>","null","","","","","","","","","","","","","","","","","","","","","","","feedback_test"
"","","","","","psychophysics","349","779419","0.0-13.0-0.0-1.0-0.1-0.69","569","","f","","","","","","","","","","","","","key","f","16.651621359224134","768","428","f","true","img/C_ambi40.png","圆形","image_first",""
"","","","","","html-keyboard-response","350","779730","0.0-13.0-0.0-1.0-0.1-1.69","null","<span style='color:GreenYellow; font-size: 70px;'>正确! </span>","null","","","","","","","","","","","","","","","","","","","","","","","feedback_test"
"","","","","","psychophysics","351","781441","0.0-13.0-0.0-1.0-0.1-0.70","558","","f","","","","","","","","","","","","","key","f","16.815499999999826","768","428","f","true","img/T_ambi40.png","三角","image_first",""
"","","","","","html-keyboard-response","352","781761","0.0-13.0-0.0-1.0-0.1-1.70","null","<span style='color:GreenYellow; font-size: 70px;'>正确! </span>","null","","","","","","","","","","","","","","","","","","","","","","","feedback_test"
"","","","","","psychophysics","353","783516","0.0-13.0-0.0-1.0-0.1-0.71","601","","f","","","","","","","","","","","","","key","f","16.651361904761178","768","428","f","true","img/T_ambi40.png","三角","image_first",""
"","","","","","html-keyboard-response","354","783830","0.0-13.0-0.0-1.0-0.1-1.71","null","<span style='color:GreenYellow; font-size: 70px;'>正确! </span>","null","","","","","","","","","","","","","","","","","","","","","","","feedback_test"
"","","","","","psychophysics","355","785550","0.0-13.0-0.0-1.0-0.1-0.72","562","","f","","","","","","","","","","","","","key","f","16.652715686274984","768","428","f","true","img/S_ambi40.png","方形","image_first",""
"","","","","","html-keyboard-response","356","785855","0.0-13.0-0.0-1.0-0.1-1.72","null","<span style='color:GreenYellow; font-size: 70px;'>正确! </span>","null","","","","","","","","","","","","","","","","","","","","","","","feedback_test"
"","","","","","psychophysics","357","787569","0.0-13.0-0.0-1.0-0.1-0.73","558","","j","","","","","","","","","","","","","key","j","16.651274509803283","768","428","j","true","img/C_ambi40.png","方形","image_first",""
"","","","","","html-keyboard-response","358","787875","0.0-13.0-0.0-1.0-0.1-1.73","null","<span style='color:GreenYellow; font-size: 70px;'>正确! </span>","null","","","","","","","","","","","","","","","","","","","","","","","feedback_test"
"","","","","","psychophysics","359","789565","0.0-13.0-0.0-1.0-0.1-0.74","538","","j","","","","","","","","","","","","","key","j","16.651339999999617","768","428","j","true","img/C_ambi40.png","三角","image_first",""
"","","","","","html-keyboard-response","360","789882","0.0-13.0-0.0-1.0-0.1-1.74","null","<span style='color:GreenYellow; font-size: 70px;'>正确! </span>","null","","","","","","","","","","","","","","","","","","","","","","","feedback_test"
"","","","","","psychophysics","361","791527","0.0-13.0-0.0-1.0-0.1-0.75","491","","f","","","","","","","","","","","","","key","f","16.651520408162543","768","428","f","true","img/T_ambi40.png","三角","image_first",""
"","","","","","html-keyboard-response","362","791848","0.0-13.0-0.0-1.0-0.1-1.75","null","<span style='color:GreenYellow; font-size: 70px;'>正确! </span>","null","","","","","","","","","","","","","","","","","","","","","","","feedback_test"
"","","","","","psychophysics","363","793609","0.0-13.0-0.0-1.0-0.1-0.76","606","","j","","","","","","","","","","","","","key","j","16.651216981131892","768","428","j","true","img/T_ambi40.png","圆形","image_first",""
"","","","","","html-keyboard-response","364","793928","0.0-13.0-0.0-1.0-0.1-1.76","null","<span style='color:GreenYellow; font-size: 70px;'>正确! </span>","null","","","","","","","","","","","","","","","","","","","","","","","feedback_test"
"","","","","","psychophysics","365","795602","0.0-13.0-0.0-1.0-0.1-0.77","519","","f","","","","","","","","","","","","","key","f","16.65115151515188","768","428","f","true","img/C_ambi40.png","圆形","image_first",""
"","","","","","html-keyboard-response","366","795917","0.0-13.0-0.0-1.0-0.1-1.77","null","<span style='color:GreenYellow; font-size: 70px;'>正确! </span>","null","","","","","","","","","","","","","","","","","","","","","","","feedback_test"
"","","","","","psychophysics","367","797699","0.0-13.0-0.0-1.0-0.1-0.78","630","","j","","","","","","","","","","","","","key","j","16.534952380951673","768","428","j","true","img/S_ambi40.png","三角","image_first",""
"","","","","","html-keyboard-response","368","798013","0.0-13.0-0.0-1.0-0.1-1.78","null","<span style='color:GreenYellow; font-size: 70px;'>正确! </span>","null","","","","","","","","","","","","","","","","","","","","","","","feedback_test"
"","","","","","psychophysics","369","799622","0.0-13.0-0.0-1.0-0.1-0.79","456","","f","","","","","","","","","","","","","key","f","16.651583333332383","768","428","f","true","img/T_ambi40.png","三角","image_first",""
"","","","","","html-keyboard-response","370","799936","0.0-13.0-0.0-1.0-0.1-1.79","null","<span style='color:GreenYellow; font-size: 70px;'>正确! </span>","null","","","","","","","","","","","","","","","","","","","","","","","feedback_test"
"","","","","","psychophysics","371","801564","0.0-13.0-0.0-1.0-0.1-0.80","472","","j","","","","","","","","","","","","","key","j","16.651312499999523","768","428","j","true","img/T_ambi40.png","方形","image_first",""
"","","","","","html-keyboard-response","372","801882","0.0-13.0-0.0-1.0-0.1-1.80","null","<span style='color:GreenYellow; font-size: 70px;'>正确! </span>","null","","","","","","","","","","","","","","","","","","","","","","","feedback_test"
"","","","","","psychophysics","373","803533","0.0-13.0-0.0-1.0-0.1-0.81","497","","f","","","","","","","","","","","","","key","f","16.652132653061074","768","428","f","true","img/S_ambi40.png","方形","image_first",""
"","","","","","html-keyboard-response","374","803839","0.0-13.0-0.0-1.0-0.1-1.81","null","<span style='color:GreenYellow; font-size: 70px;'>正确! </span>","null","","","","","","","","","","","","","","","","","","","","","","","feedback_test"
"","","","","","psychophysics","375","805488","0.0-13.0-0.0-1.0-0.1-0.82","494","","f","","","","","","","","","","","","","key","f","16.651727272726763","768","428","f","true","img/C_ambi40.png","圆形","image_first",""
"","","","","","html-keyboard-response","376","805801","0.0-13.0-0.0-1.0-0.1-1.82","null","<span style='color:GreenYellow; font-size: 70px;'>正确! </span>","null","","","","","","","","","","","","","","","","","","","","","","","feedback_test"
"","","","","","psychophysics","377","807451","0.0-13.0-0.0-1.0-0.1-0.83","496","","j","","","","","","","","","","","","","key","j","16.648765306122726","768","428","j","true","img/S_ambi40.png","圆形","image_first",""
"","","","","","html-keyboard-response","378","807762","0.0-13.0-0.0-1.0-0.1-1.83","null","<span style='color:GreenYellow; font-size: 70px;'>正确! </span>","null","","","","","","","","","","","","","","","","","","","","","","","feedback_test"
"","","","","","psychophysics","379","809509","0.0-13.0-0.0-1.0-0.1-0.84","594","","j","","","","","","","","","","","","","key","j","16.65111538461553","768","428","f","false","img/S_ambi40.png","方形","image_first",""
"","","","","","html-keyboard-response","380","809824","0.0-13.0-0.0-1.0-0.1-1.84","null","<span style='color:red; font-size: 70px;'>错误! </span>","null","","","","","","","","","","","","","","","","","","","","","","","feedback_test"
"","","","","","psychophysics","381","811550","0.0-13.0-0.0-1.0-0.1-0.85","575","","f","","","","","","","","","","","","","key","f","16.650696078431793","768","428","f","true","img/T_ambi40.png","三角","image_first",""
"","","","","","html-keyboard-response","382","811863","0.0-13.0-0.0-1.0-0.1-1.85","null","<span style='color:GreenYellow; font-size: 70px;'>正确! </span>","null","","","","","","","","","","","","","","","","","","","","","","","feedback_test"
"","","","","","psychophysics","383","813450","0.0-13.0-0.0-1.0-0.1-0.86","431","","f","","","","","","","","","","","","","key","f","16.65375531914872","768","428","f","true","img/C_ambi40.png","圆形","image_first",""
"","","","","","html-keyboard-response","384","813764","0.0-13.0-0.0-1.0-0.1-1.86","null","<span style='color:GreenYellow; font-size: 70px;'>正确! </span>","null","","","","","","","","","","","","","","","","","","","","","","","feedback_test"
"","","","","","psychophysics","385","815253","0.0-13.0-0.0-1.0-0.1-0.87","334","","f","","","","","","","","","","","","","key","f","16.653292134830604","768","428","f","true","img/C_ambi40.png","圆形","image_first",""
"","","","","","html-keyboard-response","386","815569","0.0-13.0-0.0-1.0-0.1-1.87","null","<span style='color:GreenYellow; font-size: 70px;'>正确! </span>","null","","","","","","","","","","","","","","","","","","","","","","","feedback_test"
"","","","","","psychophysics","387","817279","0.0-13.0-0.0-1.0-0.1-0.88","559","","j","","","","","","","","","","","","","key","j","16.651029702971027","768","428","j","true","img/T_ambi40.png","圆形","image_first",""
"","","","","","html-keyboard-response","388","817587","0.0-13.0-0.0-1.0-0.1-1.88","null","<span style='color:GreenYellow; font-size: 70px;'>正确! </span>","null","","","","","","","","","","","","","","","","","","","","","","","feedback_test"
"","","","","","psychophysics","389","819543","0.0-13.0-0.0-1.0-0.1-0.89","802","","f","","","","","","","","","","","","","key","f","16.65103448275878","768","428","j","false","img/T_ambi40.png","方形","image_first",""
"","","","","","html-keyboard-response","390","819858","0.0-13.0-0.0-1.0-0.1-1.89","null","<span style='color:red; font-size: 70px;'>错误! </span>","null","","","","","","","","","","","","","","","","","","","","","","","feedback_test"
"","","","","","psychophysics","391","821634","0.0-13.0-0.0-1.0-0.1-0.90","622","","j","","","","","","","","","","","","","key","j","16.6511509433962","768","428","j","true","img/C_ambi40.png","三角","image_first",""
"","","","","","html-keyboard-response","392","821948","0.0-13.0-0.0-1.0-0.1-1.90","null","<span style='color:GreenYellow; font-size: 70px;'>正确! </span>","null","","","","","","","","","","","","","","","","","","","","","","","feedback_test"
"","","","","","psychophysics","393","823604","0.0-13.0-0.0-1.0-0.1-0.91","497","","f","","","","","","","","","","","","","key","f","16.651724489796575","768","428","f","true","img/T_ambi40.png","三角","image_first",""
"","","","","","html-keyboard-response","394","823913","0.0-13.0-0.0-1.0-0.1-1.91","null","<span style='color:GreenYellow; font-size: 70px;'>正确! </span>","null","","","","","","","","","","","","","","","","","","","","","","","feedback_test"
"","","","","","psychophysics","395","825665","0.0-13.0-0.0-1.0-0.1-0.92","597","","j","","","","","","","","","","","","","key","j","16.651721153847085","768","428","j","true","img/C_ambi40.png","方形","image_first",""
"","","","","","html-keyboard-response","396","825972","0.0-13.0-0.0-1.0-0.1-1.92","null","<span style='color:GreenYellow; font-size: 70px;'>正确! </span>","null","","","","","","","","","","","","","","","","","","","","","","","feedback_test"
"","","","","","psychophysics","397","827809","0.0-13.0-0.0-1.0-0.1-0.93","684","","f","","","","","","","","","","","","","key","f","16.536357798165035","768","428","f","true","img/S_ambi40.png","方形","image_first",""
"","","","","","html-keyboard-response","398","828119","0.0-13.0-0.0-1.0-0.1-1.93","null","<span style='color:GreenYellow; font-size: 70px;'>正确! </span>","null","","","","","","","","","","","","","","","","","","","","","","","feedback_test"
"","","","","","psychophysics","399","829830","0.0-13.0-0.0-1.0-0.1-0.94","558","","j","","","","","","","","","","","","","key","j","16.650411764705353","768","428","j","true","img/S_ambi40.png","圆形","image_first",""
"","","","","","html-keyboard-response","400","830139","0.0-13.0-0.0-1.0-0.1-1.94","null","<span style='color:GreenYellow; font-size: 70px;'>正确! </span>","null","","","","","","","","","","","","","","","","","","","","","","","feedback_test"
"","","","","","psychophysics","401","832089","0.0-13.0-0.0-1.0-0.1-0.95","797","","j","","","","","","","","","","","","","key","j","16.65190598290537","768","428","j","true","img/S_ambi40.png","三角","image_first",""
"","","","","","html-keyboard-response","402","832395","0.0-13.0-0.0-1.0-0.1-1.95","null","<span style='color:GreenYellow; font-size: 70px;'>正确! </span>","null","","","","","","","","","","","","","","","","","","","","","","","feedback_test"
"","","","","","psychophysics","403","834305","0.0-13.0-0.0-1.0-0.1-0.96","754","","j","","","","","","","","","","","","","key","j","16.651438596490934","768","428","j","true","img/C_ambi40.png","方形","image_first",""
"","","","","","html-keyboard-response","404","834624","0.0-13.0-0.0-1.0-0.1-1.96","null","<span style='color:GreenYellow; font-size: 70px;'>正确! </span>","null","","","","","","","","","","","","","","","","","","","","","","","feedback_test"
"","","","","","psychophysics","405","836372","0.0-13.0-0.0-1.0-0.1-0.97","592","","j","","","","","","","","","","","","","key","j","16.651257142856984","768","428","j","true","img/C_ambi40.png","三角","image_first",""
"","","","","","html-keyboard-response","406","836687","0.0-13.0-0.0-1.0-0.1-1.97","null","<span style='color:GreenYellow; font-size: 70px;'>正确! </span>","null","","","","","","","","","","","","","","","","","","","","","","","feedback_test"
"","","","","","psychophysics","407","838525","0.0-13.0-0.0-1.0-0.1-0.98","681","","j","","","","","","","","","","","","","key","j","16.651372727272314","768","428","j","true","img/T_ambi40.png","方形","image_first",""
"","","","","","html-keyboard-response","408","838838","0.0-13.0-0.0-1.0-0.1-1.98","null","<span style='color:GreenYellow; font-size: 70px;'>正确! </span>","null","","","","","","","","","","","","","","","","","","","","","","","feedback_test"
"","","","","","psychophysics","409","840587","0.0-13.0-0.0-1.0-0.1-0.99","593","","j","","","","","","","","","","","","","key","j","16.651742857142484","768","428","j","true","img/S_ambi40.png","圆形","image_first",""
"","","","","","html-keyboard-response","410","840899","0.0-13.0-0.0-1.0-0.1-1.99","null","<span style='color:GreenYellow; font-size: 70px;'>正确! </span>","null","","","","","","","","","","","","","","","","","","","","","","","feedback_test"
"","","","","","psychophysics","411","842708","0.0-13.0-0.0-1.0-0.1-0.100","656","","j","","","","","","","","","","","","","key","j","16.65127102803726","768","428","j","true","img/T_ambi40.png","圆形","image_first",""
"","","","","","html-keyboard-response","412","843026","0.0-13.0-0.0-1.0-0.1-1.100","null","<span style='color:GreenYellow; font-size: 70px;'>正确! </span>","null","","","","","","","","","","","","","","","","","","","","","","","feedback_test"
"","","","","","psychophysics","413","844789","0.0-13.0-0.0-1.0-0.1-0.101","610","","f","","","","","","","","","","","","","key","f","16.649461538461484","768","428","f","true","img/C_ambi40.png","圆形","image_first",""
"","","","","","html-keyboard-response","414","845106","0.0-13.0-0.0-1.0-0.1-1.101","null","<span style='color:GreenYellow; font-size: 70px;'>正确! </span>","null","","","","","","","","","","","","","","","","","","","","","","","feedback_test"
"","","","","","psychophysics","415","846913","0.0-13.0-0.0-1.0-0.1-0.102","656","","f","","","","","","","","","","","","","key","f","16.64954205607412","768","428","f","true","img/S_ambi40.png","方形","image_first",""
"","","","","","html-keyboard-response","416","847223","0.0-13.0-0.0-1.0-0.1-1.102","null","<span style='color:GreenYellow; font-size: 70px;'>正确! </span>","null","","","","","","","","","","","","","","","","","","","","","","","feedback_test"
"","","","","","psychophysics","417","848980","0.0-13.0-0.0-1.0-0.1-0.103","601","","f","","","","","","","","","","","","","key","f","16.651144230768505","768","428","f","true","img/T_ambi40.png","三角","image_first",""
"","","","","","html-keyboard-response","418","849285","0.0-13.0-0.0-1.0-0.1-1.103","null","<span style='color:GreenYellow; font-size: 70px;'>正确! </span>","null","","","","","","","","","","","","","","","","","","","","","","","feedback_test"
"","","","","","psychophysics","419","851148","0.0-13.0-0.0-1.0-0.1-0.104","705","","j","","","","","","","","","","","","","key","j","16.651281818181317","768","428","j","true","img/S_ambi40.png","三角","image_first",""
"","","","","","html-keyboard-response","420","851454","0.0-13.0-0.0-1.0-0.1-1.104","null","<span style='color:GreenYellow; font-size: 70px;'>正确! </span>","null","","","","","","","","","","","","","","","","","","","","","","","feedback_test"
"","","","","","psychophysics","421","853271","0.0-13.0-0.0-1.0-0.1-0.105","659","","f","","","","","","","","","","","","","key","f","16.651259259259355","768","428","f","true","img/S_ambi40.png","方形","image_first",""
"","","","","","html-keyboard-response","422","853580","0.0-13.0-0.0-1.0-0.1-1.105","null","<span style='color:GreenYellow; font-size: 70px;'>正确! </span>","null","","","","","","","","","","","","","","","","","","","","","","","feedback_test"
"","","","","","psychophysics","423","855301","0.0-13.0-0.0-1.0-0.1-0.106","568","","f","","","","","","","","","","","","","key","f","16.65066990291234","768","428","f","true","img/T_ambi40.png","三角","image_first",""
"","","","","","html-keyboard-response","424","855605","0.0-13.0-0.0-1.0-0.1-1.106","null","<span style='color:GreenYellow; font-size: 70px;'>正确! </span>","null","","","","","","","","","","","","","","","","","","","","","","","feedback_test"
"","","","","","psychophysics","425","857403","0.0-13.0-0.0-1.0-0.1-0.107","640","","f","","","","","","","","","","","","","key","f","16.6514392523367","768","428","f","true","img/C_ambi40.png","圆形","image_first",""
"","","","","","html-keyboard-response","426","857706","0.0-13.0-0.0-1.0-0.1-1.107","null","<span style='color:GreenYellow; font-size: 70px;'>正确! </span>","null","","","","","","","","","","","","","","","","","","","","","","","feedback_test"
"","","","","","psychophysics","427","859530","0.0-13.0-0.0-1.0-0.1-0.108","671","","j","","","","","","","","","","","","","key","j","16.65108256880728","768","428","j","true","img/T_ambi40.png","方形","image_first",""
"","","","","","html-keyboard-response","428","859849","0.0-13.0-0.0-1.0-0.1-1.108","null","<span style='color:GreenYellow; font-size: 70px;'>正确! </span>","null","","","","","","","","","","","","","","","","","","","","","","","feedback_test"
"","","","","","psychophysics","429","861565","0.0-13.0-0.0-1.0-0.1-0.109","561","","f","","","","","","","","","","","","","key","f","16.65090196078424","768","428","f","true","img/S_ambi40.png","方形","image_first",""
"","","","","","html-keyboard-response","430","861870","0.0-13.0-0.0-1.0-0.1-1.109","null","<span style='color:GreenYellow; font-size: 70px;'>正确! </span>","null","","","","","","","","","","","","","","","","","","","","","","","feedback_test"
"","","","","","psychophysics","431","863463","0.0-13.0-0.0-1.0-0.1-0.110","439","","f","","","","","","","","","","","","","key","f","16.651531250000215","768","428","f","true","img/C_ambi40.png","圆形","image_first",""
"","","","","","html-keyboard-response","432","863771","0.0-13.0-0.0-1.0-0.1-1.110","null","<span style='color:GreenYellow; font-size: 70px;'>正确! </span>","null","","","","","","","","","","","","","","","","","","","","","","","feedback_test"
"","","","","","psychophysics","433","865459","0.0-13.0-0.0-1.0-0.1-0.111","537","","f","","","","","","","","","","","","","key","f","16.652410000000383","768","428","f","true","img/C_ambi40.png","圆形","image_first",""
