"success","timeout","failed_images","failed_audio","failed_video","trial_type","trial_index","time_elapsed","internal_node_id","rt","stimulus","response","value","item_width_mm","item_height_mm","item_width_px","px2mm","view_dist_mm","item_width_deg","px2deg","scale_factor","win_width_deg","win_height_deg","view_history","response_type","key_press","avg_frame_time","center_x","center_y","correct_response","correct","Image","word","condition","screen_id"
"true","false","[]","[]","[]","preload","0","159","0.0-0.0","","","","","","","","","","","","","","","","","","","","","","","","","",""
"","","","","","html-keyboard-response","1","3858","0.0-1.0","3697","
   <p>您好，欢迎参加本次实验。</p>
   <p>为充分保障您的权利，请确保您已经知晓并同意《参与实验同意书》以及《数据公开知情同意书》。</p>
   <p>如果您未见过上述内容，请咨询实验员。</p>
   <p>如果您选择继续实验，则表示您已经清楚两份知情同意书的内容并同意。</p>
   <p> <div style = ""color: green""><按任意键至下页></div> </p>
   "," ","","","","","","","","","","","","","","","","","","","","","","",""
"","","","","","html-keyboard-response","2","4381","0.0-2.0","522","
   <p>本实验首先需要您填写一些基本个人信息。</p>
   <p> <div style = ""color: green""><按任意键至下页></div></p>
   "," ","","","","","","","","","","","","","","","","","","","","","","",""
"","","","","","call-function","3","4383","0.0-3.0-0.0","","","","","","","","","","","","","","","","","","","","","","","","","",""
"","","","","","survey-html-form","4","85826","0.0-3.0-1.0","81439","","{""Q0"":""14""}","","","","","","","","","","","","","","","","","","","","","","",""
"","","","","","html-button-response","5","86562","0.0-3.0-2.0","731","<p style = 'color : white'>您的性别</p>","1","","","","","","","","","","","","","","","","","","","","","","",""
"","","","","","survey-html-form","6","91169","0.0-3.0-3.0","4602","","{""Q0"":""2003""}","","","","","","","","","","","","","","","","","","","","","","",""
"","","","","","survey-html-form","7","96478","0.0-3.0-4.0","5307","","{""Q0"":""5""}","","","","","","","","","","","","","","","","","","","","","","",""
"","","","","","virtual-chinrest","8","347734","0.0-4.0","251250","","","","85.6","53.98","531.0185050958629","6.202653126749995","460.48","10.62037010191726","50","0.672292955093066","25.6","11.18","","","","","","","","","","","",""
"true","","","","","fullscreen","9","350967","0.0-5.0","","","","","","","","","","","","","","","","","","","","","","","","","",""
"","","","","","instructions","10","477091","0.0-6.0","126122","","","","","","","","","","","","","","[{""page_index"":0,""viewing_time"":5055},{""page_index"":1,""viewing_time"":108158},{""page_index"":2,""viewing_time"":9884},{""page_index"":3,""viewing_time"":3024}]","","","","","","","","","","",""
"","","","","","psychophysics","11","479760","0.0-7.0-0.0-0.0","null","","null","","","","","","","","","","","","","key","null","16.881819354838527","640","356","j","false","img/T_ambi40.png","方形","prac_image_first",""
"","","","","","html-keyboard-response","12","480064","0.0-7.0-0.0-1.0","null","<span class='add_' style='color:yellow; font-size: 70px;'> 太慢! </span>","null","","","","","","","","","","","","","","","","","","","","","","","feedback_test"
"","","","","","psychophysics","13","481609","0.0-7.0-0.0-0.1","391","","j","","","","","","","","","","","","","key","j","16.666791208791366","640","356","f","false","img/C_ambi40.png","圆形","prac_image_first",""
"","","","","","html-keyboard-response","14","481912","0.0-7.0-0.0-1.1","null","<span style='color:red; font-size: 70px;'>错误! </span>","null","","","","","","","","","","","","","","","","","","","","","","","feedback_test"
"","","","","","psychophysics","15","483538","0.0-7.0-0.0-0.2","473","","f","","","","","","","","","","","","","key","f","16.665547368421194","640","356","f","true","img/S_ambi40.png","方形","prac_image_first",""
"","","","","","html-keyboard-response","16","483841","0.0-7.0-0.0-1.2","null","<span style='color:GreenYellow; font-size: 70px;'>正确! </span>","null","","","","","","","","","","","","","","","","","","","","","","","feedback_test"
"","","","","","psychophysics","17","485920","0.0-7.0-0.0-0.3","925","","j","","","","","","","","","","","","","key","j","16.666626016260125","640","356","j","true","img/C_ambi40.png","方形","prac_image_first",""
"","","","","","html-keyboard-response","18","486221","0.0-7.0-0.0-1.3","null","<span style='color:GreenYellow; font-size: 70px;'>正确! </span>","null","","","","","","","","","","","","","","","","","","","","","","","feedback_test"
"","","","","","psychophysics","19","488124","0.0-7.0-0.0-0.4","750","","j","","","","","","","","","","","","","key","j","16.665991150442846","640","356","j","true","img/T_ambi40.png","圆形","prac_image_first",""
"","","","","","html-keyboard-response","20","488427","0.0-7.0-0.0-1.4","null","<span style='color:GreenYellow; font-size: 70px;'>正确! </span>","null","","","","","","","","","","","","","","","","","","","","","","","feedback_test"
"","","","","","psychophysics","21","490327","0.0-7.0-0.0-0.5","747","","j","","","","","","","","","","","","","key","j","16.667035714286094","640","356","j","true","img/S_ambi40.png","圆形","prac_image_first",""
"","","","","","html-keyboard-response","22","490631","0.0-7.0-0.0-1.5","null","<span style='color:GreenYellow; font-size: 70px;'>正确! </span>","null","","","","","","","","","","","","","","","","","","","","","","","feedback_test"
"","","","","","psychophysics","23","492403","0.0-7.0-0.0-0.6","621","","f","","","","","","","","","","","","","key","f","16.66670476190491","640","356","f","true","img/T_ambi40.png","三角","prac_image_first",""
"","","","","","html-keyboard-response","24","492706","0.0-7.0-0.0-1.6","null","<span style='color:GreenYellow; font-size: 70px;'>正确! </span>","null","","","","","","","","","","","","","","","","","","","","","","","feedback_test"
"","","","","","psychophysics","25","494545","0.0-7.0-0.0-0.7","687","","j","","","","","","","","","","","","","key","j","16.821157407407387","640","356","j","true","img/C_ambi40.png","三角","prac_image_first",""
"","","","","","html-keyboard-response","26","494849","0.0-7.0-0.0-1.7","null","<span style='color:GreenYellow; font-size: 70px;'>正确! </span>","null","","","","","","","","","","","","","","","","","","","","","","","feedback_test"
"","","","","","psychophysics","27","496759","0.0-7.0-0.0-0.8","755","","f","","","","","","","","","","","","","key","f","16.667141592920245","640","356","f","true","img/T_ambi40.png","三角","prac_image_first",""
"","","","","","html-keyboard-response","28","497061","0.0-7.0-0.0-1.8","null","<span style='color:GreenYellow; font-size: 70px;'>正确! </span>","null","","","","","","","","","","","","","","","","","","","","","","","feedback_test"
"","","","","","psychophysics","29","498829","0.0-7.0-0.0-0.9","615","","j","","","","","","","","","","","","","key","j","16.666769230769624","640","356","j","true","img/S_ambi40.png","三角","prac_image_first",""
"","","","","","html-keyboard-response","30","499132","0.0-7.0-0.0-1.9","null","<span style='color:GreenYellow; font-size: 70px;'>正确! </span>","null","","","","","","","","","","","","","","","","","","","","","","","feedback_test"
"","","","","","psychophysics","31","500875","0.0-7.0-0.0-0.10","590","","f","","","","","","","","","","","","","key","f","16.666582524271803","640","356","f","true","img/C_ambi40.png","圆形","prac_image_first",""
"","","","","","html-keyboard-response","32","501178","0.0-7.0-0.0-1.10","null","<span style='color:GreenYellow; font-size: 70px;'>正确! </span>","null","","","","","","","","","","","","","","","","","","","","","","","feedback_test"
"","","","","","psychophysics","33","502956","0.0-7.0-0.0-0.11","626","","f","","","","","","","","","","","","","key","f","16.666780952380837","640","356","f","true","img/S_ambi40.png","方形","prac_image_first",""
"","","","","","html-keyboard-response","34","503259","0.0-7.0-0.0-1.11","null","<span style='color:GreenYellow; font-size: 70px;'>正确! </span>","null","","","","","","","","","","","","","","","","","","","","","","","feedback_test"
"","","","","","psychophysics","35","505041","0.0-7.0-0.0-0.12","627","","f","","","","","","","","","","","","","key","f","16.666609523809026","640","356","f","true","img/S_ambi40.png","方形","prac_image_first",""
"","","","","","html-keyboard-response","36","505344","0.0-7.0-0.0-1.12","null","<span style='color:GreenYellow; font-size: 70px;'>正确! </span>","null","","","","","","","","","","","","","","","","","","","","","","","feedback_test"
"","","","","","psychophysics","37","507207","0.0-7.0-0.0-0.13","711","","j","","","","","","","","","","","","","key","j","16.66674545454549","640","356","j","true","img/C_ambi40.png","三角","prac_image_first",""
"","","","","","html-keyboard-response","38","507510","0.0-7.0-0.0-1.13","null","<span style='color:GreenYellow; font-size: 70px;'>正确! </span>","null","","","","","","","","","","","","","","","","","","","","","","","feedback_test"
"","","","","","psychophysics","39","509272","0.0-7.0-0.0-0.14","611","","f","","","","","","","","","","","","","key","f","16.66686538461531","640","356","f","true","img/T_ambi40.png","三角","prac_image_first",""
"","","","","","html-keyboard-response","40","509574","0.0-7.0-0.0-1.14","null","<span style='color:GreenYellow; font-size: 70px;'>正确! </span>","null","","","","","","","","","","","","","","","","","","","","","","","feedback_test"
"","","","","","psychophysics","41","511436","0.0-7.0-0.0-0.15","708","","j","","","","","","","","","","","","","key","j","16.666486486486317","640","356","j","true","img/T_ambi40.png","圆形","prac_image_first",""
"","","","","","html-keyboard-response","42","511740","0.0-7.0-0.0-1.15","null","<span style='color:GreenYellow; font-size: 70px;'>正确! </span>","null","","","","","","","","","","","","","","","","","","","","","","","feedback_test"
"","","","","","psychophysics","43","513457","0.0-7.0-0.0-0.16","566","","f","","","","","","","","","","","","","key","f","16.66686274509765","640","356","f","true","img/C_ambi40.png","圆形","prac_image_first",""
"","","","","","html-keyboard-response","44","513759","0.0-7.0-0.0-1.16","null","<span style='color:GreenYellow; font-size: 70px;'>正确! </span>","null","","","","","","","","","","","","","","","","","","","","","","","feedback_test"
"","","","","","psychophysics","45","515530","0.0-7.0-0.0-0.17","618","","j","","","","","","","","","","","","","key","j","16.666855769230796","640","356","j","true","img/T_ambi40.png","方形","prac_image_first",""
"","","","","","html-keyboard-response","46","515835","0.0-7.0-0.0-1.17","null","<span style='color:GreenYellow; font-size: 70px;'>正确! </span>","null","","","","","","","","","","","","","","","","","","","","","","","feedback_test"
"","","","","","psychophysics","47","517681","0.0-7.0-0.0-0.18","694","","f","","","","","","","","","","","","","key","f","16.665678899082646","640","356","f","true","img/C_ambi40.png","圆形","prac_image_first",""
"","","","","","html-keyboard-response","48","517983","0.0-7.0-0.0-1.18","null","<span style='color:GreenYellow; font-size: 70px;'>正确! </span>","null","","","","","","","","","","","","","","","","","","","","","","","feedback_test"
"","","","","","psychophysics","49","519687","0.0-7.0-0.0-0.19","550","","j","","","","","","","","","","","","","key","j","16.666247524752738","640","356","j","true","img/S_ambi40.png","圆形","prac_image_first",""
"","","","","","html-keyboard-response","50","519990","0.0-7.0-0.0-1.19","null","<span style='color:GreenYellow; font-size: 70px;'>正确! </span>","null","","","","","","","","","","","","","","","","","","","","","","","feedback_test"
"","","","","","psychophysics","51","521721","0.0-7.0-0.0-0.20","578","","j","","","","","","","","","","","","","key","j","16.666592233010128","640","356","j","true","img/C_ambi40.png","方形","prac_image_first",""
"","","","","","html-keyboard-response","52","522023","0.0-7.0-0.0-1.20","null","<span style='color:GreenYellow; font-size: 70px;'>正确! </span>","null","","","","","","","","","","","","","","","","","","","","","","","feedback_test"
"","","","","","psychophysics","53","524040","0.0-7.0-0.0-0.21","866","","f","","","","","","","","","","","","","key","f","16.666708333333858","640","356","f","true","img/S_ambi40.png","方形","prac_image_first",""
"","","","","","html-keyboard-response","54","524341","0.0-7.0-0.0-1.21","null","<span style='color:GreenYellow; font-size: 70px;'>正确! </span>","null","","","","","","","","","","","","","","","","","","","","","","","feedback_test"
"","","","","","psychophysics","55","526172","0.0-7.0-0.0-0.22","678","","f","","","","","","","","","","","","","key","f","16.666722222222706","640","356","f","true","img/T_ambi40.png","三角","prac_image_first",""
"","","","","","html-keyboard-response","56","526476","0.0-7.0-0.0-1.22","null","<span style='color:GreenYellow; font-size: 70px;'>正确! </span>","null","","","","","","","","","","","","","","","","","","","","","","","feedback_test"
"","","","","","psychophysics","57","528208","0.0-7.0-0.0-0.23","580","","f","","","","","","","","","","","","","key","f","16.666764705882443","640","356","j","false","img/S_ambi40.png","三角","prac_image_first",""
"","","","","","html-keyboard-response","58","528510","0.0-7.0-0.0-1.23","null","<span style='color:red; font-size: 70px;'>错误! </span>","null","","","","","","","","","","","","","","","","","","","","","","","feedback_test"
"","","","","","html-keyboard-response","59","533135","0.0-8.0","4619","<style>.context{color:white; font-size: 35px; line-height:40px}</style>                            <div><p class='context'>您正确回答了88% 的试次。</p><p class='context'>您的平均反应时为666毫秒。</p><p class='context'>恭喜您完成这一阶段的练习。按任意键进入<span style='color: yellow;'>先文字后图形条件</span>的练习。</p></div>"," ","","","","","","","","","","","","","","","","","","","","","","",""
"","","","","","psychophysics","60","535800","0.0-9.0-0.0-0.0","null","","null","","","","","","","","","","","","","key","null","16.667335443038056","640","356","j","false","img/S_ambi40.png","圆形","prac_word_first",""
"","","","","","html-keyboard-response","61","536104","0.0-9.0-0.0-1.0","null","<span class='add_' style='color:yellow; font-size: 70px;'> 太慢! </span>","null","","","","","","","","","","","","","","","","","","","","","","","feedback_test"
"","","","","","psychophysics","62","537825","0.0-9.0-0.0-0.1","568","","f","","","","","","","","","","","","","key","f","16.666784313725373","640","356","f","true","img/C_ambi40.png","圆形","prac_word_first",""
"","","","","","html-keyboard-response","63","538128","0.0-9.0-0.0-1.1","null","<span style='color:GreenYellow; font-size: 70px;'>正确! </span>","null","","","","","","","","","","","","","","","","","","","","","","","feedback_test"
"","","","","","psychophysics","64","539940","0.0-9.0-0.0-0.2","656","","j","","","","","","","","","","","","","key","j","16.823716981132197","640","356","j","true","img/S_ambi40.png","三角","prac_word_first",""
"","","","","","html-keyboard-response","65","540243","0.0-9.0-0.0-1.2","null","<span style='color:GreenYellow; font-size: 70px;'>正确! </span>","null","","","","","","","","","","","","","","","","","","","","","","","feedback_test"
"","","","","","psychophysics","66","542071","0.0-9.0-0.0-0.3","676","","j","","","","","","","","","","","","","key","j","16.666740740741027","640","356","j","true","img/T_ambi40.png","方形","prac_word_first",""
"","","","","","html-keyboard-response","67","542373","0.0-9.0-0.0-1.3","null","<span style='color:GreenYellow; font-size: 70px;'>正确! </span>","null","","","","","","","","","","","","","","","","","","","","","","","feedback_test"
"","","","","","psychophysics","68","544101","0.0-9.0-0.0-0.4","575","","f","","","","","","","","","","","","","key","f","16.66671844660214","640","356","j","false","img/C_ambi40.png","三角","prac_word_first",""
"","","","","","html-keyboard-response","69","544403","0.0-9.0-0.0-1.4","null","<span style='color:red; font-size: 70px;'>错误! </span>","null","","","","","","","","","","","","","","","","","","","","","","","feedback_test"
"","","","","","psychophysics","70","546305","0.0-9.0-0.0-0.5","750","","f","","","","","","","","","","","","","key","f","16.666732142857136","640","356","f","true","img/T_ambi40.png","三角","prac_word_first",""
"","","","","","html-keyboard-response","71","546609","0.0-9.0-0.0-1.5","null","<span style='color:GreenYellow; font-size: 70px;'>正确! </span>","null","","","","","","","","","","","","","","","","","","","","","","","feedback_test"
"","","","","","psychophysics","72","548311","0.0-9.0-0.0-0.6","547","","j","","","","","","","","","","","","","key","j","16.66651000000071","640","356","f","false","img/C_ambi40.png","圆形","prac_word_first",""
"","","","","","html-keyboard-response","73","548614","0.0-9.0-0.0-1.6","null","<span style='color:red; font-size: 70px;'>错误! </span>","null","","","","","","","","","","","","","","","","","","","","","","","feedback_test"
"","","","","","psychophysics","74","550420","0.0-9.0-0.0-0.7","655","","f","","","","","","","","","","","","","key","f","16.666514018690865","640","356","f","true","img/S_ambi40.png","方形","prac_word_first",""
"","","","","","html-keyboard-response","75","550722","0.0-9.0-0.0-1.7","null","<span style='color:GreenYellow; font-size: 70px;'>正确! </span>","null","","","","","","","","","","","","","","","","","","","","","","","feedback_test"
"","","","","","psychophysics","76","552379","0.0-9.0-0.0-0.8","504","","f","","","","","","","","","","","","","key","f","16.666659793814105","640","356","f","true","img/S_ambi40.png","方形","prac_word_first",""
"","","","","","html-keyboard-response","77","552682","0.0-9.0-0.0-1.8","null","<span style='color:GreenYellow; font-size: 70px;'>正确! </span>","null","","","","","","","","","","","","","","","","","","","","","","","feedback_test"
"","","","","","psychophysics","78","554425","0.0-9.0-0.0-0.9","590","","j","","","","","","","","","","","","","key","j","16.66654368932133","640","356","j","true","img/C_ambi40.png","方形","prac_word_first",""
"","","","","","html-keyboard-response","79","554727","0.0-9.0-0.0-1.9","null","<span style='color:GreenYellow; font-size: 70px;'>正确! </span>","null","","","","","","","","","","","","","","","","","","","","","","","feedback_test"
"","","","","","psychophysics","80","556408","0.0-9.0-0.0-0.10","529","","f","","","","","","","","","","","","","key","f","16.66690909091002","640","356","f","true","img/T_ambi40.png","三角","prac_word_first",""
"","","","","","html-keyboard-response","81","556710","0.0-9.0-0.0-1.10","null","<span style='color:GreenYellow; font-size: 70px;'>正确! </span>","null","","","","","","","","","","","","","","","","","","","","","","","feedback_test"
"","","","","","psychophysics","82","558388","0.0-9.0-0.0-0.11","521","","j","","","","","","","","","","","","","key","j","16.666888888890036","640","356","j","true","img/T_ambi40.png","圆形","prac_word_first",""
"","","","","","html-keyboard-response","83","558692","0.0-9.0-0.0-1.11","null","<span style='color:GreenYellow; font-size: 70px;'>正确! </span>","null","","","","","","","","","","","","","","","","","","","","","","","feedback_test"
"","","","","","psychophysics","84","560424","0.0-9.0-0.0-0.12","577","","j","","","","","","","","","","","","","key","j","16.831960396040092","640","356","j","true","img/S_ambi40.png","三角","prac_word_first",""
"","","","","","html-keyboard-response","85","560726","0.0-9.0-0.0-1.12","null","<span style='color:GreenYellow; font-size: 70px;'>正确! </span>","null","","","","","","","","","","","","","","","","","","","","","","","feedback_test"
"","","","","","psychophysics","86","562477","0.0-9.0-0.0-0.13","599","","j","","","","","","","","","","","","","key","j","16.666796116504223","640","356","j","true","img/T_ambi40.png","圆形","prac_word_first",""
"","","","","","html-keyboard-response","87","562783","0.0-9.0-0.0-1.13","null","<span style='color:GreenYellow; font-size: 70px;'>正确! </span>","null","","","","","","","","","","","","","","","","","","","","","","","feedback_test"
"","","","","","psychophysics","88","564495","0.0-9.0-0.0-0.14","560","","f","","","","","","","","","","","","","key","f","16.667099009900777","640","356","f","true","img/C_ambi40.png","圆形","prac_word_first",""
"","","","","","html-keyboard-response","89","564799","0.0-9.0-0.0-1.14","null","<span style='color:GreenYellow; font-size: 70px;'>正确! </span>","null","","","","","","","","","","","","","","","","","","","","","","","feedback_test"
"","","","","","psychophysics","90","566439","0.0-9.0-0.0-0.15","486","","j","","","","","","","","","","","","","key","j","16.66686597938131","640","356","f","false","img/T_ambi40.png","三角","prac_word_first",""
"","","","","","html-keyboard-response","91","566741","0.0-9.0-0.0-1.15","null","<span style='color:red; font-size: 70px;'>错误! </span>","null","","","","","","","","","","","","","","","","","","","","","","","feedback_test"
"","","","","","psychophysics","92","568531","0.0-9.0-0.0-0.16","638","","f","","","","","","","","","","","","","key","f","16.667481132075718","640","356","f","true","img/S_ambi40.png","方形","prac_word_first",""
"","","","","","html-keyboard-response","93","568833","0.0-9.0-0.0-1.16","null","<span style='color:GreenYellow; font-size: 70px;'>正确! </span>","null","","","","","","","","","","","","","","","","","","","","","","","feedback_test"
"","","","","","psychophysics","94","570591","0.0-9.0-0.0-0.17","606","","j","","","","","","","","","","","","","key","j","16.66686538461475","640","356","j","true","img/C_ambi40.png","三角","prac_word_first",""
"","","","","","html-keyboard-response","95","570893","0.0-9.0-0.0-1.17","null","<span style='color:GreenYellow; font-size: 70px;'>正确! </span>","null","","","","","","","","","","","","","","","","","","","","","","","feedback_test"
"","","","","","psychophysics","96","572654","0.0-9.0-0.0-0.18","609","","j","","","","","","","","","","","","","key","j","16.66658653846221","640","356","j","true","img/S_ambi40.png","圆形","prac_word_first",""
"","","","","","html-keyboard-response","97","572956","0.0-9.0-0.0-1.18","null","<span style='color:GreenYellow; font-size: 70px;'>正确! </span>","null","","","","","","","","","","","","","","","","","","","","","","","feedback_test"
"","","","","","psychophysics","98","574635","0.0-9.0-0.0-0.19","526","","f","","","","","","","","","","","","","key","f","16.66701000000001","640","356","f","true","img/T_ambi40.png","三角","prac_word_first",""
"","","","","","html-keyboard-response","99","574939","0.0-9.0-0.0-1.19","null","<span style='color:GreenYellow; font-size: 70px;'>正确! </span>","null","","","","","","","","","","","","","","","","","","","","","","","feedback_test"
"","","","","","psychophysics","100","576703","0.0-9.0-0.0-0.20","611","","f","","","","","","","","","","","","","key","f","16.666826923076698","640","356","f","true","img/S_ambi40.png","方形","prac_word_first",""
"","","","","","html-keyboard-response","101","577007","0.0-9.0-0.0-1.20","null","<span style='color:GreenYellow; font-size: 70px;'>正确! </span>","null","","","","","","","","","","","","","","","","","","","","","","","feedback_test"
"","","","","","psychophysics","102","578731","0.0-9.0-0.0-0.21","570","","j","","","","","","","","","","","","","key","j","16.66682178217867","640","356","j","true","img/T_ambi40.png","方形","prac_word_first",""
"","","","","","html-keyboard-response","103","579033","0.0-9.0-0.0-1.21","null","<span style='color:GreenYellow; font-size: 70px;'>正确! </span>","null","","","","","","","","","","","","","","","","","","","","","","","feedback_test"
"","","","","","psychophysics","104","580728","0.0-9.0-0.0-0.22","543","","f","","","","","","","","","","","","","key","f","16.666489999999758","640","356","f","true","img/C_ambi40.png","圆形","prac_word_first",""
"","","","","","html-keyboard-response","105","581032","0.0-9.0-0.0-1.22","null","<span style='color:GreenYellow; font-size: 70px;'>正确! </span>","null","","","","","","","","","","","","","","","","","","","","","","","feedback_test"
"","","","","","psychophysics","106","582744","0.0-9.0-0.0-0.23","559","","j","","","","","","","","","","","","","key","j","16.666900990098615","640","356","j","true","img/C_ambi40.png","方形","prac_word_first",""
"","","","","","html-keyboard-response","107","583046","0.0-9.0-0.0-1.23","null","<span style='color:GreenYellow; font-size: 70px;'>正确! </span>","null","","","","","","","","","","","","","","","","","","","","","","","feedback_test"
"","","","","","html-keyboard-response","108","587318","0.0-10.0","4268","<style>.context{color:white; font-size: 35px; line-height:40px}</style>                            <div><p class='context'>您正确回答了83% 的试次。</p><p class='context'>您的平均反应时为592毫秒。</p><p class='context'>恭喜您完成练习。按任意键进入<span style='color: yellow;'>图形和文字同时呈现条件</span>的练习。</p></div>"," ","","","","","","","","","","","","","","","","","","","","","","",""
"","","","","","psychophysics","109","589093","0.0-11.0-0.0-0.0","768","","f","","","","","","","","","","","","","key","f","16.667548076923524","640","356","f","true","img/S_ambi40.png","方形","prac_simultaneous",""
"","","","","","html-keyboard-response","110","589394","0.0-11.0-0.0-1.0","null","<span style='color:GreenYellow; font-size: 70px;'>正确! </span>","null","","","","","","","","","","","","","","","","","","","","","","","feedback_test"
"","","","","","psychophysics","111","591094","0.0-11.0-0.0-0.1","697","","f","","","","","","","","","","","","","key","f","16.66447000000044","640","356","f","true","img/T_ambi40.png","三角","prac_simultaneous",""
"","","","","","html-keyboard-response","112","591396","0.0-11.0-0.0-1.1","null","<span style='color:GreenYellow; font-size: 70px;'>正确! </span>","null","","","","","","","","","","","","","","","","","","","","","","","feedback_test"
"","","","","","psychophysics","113","593072","0.0-11.0-0.0-0.2","673","","f","","","","","","","","","","","","","key","f","16.666575757576144","640","356","f","true","img/C_ambi40.png","圆形","prac_simultaneous",""
"","","","","","html-keyboard-response","114","593375","0.0-11.0-0.0-1.2","null","<span style='color:GreenYellow; font-size: 70px;'>正确! </span>","null","","","","","","","","","","","","","","","","","","","","","","","feedback_test"
"","","","","","psychophysics","115","595079","0.0-11.0-0.0-0.3","701","","f","","","","","","","","","","","","","key","f","16.666830000000772","640","356","f","true","img/C_ambi40.png","圆形","prac_simultaneous",""
"","","","","","html-keyboard-response","116","595383","0.0-11.0-0.0-1.3","null","<span style='color:GreenYellow; font-size: 70px;'>正确! </span>","null","","","","","","","","","","","","","","","","","","","","","","","feedback_test"
"","","","","","psychophysics","117","597145","0.0-11.0-0.0-0.4","754","","j","","","","","","","","","","","","","key","j","16.66671153846143","640","356","j","true","img/S_ambi40.png","圆形","prac_simultaneous",""
"","","","","","html-keyboard-response","118","597449","0.0-11.0-0.0-1.4","null","<span style='color:GreenYellow; font-size: 70px;'>正确! </span>","null","","","","","","","","","","","","","","","","","","","","","","","feedback_test"
"","","","","","psychophysics","119","599141","0.0-11.0-0.0-0.5","688","","j","","","","","","","","","","","","","key","j","16.666900000000606","640","356","j","true","img/C_ambi40.png","方形","prac_simultaneous",""
"","","","","","html-keyboard-response","120","599453","0.0-11.0-0.0-1.5","null","<span style='color:GreenYellow; font-size: 70px;'>正确! </span>","null","","","","","","","","","","","","","","","","","","","","","","","feedback_test"
"","","","","","psychophysics","121","601036","0.0-11.0-0.0-0.6","580","","f","","","","","","","","","","","","","key","f","16.666892473118992","640","356","f","true","img/T_ambi40.png","三角","prac_simultaneous",""
"","","","","","html-keyboard-response","122","601337","0.0-11.0-0.0-1.6","null","<span style='color:GreenYellow; font-size: 70px;'>正确! </span>","null","","","","","","","","","","","","","","","","","","","","","","","feedback_test"
"","","","","","psychophysics","123","603102","0.0-11.0-0.0-0.7","763","","f","","","","","","","","","","","","","key","f","16.66662857142898","640","356","j","false","img/T_ambi40.png","圆形","prac_simultaneous",""
"","","","","","html-keyboard-response","124","603404","0.0-11.0-0.0-1.7","null","<span style='color:red; font-size: 70px;'>错误! </span>","null","","","","","","","","","","","","","","","","","","","","","","","feedback_test"
"","","","","","psychophysics","125","605178","0.0-11.0-0.0-0.8","770","","j","","","","","","","","","","","","","key","j","16.666533333333653","640","356","j","true","img/C_ambi40.png","三角","prac_simultaneous",""
"","","","","","html-keyboard-response","126","605482","0.0-11.0-0.0-1.8","null","<span style='color:GreenYellow; font-size: 70px;'>正确! </span>","null","","","","","","","","","","","","","","","","","","","","","","","feedback_test"
"","","","","","psychophysics","127","607337","0.0-11.0-0.0-0.9","849","","j","","","","","","","","","","","","","key","j","16.66706363636344","640","356","j","true","img/T_ambi40.png","方形","prac_simultaneous",""
"","","","","","html-keyboard-response","128","607651","0.0-11.0-0.0-1.9","null","<span style='color:GreenYellow; font-size: 70px;'>正确! </span>","null","","","","","","","","","","","","","","","","","","","","","","","feedback_test"
"","","","","","psychophysics","129","609278","0.0-11.0-0.0-0.10","623","","j","","","","","","","","","","","","","key","j","16.666895833333303","640","356","j","true","img/S_ambi40.png","三角","prac_simultaneous",""
"","","","","","html-keyboard-response","130","609580","0.0-11.0-0.0-1.10","null","<span style='color:GreenYellow; font-size: 70px;'>正确! </span>","null","","","","","","","","","","","","","","","","","","","","","","","feedback_test"
"","","","","","psychophysics","131","611306","0.0-11.0-0.0-0.11","721","","f","","","","","","","","","","","","","key","f","16.66661764705878","640","356","f","true","img/S_ambi40.png","方形","prac_simultaneous",""
"","","","","","html-keyboard-response","132","611609","0.0-11.0-0.0-1.11","null","<span style='color:GreenYellow; font-size: 70px;'>正确! </span>","null","","","","","","","","","","","","","","","","","","","","","","","feedback_test"
"","","","","","psychophysics","133","613200","0.0-11.0-0.0-0.12","573","","j","","","","","","","","","","","","","key","j","16.666774193548488","640","356","j","true","img/T_ambi40.png","圆形","prac_simultaneous",""
"","","","","","html-keyboard-response","134","613518","0.0-11.0-0.0-1.12","null","<span style='color:GreenYellow; font-size: 70px;'>正确! </span>","null","","","","","","","","","","","","","","","","","","","","","","","feedback_test"
"","","","","","psychophysics","135","615198","0.0-11.0-0.0-0.13","678","","f","","","","","","","","","","","","","key","f","16.66775757575765","640","356","f","true","img/C_ambi40.png","圆形","prac_simultaneous",""
"","","","","","html-keyboard-response","136","615501","0.0-11.0-0.0-1.13","null","<span style='color:GreenYellow; font-size: 70px;'>正确! </span>","null","","","","","","","","","","","","","","","","","","","","","","","feedback_test"
"","","","","","psychophysics","137","617179","0.0-11.0-0.0-0.14","676","","j","","","","","","","","","","","","","key","j","16.666757575758368","640","356","f","false","img/T_ambi40.png","三角","prac_simultaneous",""
"","","","","","html-keyboard-response","138","617485","0.0-11.0-0.0-1.14","null","<span style='color:red; font-size: 70px;'>错误! </span>","null","","","","","","","","","","","","","","","","","","","","","","","feedback_test"
"","","","","","psychophysics","139","619054","0.0-11.0-0.0-0.15","567","","f","","","","","","","","","","","","","key","f","16.66656989247353","640","356","j","false","img/C_ambi40.png","三角","prac_simultaneous",""
"","","","","","html-keyboard-response","140","619361","0.0-11.0-0.0-1.15","null","<span style='color:red; font-size: 70px;'>错误! </span>","null","","","","","","","","","","","","","","","","","","","","","","","feedback_test"
"","","","","","psychophysics","141","621021","0.0-11.0-0.0-0.16","656","","j","","","","","","","","","","","","","key","j","16.838804123711956","640","356","j","true","img/C_ambi40.png","方形","prac_simultaneous",""
"","","","","","html-keyboard-response","142","621322","0.0-11.0-0.0-1.16","null","<span style='color:GreenYellow; font-size: 70px;'>正确! </span>","null","","","","","","","","","","","","","","","","","","","","","","","feedback_test"
"","","","","","psychophysics","143","623017","0.0-11.0-0.0-0.17","691","","f","","","","","","","","","","","","","key","f","16.834494949494854","640","356","f","true","img/C_ambi40.png","圆形","prac_simultaneous",""
"","","","","","html-keyboard-response","144","623321","0.0-11.0-0.0-1.17","null","<span style='color:GreenYellow; font-size: 70px;'>正确! </span>","null","","","","","","","","","","","","","","","","","","","","","","","feedback_test"
"","","","","","psychophysics","145","625064","0.0-11.0-0.0-0.18","741","","j","","","","","","","","","","","","","key","j","16.666692307692408","640","356","f","false","img/S_ambi40.png","方形","prac_simultaneous",""
"","","","","","html-keyboard-response","146","625365","0.0-11.0-0.0-1.18","null","<span style='color:red; font-size: 70px;'>错误! </span>","null","","","","","","","","","","","","","","","","","","","","","","","feedback_test"
"","","","","","psychophysics","147","627080","0.0-11.0-0.0-0.19","712","","j","","","","","","","","","","","","","key","j","16.66683168316924","640","356","j","true","img/S_ambi40.png","圆形","prac_simultaneous",""
"","","","","","html-keyboard-response","148","627384","0.0-11.0-0.0-1.19","null","<span style='color:GreenYellow; font-size: 70px;'>正确! </span>","null","","","","","","","","","","","","","","","","","","","","","","","feedback_test"
"","","","","","psychophysics","149","628985","0.0-11.0-0.0-0.20","599","","f","","","","","","","","","","","","","key","f","16.666852631579204","640","356","f","true","img/T_ambi40.png","三角","prac_simultaneous",""
"","","","","","html-keyboard-response","150","629289","0.0-11.0-0.0-1.20","null","<span style='color:GreenYellow; font-size: 70px;'>正确! </span>","null","","","","","","","","","","","","","","","","","","","","","","","feedback_test"
"","","","","","psychophysics","151","630957","0.0-11.0-0.0-0.21","665","","j","","","","","","","","","","","","","key","j","16.666642857142914","640","356","j","true","img/S_ambi40.png","三角","prac_simultaneous",""
"","","","","","html-keyboard-response","152","631259","0.0-11.0-0.0-1.21","null","<span style='color:GreenYellow; font-size: 70px;'>正确! </span>","null","","","","","","","","","","","","","","","","","","","","","","","feedback_test"
"","","","","","psychophysics","153","632920","0.0-11.0-0.0-0.22","658","","f","","","","","","","","","","","","","key","f","16.666959183673107","640","356","f","true","img/S_ambi40.png","方形","prac_simultaneous",""
"","","","","","html-keyboard-response","154","633223","0.0-11.0-0.0-1.22","null","<span style='color:GreenYellow; font-size: 70px;'>正确! </span>","null","","","","","","","","","","","","","","","","","","","","","","","feedback_test"
"","","","","","psychophysics","155","634889","0.0-11.0-0.0-0.23","663","","j","","","","","","","","","","","","","key","j","16.666561224489538","640","356","j","true","img/T_ambi40.png","方形","prac_simultaneous",""
"","","","","","html-keyboard-response","156","635192","0.0-11.0-0.0-1.23","null","<span style='color:GreenYellow; font-size: 70px;'>正确! </span>","null","","","","","","","","","","","","","","","","","","","","","","","feedback_test"
"","","","","","html-keyboard-response","157","638287","0.0-12.0","3083","<style>.context{color:white; font-size: 35px; line-height:40px}</style>                            <div><p class='context'>您正确回答了83% 的试次。</p><p class='context'>您的平均反应时为686毫秒。</p><p class='context'>恭喜您完成练习。按任意键进入正式实验。</p><p class='footer' style='font-size: 35px; line-height:40px;'>请在进入正式实验实验之前将您的<span style='color: lightgreen;'>食指</span>放在电脑键盘的相应键位上进行按键。</p>"," ","","","","","","","","","","","","","","","","","","","","","","",""
"","","","","","html-keyboard-response","158","639711","0.0-13.0-1.0-0.0","1414","
    <p>请您将手指放在按键上，准备进入呈现顺序为<span style='color: yellow;'>先文字后图形条件</span>的正式匹配任务</p>
    <p> <div style = ""color: green""><按任意键进入下一阶段的匹配任务></div></p>
    "," ","","","","","","","","","","","","","","","","","","","","","","",""
"","","","","","psychophysics","159","641340","0.0-13.0-1.0-1.0-0.0-0.0","472","","f","","","","","","","","","","","","","key","f","16.666610526315573","640","356","f","true","img/T_ambi40.png","三角","word_first",""
"","","","","","html-keyboard-response","160","641642","0.0-13.0-1.0-1.0-0.0-1.0","null","<span style='color:GreenYellow; font-size: 70px;'>正确! </span>","null","","","","","","","","","","","","","","","","","","","","","","","feedback_test"
"","","","","","psychophysics","161","643198","0.0-13.0-1.0-1.0-0.0-0.1","403","","f","","","","","","","","","","","","","key","f","16.66678260869483","640","356","j","false","img/C_ambi40.png","三角","word_first",""
"","","","","","html-keyboard-response","162","643501","0.0-13.0-1.0-1.0-0.0-1.1","null","<span style='color:red; font-size: 70px;'>错误! </span>","null","","","","","","","","","","","","","","","","","","","","","","","feedback_test"
"","","","","","psychophysics","163","645222","0.0-13.0-1.0-1.0-0.0-0.2","569","","j","","","","","","","","","","","","","key","j","16.666764705882443","640","356","j","true","img/T_ambi40.png","圆形","word_first",""
"","","","","","html-keyboard-response","164","645526","0.0-13.0-1.0-1.0-0.0-1.2","null","<span style='color:GreenYellow; font-size: 70px;'>正确! </span>","null","","","","","","","","","","","","","","","","","","","","","","","feedback_test"
"","","","","","psychophysics","165","647295","0.0-13.0-1.0-1.0-0.0-0.3","609","","j","","","","","","","","","","","","","key","j","16.666865384615868","640","356","j","true","img/S_ambi40.png","圆形","word_first",""
"","","","","","html-keyboard-response","166","647598","0.0-13.0-1.0-1.0-0.0-1.3","null","<span style='color:GreenYellow; font-size: 70px;'>正确! </span>","null","","","","","","","","","","","","","","","","","","","","","","","feedback_test"
"","","","","","psychophysics","167","649378","0.0-13.0-1.0-1.0-0.0-0.4","627","","f","","","","","","","","","","","","","key","f","16.666295238095337","640","356","f","true","img/S_ambi40.png","方形","word_first",""
"","","","","","html-keyboard-response","168","649685","0.0-13.0-1.0-1.0-0.0-1.4","null","<span style='color:GreenYellow; font-size: 70px;'>正确! </span>","null","","","","","","","","","","","","","","","","","","","","","","","feedback_test"
"","","","","","psychophysics","169","651421","0.0-13.0-1.0-1.0-0.0-0.5","583","","j","","","","","","","","","","","","","key","j","16.66662135922341","640","356","j","true","img/T_ambi40.png","方形","word_first",""
"","","","","","html-keyboard-response","170","651724","0.0-13.0-1.0-1.0-0.0-1.5","null","<span style='color:GreenYellow; font-size: 70px;'>正确! </span>","null","","","","","","","","","","","","","","","","","","","","","","","feedback_test"
"","","","","","psychophysics","171","653448","0.0-13.0-1.0-1.0-0.0-0.6","571","","f","","","","","","","","","","","","","key","f","16.666784313725373","640","356","f","true","img/C_ambi40.png","圆形","word_first",""
"","","","","","html-keyboard-response","172","653749","0.0-13.0-1.0-1.0-0.0-1.6","null","<span style='color:GreenYellow; font-size: 70px;'>正确! </span>","null","","","","","","","","","","","","","","","","","","","","","","","feedback_test"
"","","","","","psychophysics","173","655411","0.0-13.0-1.0-1.0-0.0-0.7","506","","f","","","","","","","","","","","","","key","f","16.66670408163324","640","356","f","true","img/C_ambi40.png","圆形","word_first",""
"","","","","","html-keyboard-response","174","655716","0.0-13.0-1.0-1.0-0.0-1.7","null","<span style='color:GreenYellow; font-size: 70px;'>正确! </span>","null","","","","","","","","","","","","","","","","","","","","","","","feedback_test"
"","","","","","psychophysics","175","657714","0.0-13.0-1.0-1.0-0.0-0.8","844","","j","","","","","","","","","","","","","key","j","16.666813559322105","640","356","f","false","img/S_ambi40.png","方形","word_first",""
"","","","","","html-keyboard-response","176","658017","0.0-13.0-1.0-1.0-0.0-1.8","null","<span style='color:red; font-size: 70px;'>错误! </span>","null","","","","","","","","","","","","","","","","","","","","","","","feedback_test"
"","","","","","psychophysics","177","659776","0.0-13.0-1.0-1.0-0.0-0.9","606","","j","","","","","","","","","","","","","key","j","16.66692307692294","640","356","j","true","img/S_ambi40.png","三角","word_first",""
"","","","","","html-keyboard-response","178","660078","0.0-13.0-1.0-1.0-0.0-1.9","null","<span style='color:GreenYellow; font-size: 70px;'>正确! </span>","null","","","","","","","","","","","","","","","","","","","","","","","feedback_test"
"","","","","","psychophysics","179","661805","0.0-13.0-1.0-1.0-0.0-0.10","569","","f","","","","","","","","","","","","","key","f","16.666784313725373","640","356","f","true","img/T_ambi40.png","三角","word_first",""
"","","","","","html-keyboard-response","180","662109","0.0-13.0-1.0-1.0-0.0-1.10","null","<span style='color:GreenYellow; font-size: 70px;'>正确! </span>","null","","","","","","","","","","","","","","","","","","","","","","","feedback_test"
"","","","","","psychophysics","181","663772","0.0-13.0-1.0-1.0-0.0-0.11","508","","j","","","","","","","","","","","","","key","j","16.667040816326484","640","356","j","true","img/C_ambi40.png","方形","word_first",""
"","","","","","html-keyboard-response","182","664075","0.0-13.0-1.0-1.0-0.0-1.11","null","<span style='color:GreenYellow; font-size: 70px;'>正确! </span>","null","","","","","","","","","","","","","","","","","","","","","","","feedback_test"
"","","","","","psychophysics","183","665779","0.0-13.0-1.0-1.0-0.0-0.12","551","","j","","","","","","","","","","","","","key","j","16.666480000000448","640","356","j","true","img/S_ambi40.png","圆形","word_first",""
"","","","","","html-keyboard-response","184","666082","0.0-13.0-1.0-1.0-0.0-1.12","null","<span style='color:GreenYellow; font-size: 70px;'>正确! </span>","null","","","","","","","","","","","","","","","","","","","","","","","feedback_test"
"","","","","","psychophysics","185","667759","0.0-13.0-1.0-1.0-0.0-0.13","523","","f","","","","","","","","","","","","","key","f","16.665676767676786","640","356","f","true","img/C_ambi40.png","圆形","word_first",""
"","","","","","html-keyboard-response","186","668065","0.0-13.0-1.0-1.0-0.0-1.13","null","<span style='color:GreenYellow; font-size: 70px;'>正确! </span>","null","","","","","","","","","","","","","","","","","","","","","","","feedback_test"
"","","","","","psychophysics","187","669525","0.0-13.0-1.0-1.0-0.0-0.14","306","","f","","","","","","","","","","","","","key","f","16.666790697674895","640","356","j","false","img/T_ambi40.png","圆形","word_first",""
"","","","","","html-keyboard-response","188","669826","0.0-13.0-1.0-1.0-0.0-1.14","null","<span style='color:red; font-size: 70px;'>错误! </span>","null","","","","","","","","","","","","","","","","","","","","","","","feedback_test"
"","","","","","psychophysics","189","671464","0.0-13.0-1.0-1.0-0.0-0.15","482","","f","","","","","","","","","","","","","key","f","16.666593750000175","640","356","f","true","img/C_ambi40.png","圆形","word_first",""
"","","","","","html-keyboard-response","190","671767","0.0-13.0-1.0-1.0-0.0-1.15","null","<span style='color:GreenYellow; font-size: 70px;'>正确! </span>","null","","","","","","","","","","","","","","","","","","","","","","","feedback_test"
"","","","","","psychophysics","191","673388","0.0-13.0-1.0-1.0-0.0-0.16","469","","j","","","","","","","","","","","","","key","j","16.666854166667083","640","356","j","true","img/T_ambi40.png","方形","word_first",""
"","","","","","html-keyboard-response","192","673690","0.0-13.0-1.0-1.0-0.0-1.16","null","<span style='color:GreenYellow; font-size: 70px;'>正确! </span>","null","","","","","","","","","","","","","","","","","","","","","","","feedback_test"
"","","","","","psychophysics","193","675377","0.0-13.0-1.0-1.0-0.0-0.17","535","","f","","","","","","","","","","","","","key","f","16.66688888888886","640","356","f","true","img/T_ambi40.png","三角","word_first",""
"","","","","","html-keyboard-response","194","675681","0.0-13.0-1.0-1.0-0.0-1.17","null","<span style='color:GreenYellow; font-size: 70px;'>正确! </span>","null","","","","","","","","","","","","","","","","","","","","","","","feedback_test"
"","","","","","psychophysics","195","677341","0.0-13.0-1.0-1.0-0.0-0.18","506","","j","","","","","","","","","","","","","key","j","16.83816494845387","640","356","j","true","img/C_ambi40.png","三角","word_first",""
"","","","","","html-keyboard-response","196","677643","0.0-13.0-1.0-1.0-0.0-1.18","null","<span style='color:GreenYellow; font-size: 70px;'>正确! </span>","null","","","","","","","","","","","","","","","","","","","","","","","feedback_test"
"","","","","","psychophysics","197","679248","0.0-13.0-1.0-1.0-0.0-0.19","452","","j","","","","","","","","","","","","","key","j","16.666627659573855","640","356","f","false","img/S_ambi40.png","方形","word_first",""
"","","","","","html-keyboard-response","198","679550","0.0-13.0-1.0-1.0-0.0-1.19","null","<span style='color:red; font-size: 70px;'>错误! </span>","null","","","","","","","","","","","","","","","","","","","","","","","feedback_test"
"","","","","","psychophysics","199","682204","0.0-13.0-1.0-1.0-0.0-0.20","null","","null","","","","","","","","","","","","","key","null","16.666348101265427","640","356","j","false","img/C_ambi40.png","方形","word_first",""
"","","","","","html-keyboard-response","200","682508","0.0-13.0-1.0-1.0-0.0-1.20","null","<span class='add_' style='color:yellow; font-size: 70px;'> 太慢! </span>","null","","","","","","","","","","","","","","","","","","","","","","","feedback_test"
"","","","","","psychophysics","201","684160","0.0-13.0-1.0-1.0-0.0-0.21","501","","f","","","","","","","","","","","","","key","f","16.66701020408132","640","356","f","true","img/T_ambi40.png","三角","word_first",""
"","","","","","html-keyboard-response","202","684470","0.0-13.0-1.0-1.0-0.0-1.21","null","<span style='color:GreenYellow; font-size: 70px;'>正确! </span>","null","","","","","","","","","","","","","","","","","","","","","","","feedback_test"
"","","","","","psychophysics","203","686180","0.0-13.0-1.0-1.0-0.0-0.22","557","","j","","","","","","","","","","","","","key","j","16.66642574257434","640","356","j","true","img/S_ambi40.png","三角","word_first",""
"","","","","","html-keyboard-response","204","686485","0.0-13.0-1.0-1.0-0.0-1.22","null","<span style='color:GreenYellow; font-size: 70px;'>正确! </span>","null","","","","","","","","","","","","","","","","","","","","","","","feedback_test"
"","","","","","psychophysics","205","688234","0.0-13.0-1.0-1.0-0.0-0.23","596","","f","","","","","","","","","","","","","key","f","16.66686538461475","640","356","f","true","img/S_ambi40.png","方形","word_first",""
"","","","","","html-keyboard-response","206","688538","0.0-13.0-1.0-1.0-0.0-1.23","null","<span style='color:GreenYellow; font-size: 70px;'>正确! </span>","null","","","","","","","","","","","","","","","","","","","","","","","feedback_test"
"","","","","","psychophysics","207","690185","0.0-13.0-1.0-1.0-0.0-0.24","493","","j","","","","","","","","","","","","","key","j","16.666867346938805","640","356","j","true","img/C_ambi40.png","三角","word_first",""
"","","","","","html-keyboard-response","208","690487","0.0-13.0-1.0-1.0-0.0-1.24","null","<span style='color:GreenYellow; font-size: 70px;'>正确! </span>","null","","","","","","","","","","","","","","","","","","","","","","","feedback_test"
"","","","","","psychophysics","209","692106","0.0-13.0-1.0-1.0-0.0-0.25","464","","j","","","","","","","","","","","","","key","j","16.666656250000717","640","356","j","true","img/T_ambi40.png","圆形","word_first",""
"","","","","","html-keyboard-response","210","692407","0.0-13.0-1.0-1.0-0.0-1.25","null","<span style='color:GreenYellow; font-size: 70px;'>正确! </span>","null","","","","","","","","","","","","","","","","","","","","","","","feedback_test"
"","","","","","psychophysics","211","693925","0.0-13.0-1.0-1.0-0.0-0.26","365","","f","","","","","","","","","","","","","key","f","16.667168539326134","640","356","f","true","img/C_ambi40.png","圆形","word_first",""
"","","","","","html-keyboard-response","212","694228","0.0-13.0-1.0-1.0-0.0-1.26","null","<span style='color:GreenYellow; font-size: 70px;'>正确! </span>","null","","","","","","","","","","","","","","","","","","","","","","","feedback_test"
"","","","","","psychophysics","213","695812","0.0-13.0-1.0-1.0-0.0-0.27","427","","j","","","","","","","","","","","","","key","j","16.666827956989398","640","356","f","false","img/S_ambi40.png","方形","word_first",""
"","","","","","html-keyboard-response","214","696117","0.0-13.0-1.0-1.0-0.0-1.27","null","<span style='color:red; font-size: 70px;'>错误! </span>","null","","","","","","","","","","","","","","","","","","","","","","","feedback_test"
"","","","","","psychophysics","215","697827","0.0-13.0-1.0-1.0-0.0-0.28","558","","j","","","","","","","","","","","","","key","j","16.666574257425964","640","356","j","true","img/C_ambi40.png","方形","word_first",""
"","","","","","html-keyboard-response","216","698128","0.0-13.0-1.0-1.0-0.0-1.28","null","<span style='color:GreenYellow; font-size: 70px;'>正确! </span>","null","","","","","","","","","","","","","","","","","","","","","","","feedback_test"
"","","","","","psychophysics","217","699850","0.0-13.0-1.0-1.0-0.0-0.29","567","","j","","","","","","","","","","","","","key","j","16.666686274510734","640","356","j","true","img/S_ambi40.png","圆形","word_first",""
"","","","","","html-keyboard-response","218","700154","0.0-13.0-1.0-1.0-0.0-1.29","null","<span style='color:GreenYellow; font-size: 70px;'>正确! </span>","null","","","","","","","","","","","","","","","","","","","","","","","feedback_test"
"","","","","","psychophysics","219","701770","0.0-13.0-1.0-1.0-0.0-0.30","464","","f","","","","","","","","","","","","","key","f","16.666894736841908","640","356","f","true","img/C_ambi40.png","圆形","word_first",""
"","","","","","html-keyboard-response","220","702073","0.0-13.0-1.0-1.0-0.0-1.30","null","<span style='color:GreenYellow; font-size: 70px;'>正确! </span>","null","","","","","","","","","","","","","","","","","","","","","","","feedback_test"
"","","","","","psychophysics","221","703768","0.0-13.0-1.0-1.0-0.0-0.31","544","","f","","","","","","","","","","","","","key","f","16.666831683168088","640","356","f","true","img/S_ambi40.png","方形","word_first",""
"","","","","","html-keyboard-response","222","704073","0.0-13.0-1.0-1.0-0.0-1.31","null","<span style='color:GreenYellow; font-size: 70px;'>正确! </span>","null","","","","","","","","","","","","","","","","","","","","","","","feedback_test"
"","","","","","psychophysics","223","705722","0.0-13.0-1.0-1.0-0.0-0.32","496","","j","","","","","","","","","","","","","key","j","16.666591836734703","640","356","j","true","img/S_ambi40.png","三角","word_first",""
"","","","","","html-keyboard-response","224","706024","0.0-13.0-1.0-1.0-0.0-1.32","null","<span style='color:GreenYellow; font-size: 70px;'>正确! </span>","null","","","","","","","","","","","","","","","","","","","","","","","feedback_test"
"","","","","","psychophysics","225","707696","0.0-13.0-1.0-1.0-0.0-0.33","519","","j","","","","","","","","","","","","","key","j","16.66667676767725","640","356","j","true","img/T_ambi40.png","方形","word_first",""
"","","","","","html-keyboard-response","226","708000","0.0-13.0-1.0-1.0-0.0-1.33","null","<span style='color:GreenYellow; font-size: 70px;'>正确! </span>","null","","","","","","","","","","","","","","","","","","","","","","","feedback_test"
"","","","","","psychophysics","227","709736","0.0-13.0-1.0-1.0-0.0-0.34","582","","f","","","","","","","","","","","","","key","f","16.829725490195916","640","356","f","true","img/T_ambi40.png","三角","word_first",""
"","","","","","html-keyboard-response","228","710039","0.0-13.0-1.0-1.0-0.0-1.34","null","<span style='color:GreenYellow; font-size: 70px;'>正确! </span>","null","","","","","","","","","","","","","","","","","","","","","","","feedback_test"
"","","","","","psychophysics","229","711657","0.0-13.0-1.0-1.0-0.0-0.35","464","","f","","","","","","","","","","","","","key","f","16.666663157894572","640","356","f","true","img/T_ambi40.png","三角","word_first",""
"","","","","","html-keyboard-response","230","711962","0.0-13.0-1.0-1.0-0.0-1.35","null","<span style='color:GreenYellow; font-size: 70px;'>正确! </span>","null","","","","","","","","","","","","","","","","","","","","","","","feedback_test"
"","","","","","psychophysics","231","713671","0.0-13.0-1.0-1.0-0.0-0.36","554","","j","","","","","","","","","","","","","key","j","16.6669207920786","640","356","j","true","img/S_ambi40.png","圆形","word_first",""
"","","","","","html-keyboard-response","232","713974","0.0-13.0-1.0-1.0-0.0-1.36","null","<span style='color:GreenYellow; font-size: 70px;'>正确! </span>","null","","","","","","","","","","","","","","","","","","","","","","","feedback_test"
"","","","","","psychophysics","233","715672","0.0-13.0-1.0-1.0-0.0-0.37","546","","j","","","","","","","","","","","","","key","j","16.667346534653483","640","356","j","true","img/T_ambi40.png","方形","word_first",""
"","","","","","html-keyboard-response","234","715973","0.0-13.0-1.0-1.0-0.0-1.37","null","<span style='color:GreenYellow; font-size: 70px;'>正确! </span>","null","","","","","","","","","","","","","","","","","","","","","","","feedback_test"
"","","","","","psychophysics","235","717591","0.0-13.0-1.0-1.0-0.0-0.38","465","","f","","","","","","","","","","","","","key","f","16.666614583333285","640","356","f","true","img/C_ambi40.png","圆形","word_first",""
"","","","","","html-keyboard-response","236","717892","0.0-13.0-1.0-1.0-0.0-1.38","null","<span style='color:GreenYellow; font-size: 70px;'>正确! </span>","null","","","","","","","","","","","","","","","","","","","","","","","feedback_test"
"","","","","","psychophysics","237","719556","0.0-13.0-1.0-1.0-0.0-0.39","511","","j","","","","","","","","","","","","","key","j","16.666979591837343","640","356","j","true","img/S_ambi40.png","三角","word_first",""
"","","","","","html-keyboard-response","238","719858","0.0-13.0-1.0-1.0-0.0-1.39","null","<span style='color:GreenYellow; font-size: 70px;'>正确! </span>","null","","","","","","","","","","","","","","","","","","","","","","","feedback_test"
"","","","","","psychophysics","239","721570","0.0-13.0-1.0-1.0-0.0-0.40","558","","f","","","","","","","","","","","","","key","f","16.66687128712921","640","356","f","true","img/S_ambi40.png","方形","word_first",""
"","","","","","html-keyboard-response","240","721873","0.0-13.0-1.0-1.0-0.0-1.40","null","<span style='color:GreenYellow; font-size: 70px;'>正确! </span>","null","","","","","","","","","","","","","","","","","","","","","","","feedback_test"
"","","","","","psychophysics","241","723850","0.0-13.0-1.0-1.0-0.0-0.41","824","","j","","","","","","","","","","","","","key","j","16.667042372881443","640","356","j","true","img/C_ambi40.png","三角","word_first",""
"","","","","","html-keyboard-response","242","724155","0.0-13.0-1.0-1.0-0.0-1.41","null","<span style='color:GreenYellow; font-size: 70px;'>正确! </span>","null","","","","","","","","","","","","","","","","","","","","","","","feedback_test"
"","","","","","psychophysics","243","725886","0.0-13.0-1.0-1.0-0.0-0.42","578","","f","","","","","","","","","","","","","key","f","16.666893203882953","640","356","f","true","img/T_ambi40.png","三角","word_first",""
"","","","","","html-keyboard-response","244","726190","0.0-13.0-1.0-1.0-0.0-1.42","null","<span style='color:GreenYellow; font-size: 70px;'>正确! </span>","null","","","","","","","","","","","","","","","","","","","","","","","feedback_test"
"","","","","","psychophysics","245","727792","0.0-13.0-1.0-1.0-0.0-0.43","451","","f","","","","","","","","","","","","","key","f","16.6660947368419","640","356","f","true","img/T_ambi40.png","三角","word_first",""
"","","","","","html-keyboard-response","246","728094","0.0-13.0-1.0-1.0-0.0-1.43","null","<span style='color:GreenYellow; font-size: 70px;'>正确! </span>","null","","","","","","","","","","","","","","","","","","","","","","","feedback_test"
"","","","","","psychophysics","247","729711","0.0-13.0-1.0-1.0-0.0-0.44","462","","j","","","","","","","","","","","","","key","j","16.66677894736763","640","356","j","true","img/T_ambi40.png","圆形","word_first",""
"","","","","","html-keyboard-response","248","730021","0.0-13.0-1.0-1.0-0.0-1.44","null","<span style='color:GreenYellow; font-size: 70px;'>正确! </span>","null","","","","","","","","","","","","","","","","","","","","","","","feedback_test"
"","","","","","psychophysics","249","731643","0.0-13.0-1.0-1.0-0.0-0.45","470","","f","","","","","","","","","","","","","key","f","16.666552083332743","640","356","f","true","img/C_ambi40.png","圆形","word_first",""
"","","","","","html-keyboard-response","250","731945","0.0-13.0-1.0-1.0-0.0-1.45","null","<span style='color:GreenYellow; font-size: 70px;'>正确! </span>","null","","","","","","","","","","","","","","","","","","","","","","","feedback_test"
"","","","","","psychophysics","251","733557","0.0-13.0-1.0-1.0-0.0-0.46","456","","j","","","","","","","","","","","","","key","j","16.66665263157828","640","356","j","true","img/C_ambi40.png","方形","word_first",""
"","","","","","html-keyboard-response","252","733859","0.0-13.0-1.0-1.0-0.0-1.46","null","<span style='color:GreenYellow; font-size: 70px;'>正确! </span>","null","","","","","","","","","","","","","","","","","","","","","","","feedback_test"
"","","","","","psychophysics","253","735544","0.0-13.0-1.0-1.0-0.0-0.47","529","","f","","","","","","","","","","","","","key","f","16.66680808080774","640","356","f","true","img/S_ambi40.png","方形","word_first",""
"","","","","","html-keyboard-response","254","735846","0.0-13.0-1.0-1.0-0.0-1.47","null","<span style='color:GreenYellow; font-size: 70px;'>正确! </span>","null","","","","","","","","","","","","","","","","","","","","","","","feedback_test"
"","","","","","psychophysics","255","737452","0.0-13.0-1.0-1.0-0.0-0.48","451","","f","","","","","","","","","","","","","key","f","16.666800000000205","640","356","f","true","img/C_ambi40.png","圆形","word_first",""
"","","","","","html-keyboard-response","256","737756","0.0-13.0-1.0-1.0-0.0-1.48","null","<span style='color:GreenYellow; font-size: 70px;'>正确! </span>","null","","","","","","","","","","","","","","","","","","","","","","","feedback_test"
"","","","","","psychophysics","257","739407","0.0-13.0-1.0-1.0-0.0-0.49","500","","f","","","","","","","","","","","","","key","f","16.667785714286598","640","356","f","true","img/T_ambi40.png","三角","word_first",""
"","","","","","html-keyboard-response","258","739709","0.0-13.0-1.0-1.0-0.0-1.49","null","<span style='color:GreenYellow; font-size: 70px;'>正确! </span>","null","","","","","","","","","","","","","","","","","","","","","","","feedback_test"
"","","","","","psychophysics","259","741476","0.0-13.0-1.0-1.0-0.0-0.50","615","","j","","","","","","","","","","","","","key","j","16.666615384615188","640","356","j","true","img/C_ambi40.png","三角","word_first",""
"","","","","","html-keyboard-response","260","741778","0.0-13.0-1.0-1.0-0.0-1.50","null","<span style='color:GreenYellow; font-size: 70px;'>正确! </span>","null","","","","","","","","","","","","","","","","","","","","","","","feedback_test"
"","","","","","psychophysics","261","743586","0.0-13.0-1.0-1.0-0.0-0.51","652","","j","","","","","","","","","","","","","key","j","16.66669158878514","640","356","j","true","img/S_ambi40.png","圆形","word_first",""
"","","","","","html-keyboard-response","262","743889","0.0-13.0-1.0-1.0-0.0-1.51","null","<span style='color:GreenYellow; font-size: 70px;'>正确! </span>","null","","","","","","","","","","","","","","","","","","","","","","","feedback_test"
"","","","","","psychophysics","263","745477","0.0-13.0-1.0-1.0-0.0-0.52","436","","f","","","","","","","","","","","","","key","f","16.665936170212746","640","356","f","true","img/T_ambi40.png","三角","word_first",""
"","","","","","html-keyboard-response","264","745778","0.0-13.0-1.0-1.0-0.0-1.52","null","<span style='color:GreenYellow; font-size: 70px;'>正确! </span>","null","","","","","","","","","","","","","","","","","","","","","","","feedback_test"
"","","","","","psychophysics","265","747558","0.0-13.0-1.0-1.0-0.0-0.53","625","","j","","","","","","","","","","","","","key","j","16.66688571428614","640","356","f","false","img/S_ambi40.png","方形","word_first",""
"","","","","","html-keyboard-response","266","747860","0.0-13.0-1.0-1.0-0.0-1.53","null","<span style='color:red; font-size: 70px;'>错误! </span>","null","","","","","","","","","","","","","","","","","","","","","","","feedback_test"
"","","","","","psychophysics","267","749513","0.0-13.0-1.0-1.0-0.0-0.54","502","","j","","","","","","","","","","","","","key","j","16.667206185566233","640","356","j","true","img/T_ambi40.png","方形","word_first",""
"","","","","","html-keyboard-response","268","749823","0.0-13.0-1.0-1.0-0.0-1.54","null","<span style='color:GreenYellow; font-size: 70px;'>正确! </span>","null","","","","","","","","","","","","","","","","","","","","","","","feedback_test"
"","","","","","psychophysics","269","751554","0.0-13.0-1.0-1.0-0.0-0.55","579","","f","","","","","","","","","","","","","key","f","16.666504950494286","640","356","f","true","img/C_ambi40.png","圆形","word_first",""
"","","","","","html-keyboard-response","270","751856","0.0-13.0-1.0-1.0-0.0-1.55","null","<span style='color:GreenYellow; font-size: 70px;'>正确! </span>","null","","","","","","","","","","","","","","","","","","","","","","","feedback_test"
"","","","","","psychophysics","271","753583","0.0-13.0-1.0-1.0-0.0-0.56","574","","f","","","","","","","","","","","","","key","f","16.66677450980448","640","356","f","true","img/S_ambi40.png","方形","word_first",""
"","","","","","html-keyboard-response","272","753886","0.0-13.0-1.0-1.0-0.0-1.56","null","<span style='color:GreenYellow; font-size: 70px;'>正确! </span>","null","","","","","","","","","","","","","","","","","","","","","","","feedback_test"
"","","","","","psychophysics","273","755498","0.0-13.0-1.0-1.0-0.0-0.57","460","","j","","","","","","","","","","","","","key","j","16.66682105263156","640","356","j","true","img/S_ambi40.png","三角","word_first",""
"","","","","","html-keyboard-response","274","755802","0.0-13.0-1.0-1.0-0.0-1.57","null","<span style='color:GreenYellow; font-size: 70px;'>正确! </span>","null","","","","","","","","","","","","","","","","","","","","","","","feedback_test"
"","","","","","psychophysics","275","757464","0.0-13.0-1.0-1.0-0.0-0.58","509","","j","","","","","","","","","","","","","key","j","16.665357142857903","640","356","j","true","img/C_ambi40.png","方形","word_first",""
"","","","","","html-keyboard-response","276","757768","0.0-13.0-1.0-1.0-0.0-1.58","null","<span style='color:GreenYellow; font-size: 70px;'>正确! </span>","null","","","","","","","","","","","","","","","","","","","","","","","feedback_test"
"","","","","","psychophysics","277","759491","0.0-13.0-1.0-1.0-0.0-0.59","570","","j","","","","","","","","","","","","","key","j","16.66670588235252","640","356","j","true","img/T_ambi40.png","圆形","word_first",""
"","","","","","html-keyboard-response","278","759794","0.0-13.0-1.0-1.0-0.0-1.59","null","<span style='color:GreenYellow; font-size: 70px;'>正确! </span>","null","","","","","","","","","","","","","","","","","","","","","","","feedback_test"
"","","","","","html-keyboard-response","279","766834","0.0-13.0-1.0-1.0-1.0","7036","<style>.context{color:white; font-size: 35px; line-height:40px}</style>                            <div><p class='context'>您正确回答了88% 的试次。</p><p class='context'>您的平均反应时为530毫秒。</p><p class='context'>请按任意键进入休息</p></div>"," ","","","","","","","","","","","","","","","","","","","","","","",""
"","","","","","html-button-response","280","830820","0.0-13.0-1.0-1.0-2.0","63979","
                    <p>您当前还剩余3组实验</p>
                    <p>现在是休息时间，当您结束休息后，您可以点击 结束休息 按钮 继续</p>
                    <p>建议休息时间还剩余<span id=""iii"">60</span>秒</p>","0","","","","","","","","","","","","","","","","","","","","","","",""
"","","","","","psychophysics","281","833477","0.0-13.0-1.0-1.0-0.1-0.60","null","","null","","","","","","","","","","","","","key","null","16.666689873418086","640","356","f","false","img/C_ambi40.png","圆形","word_first",""
"","","","","","html-keyboard-response","282","833778","0.0-13.0-1.0-1.0-0.1-1.60","null","<span class='add_' style='color:yellow; font-size: 70px;'> 太慢! </span>","null","","","","","","","","","","","","","","","","","","","","","","","feedback_test"
"","","","","","psychophysics","283","835520","0.0-13.0-1.0-1.0-0.1-0.61","587","","j","","","","","","","","","","","","","key","j","16.666796116504223","640","356","j","true","img/T_ambi40.png","圆形","word_first",""
"","","","","","html-keyboard-response","284","835824","0.0-13.0-1.0-1.0-0.1-1.61","null","<span style='color:GreenYellow; font-size: 70px;'>正确! </span>","null","","","","","","","","","","","","","","","","","","","","","","","feedback_test"
"","","","","","psychophysics","285","837479","0.0-13.0-1.0-1.0-0.1-0.62","503","","f","","","","","","","","","","","","","key","f","16.66690721649547","640","356","f","true","img/C_ambi40.png","圆形","word_first",""
"","","","","","html-keyboard-response","286","837784","0.0-13.0-1.0-1.0-0.1-1.62","null","<span style='color:GreenYellow; font-size: 70px;'>正确! </span>","null","","","","","","","","","","","","","","","","","","","","","","","feedback_test"
"","","","","","psychophysics","287","839435","0.0-13.0-1.0-1.0-0.1-0.63","499","","j","","","","","","","","","","","","","key","j","16.666795918367548","640","356","j","true","img/T_ambi40.png","方形","word_first",""
"","","","","","html-keyboard-response","288","839738","0.0-13.0-1.0-1.0-0.1-1.63","null","<span style='color:GreenYellow; font-size: 70px;'>正确! </span>","null","","","","","","","","","","","","","","","","","","","","","","","feedback_test"
"","","","","","psychophysics","289","841369","0.0-13.0-1.0-1.0-0.1-0.64","479","","f","","","","","","","","","","","","","key","f","16.66681249999965","640","356","f","true","img/S_ambi40.png","方形","word_first",""
"","","","","","html-keyboard-response","290","841673","0.0-13.0-1.0-1.0-0.1-1.64","null","<span style='color:GreenYellow; font-size: 70px;'>正确! </span>","null","","","","","","","","","","","","","","","","","","","","","","","feedback_test"
"","","","","","psychophysics","291","843337","0.0-13.0-1.0-1.0-0.1-0.65","512","","f","","","","","","","","","","","","","key","f","16.66701010100995","640","356","f","true","img/T_ambi40.png","三角","word_first",""
"","","","","","html-keyboard-response","292","843640","0.0-13.0-1.0-1.0-0.1-1.65","null","<span style='color:GreenYellow; font-size: 70px;'>正确! </span>","null","","","","","","","","","","","","","","","","","","","","","","","feedback_test"
"","","","","","psychophysics","293","845308","0.0-13.0-1.0-1.0-0.1-0.66","516","","j","","","","","","","","","","","","","key","j","16.666828282827726","640","356","j","true","img/S_ambi40.png","三角","word_first",""
"","","","","","html-keyboard-response","294","845610","0.0-13.0-1.0-1.0-0.1-1.66","null","<span style='color:GreenYellow; font-size: 70px;'>正确! </span>","null","","","","","","","","","","","","","","","","","","","","","","","feedback_test"
"","","","","","psychophysics","295","847246","0.0-13.0-1.0-1.0-0.1-0.67","483","","j","","","","","","","","","","","","","key","j","16.666843749999924","640","356","j","true","img/C_ambi40.png","方形","word_first",""
"","","","","","html-keyboard-response","296","847549","0.0-13.0-1.0-1.0-0.1-1.67","null","<span style='color:GreenYellow; font-size: 70px;'>正确! </span>","null","","","","","","","","","","","","","","","","","","","","","","","feedback_test"
"","","","","","psychophysics","297","849311","0.0-13.0-1.0-1.0-0.1-0.68","607","","j","","","","","","","","","","","","","key","j","16.666692307692408","640","356","j","true","img/S_ambi40.png","圆形","word_first",""
"","","","","","html-keyboard-response","298","849614","0.0-13.0-1.0-1.0-0.1-1.68","null","<span style='color:GreenYellow; font-size: 70px;'>正确! </span>","null","","","","","","","","","","","","","","","","","","","","","","","feedback_test"
"","","","","","psychophysics","299","851224","0.0-13.0-1.0-1.0-0.1-0.69","458","","f","","","","","","","","","","","","","key","f","16.666578947369157","640","356","f","true","img/T_ambi40.png","三角","word_first",""
"","","","","","html-keyboard-response","300","851526","0.0-13.0-1.0-1.0-0.1-1.69","null","<span style='color:GreenYellow; font-size: 70px;'>正确! </span>","null","","","","","","","","","","","","","","","","","","","","","","","feedback_test"
"","","","","","psychophysics","301","853267","0.0-13.0-1.0-1.0-0.1-0.70","587","","j","","","","","","","","","","","","","key","j","16.83015686274488","640","356","j","true","img/C_ambi40.png","三角","word_first",""
"","","","","","html-keyboard-response","302","853573","0.0-13.0-1.0-1.0-0.1-1.70","null","<span style='color:GreenYellow; font-size: 70px;'>正确! </span>","null","","","","","","","","","","","","","","","","","","","","","","","feedback_test"
"","","","","","psychophysics","303","855226","0.0-13.0-1.0-1.0-0.1-0.71","500","","j","","","","","","","","","","","","","key","j","16.666670103092947","640","356","f","false","img/S_ambi40.png","方形","word_first",""
"","","","","","html-keyboard-response","304","855530","0.0-13.0-1.0-1.0-0.1-1.71","null","<span style='color:red; font-size: 70px;'>错误! </span>","null","","","","","","","","","","","","","","","","","","","","","","","feedback_test"
"","","","","","psychophysics","305","857257","0.0-13.0-1.0-1.0-0.1-0.72","568","","j","","","","","","","","","","","","","key","j","16.666647058823738","640","356","f","false","img/S_ambi40.png","方形","word_first",""
"","","","","","html-keyboard-response","306","857558","0.0-13.0-1.0-1.0-0.1-1.72","null","<span style='color:red; font-size: 70px;'>错误! </span>","null","","","","","","","","","","","","","","","","","","","","","","","feedback_test"
"","","","","","psychophysics","307","859386","0.0-13.0-1.0-1.0-0.1-0.73","675","","j","","","","","","","","","","","","","key","j","16.666722222221626","640","356","j","true","img/T_ambi40.png","方形","word_first",""
"","","","","","html-keyboard-response","308","859688","0.0-13.0-1.0-1.0-0.1-1.73","null","<span style='color:GreenYellow; font-size: 70px;'>正确! </span>","null","","","","","","","","","","","","","","","","","","","","","","","feedback_test"
"","","","","","psychophysics","309","861450","0.0-13.0-1.0-1.0-0.1-0.74","607","","j","","","","","","","","","","","","","key","j","16.666682692307333","640","356","f","false","img/S_ambi40.png","方形","word_first",""
"","","","","","html-keyboard-response","310","861753","0.0-13.0-1.0-1.0-0.1-1.74","null","<span style='color:red; font-size: 70px;'>错误! </span>","null","","","","","","","","","","","","","","","","","","","","","","","feedback_test"
"","","","","","psychophysics","311","863467","0.0-13.0-1.0-1.0-0.1-0.75","561","","f","","","","","","","","","","","","","key","f","16.666656862745775","640","356","f","true","img/T_ambi40.png","三角","word_first",""
"","","","","","html-keyboard-response","312","863785","0.0-13.0-1.0-1.0-0.1-1.75","null","<span style='color:GreenYellow; font-size: 70px;'>正确! </span>","null","","","","","","","","","","","","","","","","","","","","","","","feedback_test"
"","","","","","psychophysics","313","865360","0.0-13.0-1.0-1.0-0.1-0.76","422","","f","","","","","","","","","","","","","key","f","16.66699999999956","640","356","f","true","img/T_ambi40.png","三角","word_first",""
"","","","","","html-keyboard-response","314","865662","0.0-13.0-1.0-1.0-0.1-1.76","null","<span style='color:GreenYellow; font-size: 70px;'>正确! </span>","null","","","","","","","","","","","","","","","","","","","","","","","feedback_test"
"","","","","","psychophysics","315","867407","0.0-13.0-1.0-1.0-0.1-0.77","590","","f","","","","","","","","","","","","","key","f","16.666766990291507","640","356","f","true","img/C_ambi40.png","圆形","word_first",""
"","","","","","html-keyboard-response","316","867709","0.0-13.0-1.0-1.0-0.1-1.77","null","<span style='color:GreenYellow; font-size: 70px;'>正确! </span>","null","","","","","","","","","","","","","","","","","","","","","","","feedback_test"
"","","","","","psychophysics","317","869454","0.0-13.0-1.0-1.0-0.1-0.78","593","","j","","","","","","","","","","","","","key","j","16.666864077669107","640","356","j","true","img/C_ambi40.png","方形","word_first",""
"","","","","","html-keyboard-response","318","869758","0.0-13.0-1.0-1.0-0.1-1.78","null","<span style='color:GreenYellow; font-size: 70px;'>正确! </span>","null","","","","","","","","","","","","","","","","","","","","","","","feedback_test"
"","","","","","psychophysics","319","871521","0.0-13.0-1.0-1.0-0.1-0.79","610","","f","","","","","","","","","","","","","key","f","16.66666346153831","640","356","f","true","img/C_ambi40.png","圆形","word_first",""
"","","","","","html-keyboard-response","320","871825","0.0-13.0-1.0-1.0-0.1-1.79","null","<span style='color:GreenYellow; font-size: 70px;'>正确! </span>","null","","","","","","","","","","","","","","","","","","","","","","","feedback_test"
"","","","","","psychophysics","321","873515","0.0-13.0-1.0-1.0-0.1-0.80","538","","j","","","","","","","","","","","","","key","j","16.666747474747787","640","356","j","true","img/C_ambi40.png","三角","word_first",""
"","","","","","html-keyboard-response","322","873819","0.0-13.0-1.0-1.0-0.1-1.80","null","<span style='color:GreenYellow; font-size: 70px;'>正确! </span>","null","","","","","","","","","","","","","","","","","","","","","","","feedback_test"
"","","","","","psychophysics","323","875587","0.0-13.0-1.0-1.0-0.1-0.81","616","","j","","","","","","","","","","","","","key","j","16.666476190476015","640","356","j","true","img/S_ambi40.png","三角","word_first",""
"","","","","","html-keyboard-response","324","875892","0.0-13.0-1.0-1.0-0.1-1.81","null","<span style='color:GreenYellow; font-size: 70px;'>正确! </span>","null","","","","","","","","","","","","","","","","","","","","","","","feedback_test"
"","","","","","psychophysics","325","877606","0.0-13.0-1.0-1.0-0.1-0.82","559","","j","","","","","","","","","","","","","key","j","16.666891089109196","640","356","j","true","img/T_ambi40.png","圆形","word_first",""
"","","","","","html-keyboard-response","326","877910","0.0-13.0-1.0-1.0-0.1-1.82","null","<span style='color:GreenYellow; font-size: 70px;'>正确! </span>","null","","","","","","","","","","","","","","","","","","","","","","","feedback_test"
"","","","","","psychophysics","327","879574","0.0-13.0-1.0-1.0-0.1-0.83","512","","j","","","","","","","","","","","","","key","j","16.667734693878387","640","356","j","true","img/S_ambi40.png","圆形","word_first",""
"","","","","","html-keyboard-response","328","879875","0.0-13.0-1.0-1.0-0.1-1.83","null","<span style='color:GreenYellow; font-size: 70px;'>正确! </span>","null","","","","","","","","","","","","","","","","","","","","","","","feedback_test"
"","","","","","psychophysics","329","881525","0.0-13.0-1.0-1.0-0.1-0.84","496","","f","","","","","","","","","","","","","key","f","16.666639175257625","640","356","f","true","img/C_ambi40.png","圆形","word_first",""
"","","","","","html-keyboard-response","330","881826","0.0-13.0-1.0-1.0-0.1-1.84","null","<span style='color:GreenYellow; font-size: 70px;'>正确! </span>","null","","","","","","","","","","","","","","","","","","","","","","","feedback_test"
"","","","","","psychophysics","331","883503","0.0-13.0-1.0-1.0-0.1-0.85","525","","j","","","","","","","","","","","","","key","j","16.6666363636361","640","356","j","true","img/T_ambi40.png","方形","word_first",""
"","","","","","html-keyboard-response","332","883805","0.0-13.0-1.0-1.0-0.1-1.85","null","<span style='color:GreenYellow; font-size: 70px;'>正确! </span>","null","","","","","","","","","","","","","","","","","","","","","","","feedback_test"
"","","","","","psychophysics","333","885574","0.0-13.0-1.0-1.0-0.1-0.86","617","","j","","","","","","","","","","","","","key","j","16.666836538461773","640","356","j","true","img/C_ambi40.png","三角","word_first",""
"","","","","","html-keyboard-response","334","885875","0.0-13.0-1.0-1.0-0.1-1.86","null","<span style='color:GreenYellow; font-size: 70px;'>正确! </span>","null","","","","","","","","","","","","","","","","","","","","","","","feedback_test"
"","","","","","psychophysics","335","887656","0.0-13.0-1.0-1.0-0.1-0.87","629","","f","","","","","","","","","","","","","key","f","16.666896226415016","640","356","f","true","img/S_ambi40.png","方形","word_first",""
"","","","","","html-keyboard-response","336","887959","0.0-13.0-1.0-1.0-0.1-1.87","null","<span style='color:GreenYellow; font-size: 70px;'>正确! </span>","null","","","","","","","","","","","","","","","","","","","","","","","feedback_test"
"","","","","","psychophysics","337","889725","0.0-13.0-1.0-1.0-0.1-0.88","614","","j","","","","","","","","","","","","","key","j","16.666721153846503","640","356","j","true","img/S_ambi40.png","圆形","word_first",""
"","","","","","html-keyboard-response","338","890028","0.0-13.0-1.0-1.0-0.1-1.88","null","<span style='color:GreenYellow; font-size: 70px;'>正确! </span>","null","","","","","","","","","","","","","","","","","","","","","","","feedback_test"
"","","","","","psychophysics","339","891711","0.0-13.0-1.0-1.0-0.1-0.89","528","","j","","","","","","","","","","","","","key","j","16.666828282827726","640","356","f","false","img/S_ambi40.png","方形","word_first",""
"","","","","","html-keyboard-response","340","892015","0.0-13.0-1.0-1.0-0.1-1.89","null","<span style='color:red; font-size: 70px;'>错误! </span>","null","","","","","","","","","","","","","","","","","","","","","","","feedback_test"
"","","","","","psychophysics","341","893648","0.0-13.0-1.0-1.0-0.1-0.90","477","","f","","","","","","","","","","","","","key","f","16.666833333333972","640","356","f","true","img/C_ambi40.png","圆形","word_first",""
"","","","","","html-keyboard-response","342","893950","0.0-13.0-1.0-1.0-0.1-1.90","null","<span style='color:GreenYellow; font-size: 70px;'>正确! </span>","null","","","","","","","","","","","","","","","","","","","","","","","feedback_test"
"","","","","","psychophysics","343","895749","0.0-13.0-1.0-1.0-0.1-0.91","646","","f","","","","","","","","","","","","","key","f","16.667046728972608","640","356","f","true","img/T_ambi40.png","三角","word_first",""
"","","","","","html-keyboard-response","344","896055","0.0-13.0-1.0-1.0-0.1-1.91","null","<span style='color:GreenYellow; font-size: 70px;'>正确! </span>","null","","","","","","","","","","","","","","","","","","","","","","","feedback_test"
"","","","","","psychophysics","345","897724","0.0-13.0-1.0-1.0-0.1-0.92","517","","j","","","","","","","","","","","","","key","j","16.666787878787755","640","356","j","true","img/S_ambi40.png","三角","word_first",""
"","","","","","html-keyboard-response","346","898025","0.0-13.0-1.0-1.0-0.1-1.92","null","<span style='color:GreenYellow; font-size: 70px;'>正确! </span>","null","","","","","","","","","","","","","","","","","","","","","","","feedback_test"
"","","","","","psychophysics","347","899798","0.0-13.0-1.0-1.0-0.1-0.93","620","","j","","","","","","","","","","","","","key","j","16.666342857143","640","356","j","true","img/C_ambi40.png","方形","word_first",""
"","","","","","html-keyboard-response","348","900101","0.0-13.0-1.0-1.0-0.1-1.93","null","<span style='color:GreenYellow; font-size: 70px;'>正确! </span>","null","","","","","","","","","","","","","","","","","","","","","","","feedback_test"
"","","","","","psychophysics","349","901822","0.0-13.0-1.0-1.0-0.1-0.94","567","","j","","","","","","","","","","","","","key","j","16.6668039215683","640","356","j","true","img/T_ambi40.png","圆形","word_first",""
"","","","","","html-keyboard-response","350","902125","0.0-13.0-1.0-1.0-0.1-1.94","null","<span style='color:GreenYellow; font-size: 70px;'>正确! </span>","null","","","","","","","","","","","","","","","","","","","","","","","feedback_test"
"","","","","","psychophysics","351","903925","0.0-13.0-1.0-1.0-0.1-0.95","647","","f","","","","","","","","","","","","","key","f","16.6669065420555","640","356","f","true","img/T_ambi40.png","三角","word_first",""
"","","","","","html-keyboard-response","352","904227","0.0-13.0-1.0-1.0-0.1-1.95","null","<span style='color:GreenYellow; font-size: 70px;'>正确! </span>","null","","","","","","","","","","","","","","","","","","","","","","","feedback_test"
"","","","","","psychophysics","353","906120","0.0-13.0-1.0-1.0-0.1-0.96","737","","j","","","","","","","","","","","","","key","j","16.666366071428847","640","356","j","true","img/T_ambi40.png","圆形","word_first",""
"","","","","","html-keyboard-response","354","906423","0.0-13.0-1.0-1.0-0.1-1.96","null","<span style='color:GreenYellow; font-size: 70px;'>正确! </span>","null","","","","","","","","","","","","","","","","","","","","","","","feedback_test"
"","","","","","psychophysics","355","908518","0.0-13.0-1.0-1.0-0.1-0.97","941","","f","","","","","","","","","","","","","key","f","16.666564516128876","640","356","f","true","img/S_ambi40.png","方形","word_first",""
"","","","","","html-keyboard-response","356","908821","0.0-13.0-1.0-1.0-0.1-1.97","null","<span style='color:GreenYellow; font-size: 70px;'>正确! </span>","null","","","","","","","","","","","","","","","","","","","","","","","feedback_test"
"","","","","","psychophysics","357","910760","0.0-13.0-1.0-1.0-0.1-0.98","787","","f","","","","","","","","","","","","","key","f","16.667000000000648","640","356","f","true","img/T_ambi40.png","三角","word_first",""
"","","","","","html-keyboard-response","358","911063","0.0-13.0-1.0-1.0-0.1-1.98","null","<span style='color:GreenYellow; font-size: 70px;'>正确! </span>","null","","","","","","","","","","","","","","","","","","","","","","","feedback_test"
"","","","","","psychophysics","359","912835","0.0-13.0-1.0-1.0-0.1-0.99","618","","j","","","","","","","","","","","","","key","j","16.66688571428503","640","356","j","true","img/C_ambi40.png","方形","word_first",""
"","","","","","html-keyboard-response","360","913138","0.0-13.0-1.0-1.0-0.1-1.99","null","<span style='color:GreenYellow; font-size: 70px;'>正确! </span>","null","","","","","","","","","","","","","","","","","","","","","","","feedback_test"
"","","","","","psychophysics","361","914925","0.0-13.0-1.0-1.0-0.1-0.100","635","","f","","","","","","","","","","","","","key","f","16.66652830188681","640","356","f","true","img/T_ambi40.png","三角","word_first",""
"","","","","","html-keyboard-response","362","915231","0.0-13.0-1.0-1.0-0.1-1.100","null","<span style='color:GreenYellow; font-size: 70px;'>正确! </span>","null","","","","","","","","","","","","","","","","","","","","","","","feedback_test"
"","","","","","psychophysics","363","916835","0.0-13.0-1.0-1.0-0.1-0.101","447","","j","","","","","","","","","","","","","key","j","16.666621052631864","640","356","j","true","img/C_ambi40.png","三角","word_first",""
"","","","","","html-keyboard-response","364","917138","0.0-13.0-1.0-1.0-0.1-1.101","null","<span style='color:GreenYellow; font-size: 70px;'>正确! </span>","null","","","","","","","","","","","","","","","","","","","","","","","feedback_test"
"","","","","","psychophysics","365","918828","0.0-13.0-1.0-1.0-0.1-0.102","537","","j","","","","","","","","","","","","","key","j","16.666530000000492","640","356","j","true","img/S_ambi40.png","圆形","word_first",""
"","","","","","html-keyboard-response","366","919136","0.0-13.0-1.0-1.0-0.1-1.102","null","<span style='color:GreenYellow; font-size: 70px;'>正确! </span>","null","","","","","","","","","","","","","","","","","","","","","","","feedback_test"
"","","","","","psychophysics","367","920704","0.0-13.0-1.0-1.0-0.1-0.103","414","","f","","","","","","","","","","","","","key","f","16.666946236558648","640","356","f","true","img/C_ambi40.png","圆形","word_first",""
"","","","","","html-keyboard-response","368","921006","0.0-13.0-1.0-1.0-0.1-1.103","null","<span style='color:GreenYellow; font-size: 70px;'>正确! </span>","null","","","","","","","","","","","","","","","","","","","","","","","feedback_test"
"","","","","","psychophysics","369","922465","0.0-13.0-1.0-1.0-0.1-0.104","306","","f","","","","","","","","","","","","","key","f","16.666906976743416","640","356","f","true","img/C_ambi40.png","圆形","word_first",""
"","","","","","html-keyboard-response","370","922774","0.0-13.0-1.0-1.0-0.1-1.104","null","<span style='color:GreenYellow; font-size: 70px;'>正确! </span>","null","","","","","","","","","","","","","","","","","","","","","","","feedback_test"
"","","","","","psychophysics","371","924423","0.0-13.0-1.0-1.0-0.1-0.105","495","","j","","","","","","","","","","","","","key","j","16.66700000000039","640","356","j","true","img/S_ambi40.png","三角","word_first",""
"","","","","","html-keyboard-response","372","924725","0.0-13.0-1.0-1.0-0.1-1.105","null","<span style='color:GreenYellow; font-size: 70px;'>正确! </span>","null","","","","","","","","","","","","","","","","","","","","","","","feedback_test"
"","","","","","psychophysics","373","926588","0.0-13.0-1.0-1.0-0.1-0.106","709","","j","","","","","","","","","","","","","key","j","16.666772727272473","640","356","f","false","img/S_ambi40.png","方形","word_first",""
"","","","","","html-keyboard-response","374","926890","0.0-13.0-1.0-1.0-0.1-1.106","null","<span style='color:red; font-size: 70px;'>错误! </span>","null","","","","","","","","","","","","","","","","","","","","","","","feedback_test"
"","","","","","psychophysics","375","928632","0.0-13.0-1.0-1.0-0.1-0.107","590","","f","","","","","","","","","","","","","key","f","16.666745098038376","640","356","j","false","img/T_ambi40.png","方形","word_first",""
"","","","","","html-keyboard-response","376","928936","0.0-13.0-1.0-1.0-0.1-1.107","null","<span style='color:red; font-size: 70px;'>错误! </span>","null","","","","","","","","","","","","","","","","","","","","","","","feedback_test"
"","","","","","psychophysics","377","930723","0.0-13.0-1.0-1.0-0.1-0.108","633","","f","","","","","","","","","","","","","key","f","16.666726415093883","640","356","f","true","img/S_ambi40.png","方形","word_first",""
"","","","","","html-keyboard-response","378","931025","0.0-13.0-1.0-1.0-0.1-1.108","null","<span style='color:GreenYellow; font-size: 70px;'>正确! </span>","null","","","","","","","","","","","","","","","","","","","","","","","feedback_test"
"","","","","","psychophysics","379","932614","0.0-13.0-1.0-1.0-0.1-0.109","438","","f","","","","","","","","","","","","","key","f","16.66662765957509","640","356","f","true","img/C_ambi40.png","圆形","word_first",""
"","","","","","html-keyboard-response","380","932917","0.0-13.0-1.0-1.0-0.1-1.109","null","<span style='color:GreenYellow; font-size: 70px;'>正确! </span>","null","","","","","","","","","","","","","","","","","","","","","","","feedback_test"
"","","","","","psychophysics","381","934552","0.0-13.0-1.0-1.0-0.1-0.110","480","","j","","","","","","","","","","","","","key","j","16.66685567010367","640","356","j","true","img/C_ambi40.png","方形","word_first",""
"","","","","","html-keyboard-response","382","934856","0.0-13.0-1.0-1.0-0.1-1.110","null","<span style='color:GreenYellow; font-size: 70px;'>正确! </span>","null","","","","","","","","","","","","","","","","","","","","","","","feedback_test"
"","","","","","psychophysics","383","936680","0.0-13.0-1.0-1.0-0.1-0.111","670","","j","","","","","","","","","","","","","key","j","16.666850467289745","640","356","j","true","img/S_ambi40.png","三角","word_first",""
"","","","","","html-keyboard-response","384","936984","0.0-13.0-1.0-1.0-0.1-1.111","null","<span style='color:GreenYellow; font-size: 70px;'>正确! </span>","null","","","","","","","","","","","","","","","","","","","","","","","feedback_test"
"","","","","","psychophysics","385","938770","0.0-13.0-1.0-1.0-0.1-0.112","633","","j","","","","","","","","","","","","","key","j","16.66678301886796","640","356","j","true","img/S_ambi40.png","圆形","word_first",""
"","","","","","html-keyboard-response","386","939073","0.0-13.0-1.0-1.0-0.1-1.112","null","<span style='color:GreenYellow; font-size: 70px;'>正确! </span>","null","","","","","","","","","","","","","","","","","","","","","","","feedback_test"
"","","","","","psychophysics","387","940730","0.0-13.0-1.0-1.0-0.1-0.113","504","","f","","","","","","","","","","","","","key","f","16.666412371133944","640","356","f","true","img/T_ambi40.png","三角","word_first",""
"","","","","","html-keyboard-response","388","941033","0.0-13.0-1.0-1.0-0.1-1.113","null","<span style='color:GreenYellow; font-size: 70px;'>正确! </span>","null","","","","","","","","","","","","","","","","","","","","","","","feedback_test"
"","","","","","psychophysics","389","942602","0.0-13.0-1.0-1.0-0.1-0.114","415","","f","","","","","","","","","","","","","key","f","16.666666666666668","640","356","f","true","img/T_ambi40.png","三角","word_first",""
"","","","","","html-keyboard-response","390","942904","0.0-13.0-1.0-1.0-0.1-1.114","null","<span style='color:GreenYellow; font-size: 70px;'>正确! </span>","null","","","","","","","","","","","","","","","","","","","","","","","feedback_test"
"","","","","","psychophysics","391","944617","0.0-13.0-1.0-1.0-0.1-0.115","560","","f","","","","","","","","","","","","","key","f","16.666745098038376","640","356","f","true","img/C_ambi40.png","圆形","word_first",""
"","","","","","html-keyboard-response","392","944921","0.0-13.0-1.0-1.0-0.1-1.115","null","<span style='color:GreenYellow; font-size: 70px;'>正确! </span>","null","","","","","","","","","","","","","","","","","","","","","","","feedback_test"
"","","","","","psychophysics","393","946686","0.0-13.0-1.0-1.0-0.1-0.116","612","","f","","","","","","","","","","","","","key","f","16.66658653846109","640","356","f","true","img/S_ambi40.png","方形","word_first",""
"","","","","","html-keyboard-response","394","946990","0.0-13.0-1.0-1.0-0.1-1.116","null","<span style='color:GreenYellow; font-size: 70px;'>正确! </span>","null","","","","","","","","","","","","","","","","","","","","","","","feedback_test"
"","","","","","psychophysics","395","948656","0.0-13.0-1.0-1.0-0.1-0.117","514","","j","","","","","","","","","","","","","key","j","16.666909090908845","640","356","j","true","img/C_ambi40.png","三角","word_first",""
"","","","","","html-keyboard-response","396","948958","0.0-13.0-1.0-1.0-0.1-1.117","null","<span style='color:GreenYellow; font-size: 70px;'>正确! </span>","null","","","","","","","","","","","","","","","","","","","","","","","feedback_test"
"","","","","","psychophysics","397","950556","0.0-13.0-1.0-1.0-0.1-0.118","446","","f","","","","","","","","","","","","","key","f","16.666691489361643","640","356","j","false","img/T_ambi40.png","方形","word_first",""
"","","","","","html-keyboard-response","398","950857","0.0-13.0-1.0-1.0-0.1-1.118","null","<span style='color:red; font-size: 70px;'>错误! </span>","null","","","","","","","","","","","","","","","","","","","","","","","feedback_test"
"","","","","","psychophysics","399","952619","0.0-13.0-1.0-1.0-0.1-0.119","609","","j","","","","","","","","","","","","","key","j","16.66674285714204","640","356","j","true","img/T_ambi40.png","圆形","word_first",""
"","","","","","html-keyboard-response","400","952920","0.0-13.0-1.0-1.0-0.1-1.119","null","<span style='color:GreenYellow; font-size: 70px;'>正确! </span>","null","","","","","","","","","","","","","","","","","","","","","","","feedback_test"
"","","","","","html-keyboard-response","401","956685","0.0-13.0-1.0-1.0-1.1","3762","<style>.context{color:white; font-size: 35px; line-height:40px}</style>                            <div><p class='context'>您正确回答了87% 的试次。</p><p class='context'>您的平均反应时为562毫秒。</p><p class='context'>请按任意键进入休息</p></div>","arrowright","","","","","","","","","","","","","","","","","","","","","","",""
"","","","","","html-button-response","402","960427","0.0-13.0-1.0-1.0-2.1","3737","
                    <p>您当前还剩余2组实验</p>
                    <p>现在是休息时间，当您结束休息后，您可以点击 结束休息 按钮 继续</p>
                    <p>建议休息时间还剩余<span id=""iii"">60</span>秒</p>","0","","","","","","","","","","","","","","","","","","","","","","",""
"","","","","","psychophysics","403","962338","0.0-13.0-1.0-1.0-0.2-0.120","754","","f","","","","","","","","","","","","","key","f","16.666424778761936","640","356","f","true","img/S_ambi40.png","方形","word_first",""
"","","","","","html-keyboard-response","404","962640","0.0-13.0-1.0-1.0-0.2-1.120","null","<span style='color:GreenYellow; font-size: 70px;'>正确! </span>","null","","","","","","","","","","","","","","","","","","","","","","","feedback_test"
"","","","","","psychophysics","405","964187","0.0-13.0-1.0-1.0-0.2-0.121","394","","f","","","","","","","","","","","","","key","f","16.66654347826008","640","356","j","false","img/T_ambi40.png","方形","word_first",""
"","","","","","html-keyboard-response","406","964489","0.0-13.0-1.0-1.0-0.2-1.121","null","<span style='color:red; font-size: 70px;'>错误! </span>","null","","","","","","","","","","","","","","","","","","","","","","","feedback_test"
"","","","","","psychophysics","407","966237","0.0-13.0-1.0-1.0-0.2-0.122","595","","j","","","","","","","","","","","","","key","j","16.666679611649972","640","356","j","true","img/T_ambi40.png","圆形","word_first",""
"","","","","","html-keyboard-response","408","966541","0.0-13.0-1.0-1.0-0.2-1.122","null","<span style='color:GreenYellow; font-size: 70px;'>正确! </span>","null","","","","","","","","","","","","","","","","","","","","","","","feedback_test"
"","","","","","psychophysics","409","968351","0.0-13.0-1.0-1.0-0.2-0.123","657","","j","","","","","","","","","","","","","key","j","16.666898148148363","640","356","j","true","img/C_ambi40.png","三角","word_first",""
"","","","","","html-keyboard-response","410","968653","0.0-13.0-1.0-1.0-0.2-1.123","null","<span style='color:GreenYellow; font-size: 70px;'>正确! </span>","null","","","","","","","","","","","","","","","","","","","","","","","feedback_test"
"","","","","","psychophysics","411","970365","0.0-13.0-1.0-1.0-0.2-0.124","559","","f","","","","","","","","","","","","","key","f","16.666910891089184","640","356","f","true","img/C_ambi40.png","圆形","word_first",""
"","","","","","html-keyboard-response","412","970668","0.0-13.0-1.0-1.0-0.2-1.124","null","<span style='color:GreenYellow; font-size: 70px;'>正确! </span>","null","","","","","","","","","","","","","","","","","","","","","","","feedback_test"
"","","","","","psychophysics","413","972299","0.0-13.0-1.0-1.0-0.2-0.125","477","","j","","","","","","","","","","","","","key","j","16.66677083333343","640","356","j","true","img/S_ambi40.png","圆形","word_first",""
"","","","","","html-keyboard-response","414","972604","0.0-13.0-1.0-1.0-0.2-1.125","null","<span style='color:GreenYellow; font-size: 70px;'>正确! </span>","null","","","","","","","","","","","","","","","","","","","","","","","feedback_test"
"","","","","","psychophysics","415","974334","0.0-13.0-1.0-1.0-0.2-0.126","577","","j","","","","","","","","","","","","","key","j","16.666776699028702","640","356","j","true","img/C_ambi40.png","方形","word_first",""
"","","","","","html-keyboard-response","416","974638","0.0-13.0-1.0-1.0-0.2-1.126","null","<span style='color:GreenYellow; font-size: 70px;'>正确! </span>","null","","","","","","","","","","","","","","","","","","","","","","","feedback_test"
"","","","","","psychophysics","417","976270","0.0-13.0-1.0-1.0-0.2-0.127","479","","f","","","","","","","","","","","","","key","f","16.6667083333341","640","356","f","true","img/T_ambi40.png","三角","word_first",""
"","","","","","html-keyboard-response","418","976572","0.0-13.0-1.0-1.0-0.2-1.127","null","<span style='color:GreenYellow; font-size: 70px;'>正确! </span>","null","","","","","","","","","","","","","","","","","","","","","","","feedback_test"
"","","","","","psychophysics","419","978229","0.0-13.0-1.0-1.0-0.2-0.128","505","","f","","","","","","","","","","","","","key","f","16.66687755102092","640","356","f","true","img/S_ambi40.png","方形","word_first",""
"","","","","","html-keyboard-response","420","978532","0.0-13.0-1.0-1.0-0.2-1.128","null","<span style='color:GreenYellow; font-size: 70px;'>正确! </span>","null","","","","","","","","","","","","","","","","","","","","","","","feedback_test"
"","","","","","psychophysics","421","980154","0.0-13.0-1.0-1.0-0.2-0.129","468","","f","","","","","","","","","","","","","key","f","16.66652083333247","640","356","f","true","img/C_ambi40.png","圆形","word_first",""
"","","","","","html-keyboard-response","422","980456","0.0-13.0-1.0-1.0-0.2-1.129","null","<span style='color:GreenYellow; font-size: 70px;'>正确! </span>","null","","","","","","","","","","","","","","","","","","","","","","","feedback_test"
"","","","","","psychophysics","423","982107","0.0-13.0-1.0-1.0-0.2-0.130","499","","j","","","","","","","","","","","","","key","j","16.66643877551007","640","356","j","true","img/S_ambi40.png","三角","word_first",""
"","","","","","html-keyboard-response","424","982409","0.0-13.0-1.0-1.0-0.2-1.130","null","<span style='color:GreenYellow; font-size: 70px;'>正确! </span>","null","","","","","","","","","","","","","","","","","","","","","","","feedback_test"
"","","","","","psychophysics","425","984018","0.0-13.0-1.0-1.0-0.2-0.131","456","","f","","","","","","","","","","","","","key","f","16.66709374999967","640","356","f","true","img/T_ambi40.png","三角","word_first",""
"","","","","","html-keyboard-response","426","984319","0.0-13.0-1.0-1.0-0.2-1.131","null","<span style='color:GreenYellow; font-size: 70px;'>正确! </span>","null","","","","","","","","","","","","","","","","","","","","","","","feedback_test"
"","","","","","psychophysics","427","986012","0.0-13.0-1.0-1.0-0.2-0.132","539","","f","","","","","","","","","","","","","key","f","16.66673999999999","640","356","f","true","img/T_ambi40.png","三角","word_first",""
"","","","","","html-keyboard-response","428","986323","0.0-13.0-1.0-1.0-0.2-1.132","null","<span style='color:GreenYellow; font-size: 70px;'>正确! </span>","null","","","","","","","","","","","","","","","","","","","","","","","feedback_test"
"","","","","","psychophysics","429","987934","0.0-13.0-1.0-1.0-0.2-0.133","457","","j","","","","","","","","","","","","","key","j","16.666652631579506","640","356","j","true","img/S_ambi40.png","圆形","word_first",""
"","","","","","html-keyboard-response","430","988236","0.0-13.0-1.0-1.0-0.2-1.133","null","<span style='color:GreenYellow; font-size: 70px;'>正确! </span>","null","","","","","","","","","","","","","","","","","","","","","","","feedback_test"
"","","","","","psychophysics","431","989866","0.0-13.0-1.0-1.0-0.2-0.134","479","","f","","","","","","","","","","","","","key","f","16.666583333334227","640","356","f","true","img/C_ambi40.png","圆形","word_first",""
"","","","","","html-keyboard-response","432","990169","0.0-13.0-1.0-1.0-0.2-1.134","null","<span style='color:GreenYellow; font-size: 70px;'>正确! </span>","null","","","","","","","","","","","","","","","","","","","","","","","feedback_test"
