"success","timeout","failed_images","failed_audio","failed_video","trial_type","trial_index","time_elapsed","internal_node_id","rt","stimulus","response","value","item_width_mm","item_height_mm","item_width_px","px2mm","view_dist_mm","item_width_deg","px2deg","scale_factor","win_width_deg","win_height_deg","view_history","response_type","key_press","avg_frame_time","center_x","center_y","correct_response","correct","Image","word","condition","screen_id"
"true","false","[]","[]","[]","preload","0","722","0.0-0.0","","","","","","","","","","","","","","","","","","","","","","","","","",""
"","","","","","html-keyboard-response","1","358604","0.0-1.0","357880","
   <p>您好，欢迎参加本次实验。</p>
   <p>为充分保障您的权利，请确保您已经知晓并同意《参与实验同意书》以及《数据公开知情同意书》。</p>
   <p>如果您未见过上述内容，请咨询实验员。</p>
   <p>如果您选择继续实验，则表示您已经清楚两份知情同意书的内容并同意。</p>
   <p> <div style = ""color: green""><按任意键至下页></div> </p>
   "," ","","","","","","","","","","","","","","","","","","","","","","",""
"","","","","","html-keyboard-response","2","360361","0.0-2.0","1756","
   <p>本实验首先需要您填写一些基本个人信息。</p>
   <p> <div style = ""color: green""><按任意键至下页></div></p>
   "," ","","","","","","","","","","","","","","","","","","","","","","",""
"","","","","","call-function","3","360363","0.0-3.0-0.0","","","","","","","","","","","","","","","","","","","","","","","","","",""
"","","","","","survey-html-form","4","371600","0.0-3.0-1.0","11234","","{""Q0"":""34 ""}","","","","","","","","","","","","","","","","","","","","","","",""
"","","","","","html-button-response","5","373042","0.0-3.0-2.0","1439","<p style = 'color : white'>您的性别</p>","0","","","","","","","","","","","","","","","","","","","","","","",""
"","","","","","survey-html-form","6","384200","0.0-3.0-3.0","11154","","{""Q0"":""2000""}","","","","","","","","","","","","","","","","","","","","","","",""
"","","","","","survey-html-form","7","389311","0.0-3.0-4.0","5107","","{""Q0"":""5""}","","","","","","","","","","","","","","","","","","","","","","",""
"","","","","","virtual-chinrest","8","465975","0.0-4.0","76661","","","","85.6","53.98","437.8716131647998","5.1186380705607375","558.95","8.757432263295994","50","0.9865905599078196","28.8","15.28","","","","","","","","","","","",""
"true","","","","","fullscreen","9","476068","0.0-5.0","","","","","","","","","","","","","","","","","","","","","","","","","",""
"","","","","","instructions","10","520737","0.0-6.0","44667","","","","","","","","","","","","","","[{""page_index"":0,""viewing_time"":2891},{""page_index"":1,""viewing_time"":36692},{""page_index"":2,""viewing_time"":3397},{""page_index"":3,""viewing_time"":1687}]","","","","","","","","","","",""
"","","","","","psychophysics","11","523406","0.0-7.0-0.0-0.0","null","","null","","","","","","","","","","","","","key","null","16.666000000000018","720","446","f","false","img/S_ambi40.png","方形","prac_image_first",""
"","","","","","html-keyboard-response","12","523713","0.0-7.0-0.0-1.0","null","<span class='add_' style='color:yellow; font-size: 70px;'> 太慢! </span>","null","","","","","","","","","","","","","","","","","","","","","","","feedback_test"
"","","","","","psychophysics","13","525264","0.0-7.0-0.0-0.1","391","","j","","","","","","","","","","","","","key","j","16.666000000001237","720","446","f","false","img/T_ambi40.png","三角","prac_image_first",""
"","","","","","html-keyboard-response","14","525569","0.0-7.0-0.0-1.1","null","<span style='color:red; font-size: 70px;'>错误! </span>","null","","","","","","","","","","","","","","","","","","","","","","","feedback_test"
"","","","","","psychophysics","15","527280","0.0-7.0-0.0-0.2","559","","f","","","","","","","","","","","","","key","f","16.66599999999915","720","446","j","false","img/T_ambi40.png","圆形","prac_image_first",""
"","","","","","html-keyboard-response","16","527586","0.0-7.0-0.0-1.2","null","<span style='color:red; font-size: 70px;'>错误! </span>","null","","","","","","","","","","","","","","","","","","","","","","","feedback_test"
"","","","","","psychophysics","17","530239","0.0-7.0-0.0-0.3","null","","null","","","","","","","","","","","","","key","null","16.66599999999982","720","446","j","false","img/C_ambi40.png","方形","prac_image_first",""
"","","","","","html-keyboard-response","18","530545","0.0-7.0-0.0-1.3","null","<span class='add_' style='color:yellow; font-size: 70px;'> 太慢! </span>","null","","","","","","","","","","","","","","","","","","","","","","","feedback_test"
"","","","","","psychophysics","19","532315","0.0-7.0-0.0-0.4","615","","f","","","","","","","","","","","","","key","f","16.666000000000487","720","446","f","true","img/S_ambi40.png","方形","prac_image_first",""
"","","","","","html-keyboard-response","20","532618","0.0-7.0-0.0-1.4","null","<span style='color:GreenYellow; font-size: 70px;'>正确! </span>","null","","","","","","","","","","","","","","","","","","","","","","","feedback_test"
"","","","","","psychophysics","21","535273","0.0-7.0-0.0-0.5","null","","null","","","","","","","","","","","","","key","null","16.669316455696066","720","446","j","false","img/C_ambi40.png","三角","prac_image_first",""
"","","","","","html-keyboard-response","22","535578","0.0-7.0-0.0-1.5","null","<span class='add_' style='color:yellow; font-size: 70px;'> 太慢! </span>","null","","","","","","","","","","","","","","","","","","","","","","","feedback_test"
"","","","","","psychophysics","23","537725","0.0-7.0-0.0-0.6","989","","f","","","","","","","","","","","","","key","f","16.666000000000167","720","446","f","true","img/T_ambi40.png","三角","prac_image_first",""
"","","","","","html-keyboard-response","24","538034","0.0-7.0-0.0-1.6","null","<span style='color:GreenYellow; font-size: 70px;'>正确! </span>","null","","","","","","","","","","","","","","","","","","","","","","","feedback_test"
"","","","","","psychophysics","25","540697","0.0-7.0-0.0-0.7","null","","null","","","","","","","","","","","","","key","null","16.66600000000055","720","446","j","false","img/S_ambi40.png","圆形","prac_image_first",""
"","","","","","html-keyboard-response","26","541001","0.0-7.0-0.0-1.7","null","<span class='add_' style='color:yellow; font-size: 70px;'> 太慢! </span>","null","","","","","","","","","","","","","","","","","","","","","","","feedback_test"
"","","","","","psychophysics","27","543057","0.0-7.0-0.0-0.8","902","","j","","","","","","","","","","","","","key","j","16.665999999999567","720","446","j","true","img/S_ambi40.png","三角","prac_image_first",""
"","","","","","html-keyboard-response","28","543360","0.0-7.0-0.0-1.8","null","<span style='color:GreenYellow; font-size: 70px;'>正确! </span>","null","","","","","","","","","","","","","","","","","","","","","","","feedback_test"
"","","","","","psychophysics","29","545313","0.0-7.0-0.0-0.9","801","","f","","","","","","","","","","","","","key","f","16.666000000000448","720","446","f","true","img/C_ambi40.png","圆形","prac_image_first",""
"","","","","","html-keyboard-response","30","545619","0.0-7.0-0.0-1.9","null","<span style='color:GreenYellow; font-size: 70px;'>正确! </span>","null","","","","","","","","","","","","","","","","","","","","","","","feedback_test"
"","","","","","psychophysics","31","548006","0.0-7.0-0.0-0.10","1234","","f","","","","","","","","","","","","","key","f","16.666000000000086","720","446","j","false","img/T_ambi40.png","方形","prac_image_first",""
"","","","","","html-keyboard-response","32","548312","0.0-7.0-0.0-1.10","null","<span style='color:red; font-size: 70px;'>错误! </span>","null","","","","","","","","","","","","","","","","","","","","","","","feedback_test"
"","","","","","psychophysics","33","550568","0.0-7.0-0.0-0.11","1102","","j","","","","","","","","","","","","","key","j","16.66600000000048","720","446","f","false","img/C_ambi40.png","圆形","prac_image_first",""
"","","","","","html-keyboard-response","34","550873","0.0-7.0-0.0-1.11","null","<span style='color:red; font-size: 70px;'>错误! </span>","null","","","","","","","","","","","","","","","","","","","","","","","feedback_test"
"","","","","","psychophysics","35","553244","0.0-7.0-0.0-0.12","1211","","f","","","","","","","","","","","","","key","f","16.66599999999971","720","446","j","false","img/C_ambi40.png","方形","prac_image_first",""
"","","","","","html-keyboard-response","36","553554","0.0-7.0-0.0-1.12","null","<span style='color:red; font-size: 70px;'>错误! </span>","null","","","","","","","","","","","","","","","","","","","","","","","feedback_test"
"","","","","","psychophysics","37","555760","0.0-7.0-0.0-0.13","1054","","f","","","","","","","","","","","","","key","f","16.669992366411993","720","446","f","true","img/T_ambi40.png","三角","prac_image_first",""
"","","","","","html-keyboard-response","38","556067","0.0-7.0-0.0-1.13","null","<span style='color:GreenYellow; font-size: 70px;'>正确! </span>","null","","","","","","","","","","","","","","","","","","","","","","","feedback_test"
"","","","","","psychophysics","39","558046","0.0-7.0-0.0-0.14","823","","f","","","","","","","","","","","","","key","f","16.665999999999904","720","446","f","true","img/S_ambi40.png","方形","prac_image_first",""
"","","","","","html-keyboard-response","40","558357","0.0-7.0-0.0-1.14","null","<span style='color:GreenYellow; font-size: 70px;'>正确! </span>","null","","","","","","","","","","","","","","","","","","","","","","","feedback_test"
"","","","","","psychophysics","41","560614","0.0-7.0-0.0-0.15","1106","","j","","","","","","","","","","","","","key","j","16.66599999999961","720","446","j","true","img/T_ambi40.png","方形","prac_image_first",""
"","","","","","html-keyboard-response","42","560920","0.0-7.0-0.0-1.15","null","<span style='color:GreenYellow; font-size: 70px;'>正确! </span>","null","","","","","","","","","","","","","","","","","","","","","","","feedback_test"
"","","","","","psychophysics","43","562821","0.0-7.0-0.0-0.16","749","","j","","","","","","","","","","","","","key","j","16.665999999999517","720","446","j","true","img/S_ambi40.png","圆形","prac_image_first",""
"","","","","","html-keyboard-response","44","563129","0.0-7.0-0.0-1.16","null","<span style='color:GreenYellow; font-size: 70px;'>正确! </span>","null","","","","","","","","","","","","","","","","","","","","","","","feedback_test"
"","","","","","psychophysics","45","565028","0.0-7.0-0.0-0.17","744","","f","","","","","","","","","","","","","key","f","16.66599999999924","720","446","f","true","img/C_ambi40.png","圆形","prac_image_first",""
"","","","","","html-keyboard-response","46","565337","0.0-7.0-0.0-1.17","null","<span style='color:GreenYellow; font-size: 70px;'>正确! </span>","null","","","","","","","","","","","","","","","","","","","","","","","feedback_test"
"","","","","","psychophysics","47","567231","0.0-7.0-0.0-0.18","743","","j","","","","","","","","","","","","","key","j","16.66600000000027","720","446","j","true","img/S_ambi40.png","三角","prac_image_first",""
"","","","","","html-keyboard-response","48","567537","0.0-7.0-0.0-1.18","null","<span style='color:GreenYellow; font-size: 70px;'>正确! </span>","null","","","","","","","","","","","","","","","","","","","","","","","feedback_test"
"","","","","","psychophysics","49","569439","0.0-7.0-0.0-0.19","750","","f","","","","","","","","","","","","","key","f","16.665999999999993","720","446","j","false","img/T_ambi40.png","圆形","prac_image_first",""
"","","","","","html-keyboard-response","50","569749","0.0-7.0-0.0-1.19","null","<span style='color:red; font-size: 70px;'>错误! </span>","null","","","","","","","","","","","","","","","","","","","","","","","feedback_test"
"","","","","","psychophysics","51","571902","0.0-7.0-0.0-0.20","997","","j","","","","","","","","","","","","","key","j","16.665999999999258","720","446","f","false","img/T_ambi40.png","三角","prac_image_first",""
"","","","","","html-keyboard-response","52","572209","0.0-7.0-0.0-1.20","null","<span style='color:red; font-size: 70px;'>错误! </span>","null","","","","","","","","","","","","","","","","","","","","","","","feedback_test"
"","","","","","psychophysics","53","574075","0.0-7.0-0.0-0.21","704","","f","","","","","","","","","","","","","key","f","16.665999999999798","720","446","f","true","img/S_ambi40.png","方形","prac_image_first",""
"","","","","","html-keyboard-response","54","574376","0.0-7.0-0.0-1.21","null","<span style='color:GreenYellow; font-size: 70px;'>正确! </span>","null","","","","","","","","","","","","","","","","","","","","","","","feedback_test"
"","","","","","psychophysics","55","576429","0.0-7.0-0.0-0.22","901","","j","","","","","","","","","","","","","key","j","16.67030327868854","720","446","j","true","img/C_ambi40.png","三角","prac_image_first",""
"","","","","","html-keyboard-response","56","576741","0.0-7.0-0.0-1.22","null","<span style='color:GreenYellow; font-size: 70px;'>正确! </span>","null","","","","","","","","","","","","","","","","","","","","","","","feedback_test"
"","","","","","psychophysics","57","578825","0.0-7.0-0.0-0.23","926","","f","","","","","","","","","","","","","key","f","16.66599999999932","720","446","f","true","img/C_ambi40.png","圆形","prac_image_first",""
"","","","","","html-keyboard-response","58","579129","0.0-7.0-0.0-1.23","null","<span style='color:GreenYellow; font-size: 70px;'>正确! </span>","null","","","","","","","","","","","","","","","","","","","","","","","feedback_test"
"","","","","","html-keyboard-response","59","585615","0.0-7.0-1.0-0.0","6483","<style>.context{color:white; font-size: 35px; line-height:40px}</style>                            <div><p class='context'>您正确回答了54% 的试次。</p><p class='context'>您的平均反应时为851毫秒。</p>"," ","","","","","","","","","","","","","","","","","","","","","","",""
"","","","","","instructions","60","595937","0.0-7.0-1.0-1.0","10318","","","","","","","","","","","","","","[{""page_index"":0,""viewing_time"":1375},{""page_index"":1,""viewing_time"":5621},{""page_index"":2,""viewing_time"":3322}]","","","","","","","","","","",""
"","","","","","psychophysics","61","598598","0.0-7.1-0.1-0.24","null","","null","","","","","","","","","","","","","key","null","16.667708860759628","720","446","f","false","img/C_ambi40.png","圆形","prac_image_first",""
"","","","","","html-keyboard-response","62","598905","0.0-7.1-0.1-1.24","null","<span class='add_' style='color:yellow; font-size: 70px;'> 太慢! </span>","null","","","","","","","","","","","","","","","","","","","","","","","feedback_test"
"","","","","","psychophysics","63","600700","0.0-7.1-0.1-0.25","632","","f","","","","","","","","","","","","","key","f","16.666000000000185","720","446","f","true","img/S_ambi40.png","方形","prac_image_first",""
"","","","","","html-keyboard-response","64","601009","0.0-7.1-0.1-1.25","null","<span style='color:GreenYellow; font-size: 70px;'>正确! </span>","null","","","","","","","","","","","","","","","","","","","","","","","feedback_test"
"","","","","","psychophysics","65","603025","0.0-7.1-0.1-0.26","862","","j","","","","","","","","","","","","","key","j","16.66599999999938","720","446","j","true","img/T_ambi40.png","方形","prac_image_first",""
"","","","","","html-keyboard-response","66","603332","0.0-7.1-0.1-1.26","null","<span style='color:GreenYellow; font-size: 70px;'>正确! </span>","null","","","","","","","","","","","","","","","","","","","","","","","feedback_test"
"","","","","","psychophysics","67","605184","0.0-7.1-0.1-0.27","695","","f","","","","","","","","","","","","","key","f","16.666000000000086","720","446","f","true","img/T_ambi40.png","三角","prac_image_first",""
"","","","","","html-keyboard-response","68","605489","0.0-7.1-0.1-1.27","null","<span style='color:GreenYellow; font-size: 70px;'>正确! </span>","null","","","","","","","","","","","","","","","","","","","","","","","feedback_test"
"","","","","","psychophysics","69","607443","0.0-7.1-0.1-0.28","794","","j","","","","","","","","","","","","","key","j","16.665999999999446","720","446","j","true","img/S_ambi40.png","圆形","prac_image_first",""
"","","","","","html-keyboard-response","70","607744","0.0-7.1-0.1-1.28","null","<span style='color:GreenYellow; font-size: 70px;'>正确! </span>","null","","","","","","","","","","","","","","","","","","","","","","","feedback_test"
"","","","","","psychophysics","71","609799","0.0-7.1-0.1-0.29","902","","j","","","","","","","","","","","","","key","j","16.66600000000078","720","446","j","true","img/C_ambi40.png","方形","prac_image_first",""
"","","","","","html-keyboard-response","72","610104","0.0-7.1-0.1-1.29","null","<span style='color:GreenYellow; font-size: 70px;'>正确! </span>","null","","","","","","","","","","","","","","","","","","","","","","","feedback_test"
"","","","","","psychophysics","73","612210","0.0-7.1-0.1-0.30","941","","j","","","","","","","","","","","","","key","j","16.666","720","446","j","true","img/C_ambi40.png","三角","prac_image_first",""
"","","","","","html-keyboard-response","74","612513","0.0-7.1-0.1-1.30","null","<span style='color:GreenYellow; font-size: 70px;'>正确! </span>","null","","","","","","","","","","","","","","","","","","","","","","","feedback_test"
"","","","","","psychophysics","75","614484","0.0-7.1-0.1-0.31","816","","j","","","","","","","","","","","","","key","j","16.666000000000174","720","446","j","true","img/S_ambi40.png","三角","prac_image_first",""
"","","","","","html-keyboard-response","76","614786","0.0-7.1-0.1-1.31","null","<span style='color:GreenYellow; font-size: 70px;'>正确! </span>","null","","","","","","","","","","","","","","","","","","","","","","","feedback_test"
"","","","","","psychophysics","77","616581","0.0-7.1-0.1-0.32","642","","f","","","","","","","","","","","","","key","f","16.670943396227468","720","446","f","true","img/C_ambi40.png","圆形","prac_image_first",""
"","","","","","html-keyboard-response","78","616892","0.0-7.1-0.1-1.32","null","<span style='color:GreenYellow; font-size: 70px;'>正确! </span>","null","","","","","","","","","","","","","","","","","","","","","","","feedback_test"
"","","","","","psychophysics","79","618835","0.0-7.1-0.1-0.33","783","","f","","","","","","","","","","","","","key","f","16.665999999999716","720","446","f","true","img/T_ambi40.png","三角","prac_image_first",""
"","","","","","html-keyboard-response","80","619137","0.0-7.1-0.1-1.33","null","<span style='color:GreenYellow; font-size: 70px;'>正确! </span>","null","","","","","","","","","","","","","","","","","","","","","","","feedback_test"
"","","","","","psychophysics","81","620995","0.0-7.1-0.1-0.34","707","","j","","","","","","","","","","","","","key","j","16.666000000000086","720","446","j","true","img/T_ambi40.png","圆形","prac_image_first",""
"","","","","","html-keyboard-response","82","621297","0.0-7.1-0.1-1.34","null","<span style='color:GreenYellow; font-size: 70px;'>正确! </span>","null","","","","","","","","","","","","","","","","","","","","","","","feedback_test"
"","","","","","psychophysics","83","623048","0.0-7.1-0.1-0.35","597","","f","","","","","","","","","","","","","key","f","16.665999999999677","720","446","f","true","img/S_ambi40.png","方形","prac_image_first",""
"","","","","","html-keyboard-response","84","623354","0.0-7.1-0.1-1.35","null","<span style='color:GreenYellow; font-size: 70px;'>正确! </span>","null","","","","","","","","","","","","","","","","","","","","","","","feedback_test"
"","","","","","psychophysics","85","625205","0.0-7.1-0.1-0.36","698","","f","","","","","","","","","","","","","key","f","16.666000000000086","720","446","f","true","img/C_ambi40.png","圆形","prac_image_first",""
"","","","","","html-keyboard-response","86","625516","0.0-7.1-0.1-1.36","null","<span style='color:GreenYellow; font-size: 70px;'>正确! </span>","null","","","","","","","","","","","","","","","","","","","","","","","feedback_test"
"","","","","","psychophysics","87","627367","0.0-7.1-0.1-0.37","697","","f","","","","","","","","","","","","","key","f","16.666000000000086","720","446","f","true","img/C_ambi40.png","圆形","prac_image_first",""
"","","","","","html-keyboard-response","88","627673","0.0-7.1-0.1-1.37","null","<span style='color:GreenYellow; font-size: 70px;'>正确! </span>","null","","","","","","","","","","","","","","","","","","","","","","","feedback_test"
"","","","","","psychophysics","89","629421","0.0-7.1-0.1-0.38","592","","f","","","","","","","","","","","","","key","f","16.665999999999983","720","446","f","true","img/T_ambi40.png","三角","prac_image_first",""
"","","","","","html-keyboard-response","90","629729","0.0-7.1-0.1-1.38","null","<span style='color:GreenYellow; font-size: 70px;'>正确! </span>","null","","","","","","","","","","","","","","","","","","","","","","","feedback_test"
"","","","","","psychophysics","91","631763","0.0-7.1-0.1-0.39","879","","j","","","","","","","","","","","","","key","j","16.666000000000086","720","446","j","true","img/T_ambi40.png","方形","prac_image_first",""
"","","","","","html-keyboard-response","92","632065","0.0-7.1-0.1-1.39","null","<span style='color:GreenYellow; font-size: 70px;'>正确! </span>","null","","","","","","","","","","","","","","","","","","","","","","","feedback_test"
"","","","","","psychophysics","93","634014","0.0-7.1-0.1-0.40","798","","f","","","","","","","","","","","","","key","f","16.666000000000448","720","446","f","true","img/S_ambi40.png","方形","prac_image_first",""
"","","","","","html-keyboard-response","94","634323","0.0-7.1-0.1-1.40","null","<span style='color:GreenYellow; font-size: 70px;'>正确! </span>","null","","","","","","","","","","","","","","","","","","","","","","","feedback_test"
"","","","","","psychophysics","95","636134","0.0-7.1-0.1-0.41","653","","j","","","","","","","","","","","","","key","j","16.670887850467594","720","446","j","true","img/S_ambi40.png","圆形","prac_image_first",""
"","","","","","html-keyboard-response","96","636441","0.0-7.1-0.1-1.41","null","<span style='color:GreenYellow; font-size: 70px;'>正确! </span>","null","","","","","","","","","","","","","","","","","","","","","","","feedback_test"
"","","","","","psychophysics","97","638454","0.0-7.1-0.1-0.42","862","","j","","","","","","","","","","","","","key","j","16.66599999999964","720","446","j","true","img/C_ambi40.png","三角","prac_image_first",""
"","","","","","html-keyboard-response","98","638764","0.0-7.1-0.1-1.42","null","<span style='color:GreenYellow; font-size: 70px;'>正确! </span>","null","","","","","","","","","","","","","","","","","","","","","","","feedback_test"
"","","","","","psychophysics","99","640850","0.0-7.1-0.1-0.43","929","","j","","","","","","","","","","","","","key","j","16.666000000000256","720","446","j","true","img/C_ambi40.png","方形","prac_image_first",""
"","","","","","html-keyboard-response","100","641155","0.0-7.1-0.1-1.43","null","<span style='color:GreenYellow; font-size: 70px;'>正确! </span>","null","","","","","","","","","","","","","","","","","","","","","","","feedback_test"
"","","","","","psychophysics","101","643078","0.0-7.1-0.1-0.44","771","","j","","","","","","","","","","","","","key","j","16.665999999999993","720","446","j","true","img/S_ambi40.png","三角","prac_image_first",""
"","","","","","html-keyboard-response","102","643385","0.0-7.1-0.1-1.44","null","<span style='color:GreenYellow; font-size: 70px;'>正确! </span>","null","","","","","","","","","","","","","","","","","","","","","","","feedback_test"
"","","","","","psychophysics","103","645163","0.0-7.1-0.1-0.45","626","","f","","","","","","","","","","","","","key","f","16.666000000000185","720","446","f","true","img/T_ambi40.png","三角","prac_image_first",""
"","","","","","html-keyboard-response","104","645468","0.0-7.1-0.1-1.45","null","<span style='color:GreenYellow; font-size: 70px;'>正确! </span>","null","","","","","","","","","","","","","","","","","","","","","","","feedback_test"
"","","","","","psychophysics","105","647336","0.0-7.1-0.1-0.46","716","","f","","","","","","","","","","","","","key","f","16.665999999999798","720","446","f","true","img/S_ambi40.png","方形","prac_image_first",""
"","","","","","html-keyboard-response","106","647641","0.0-7.1-0.1-1.46","null","<span style='color:GreenYellow; font-size: 70px;'>正确! </span>","null","","","","","","","","","","","","","","","","","","","","","","","feedback_test"
"","","","","","psychophysics","107","649408","0.0-7.1-0.1-0.47","616","","j","","","","","","","","","","","","","key","j","16.666000000000487","720","446","j","true","img/T_ambi40.png","圆形","prac_image_first",""
"","","","","","html-keyboard-response","108","649714","0.0-7.1-0.1-1.47","null","<span style='color:GreenYellow; font-size: 70px;'>正确! </span>","null","","","","","","","","","","","","","","","","","","","","","","","feedback_test"
"","","","","","html-keyboard-response","109","655942","0.0-8.0","6225","<style>.context{color:white; font-size: 35px; line-height:40px}</style>                            <div><p class='context'>您正确回答了96% 的试次。</p><p class='context'>您的平均反应时为748毫秒。</p><p class='context'>恭喜您完成这一阶段的练习。按任意键进入<span style='color: yellow;'>先文字后图形条件</span>的练习。</p></div>"," ","","","","","","","","","","","","","","","","","","","","","","",""
"","","","","","psychophysics","110","658178","0.0-9.0-0.0-0.0","1079","","f","","","","","","","","","","","","","key","f","16.669939849623724","720","446","f","true","img/C_ambi40.png","圆形","prac_word_first",""
"","","","","","html-keyboard-response","111","658483","0.0-9.0-0.0-1.0","null","<span style='color:GreenYellow; font-size: 70px;'>正确! </span>","null","","","","","","","","","","","","","","","","","","","","","","","feedback_test"
"","","","","","psychophysics","112","660251","0.0-9.0-0.0-0.1","613","","f","","","","","","","","","","","","","key","f","16.666000000000487","720","446","f","true","img/T_ambi40.png","三角","prac_word_first",""
"","","","","","html-keyboard-response","113","660553","0.0-9.0-0.0-1.1","null","<span style='color:GreenYellow; font-size: 70px;'>正确! </span>","null","","","","","","","","","","","","","","","","","","","","","","","feedback_test"
"","","","","","psychophysics","114","662440","0.0-9.0-0.0-0.2","736","","j","","","","","","","","","","","","","key","j","16.666000000000558","720","446","j","true","img/T_ambi40.png","方形","prac_word_first",""
"","","","","","html-keyboard-response","115","662746","0.0-9.0-0.0-1.2","null","<span style='color:GreenYellow; font-size: 70px;'>正确! </span>","null","","","","","","","","","","","","","","","","","","","","","","","feedback_test"
"","","","","","psychophysics","116","664744","0.0-9.0-0.0-0.3","840","","j","","","","","","","","","","","","","key","j","16.66599999999964","720","446","j","true","img/C_ambi40.png","三角","prac_word_first",""
"","","","","","html-keyboard-response","117","665049","0.0-9.0-0.0-1.3","null","<span style='color:GreenYellow; font-size: 70px;'>正确! </span>","null","","","","","","","","","","","","","","","","","","","","","","","feedback_test"
"","","","","","psychophysics","118","666904","0.0-9.0-0.0-0.4","701","","f","","","","","","","","","","","","","key","f","16.665999999999798","720","446","f","true","img/C_ambi40.png","圆形","prac_word_first",""
"","","","","","html-keyboard-response","119","667211","0.0-9.0-0.0-1.4","null","<span style='color:GreenYellow; font-size: 70px;'>正确! </span>","null","","","","","","","","","","","","","","","","","","","","","","","feedback_test"
"","","","","","psychophysics","120","669134","0.0-9.0-0.0-0.5","764","","f","","","","","","","","","","","","","key","f","16.665999999999993","720","446","j","false","img/C_ambi40.png","方形","prac_word_first",""
"","","","","","html-keyboard-response","121","669441","0.0-9.0-0.0-1.5","null","<span style='color:red; font-size: 70px;'>错误! </span>","null","","","","","","","","","","","","","","","","","","","","","","","feedback_test"
"","","","","","psychophysics","122","671302","0.0-9.0-0.0-0.6","706","","j","","","","","","","","","","","","","key","j","16.666000000000086","720","446","j","true","img/S_ambi40.png","圆形","prac_word_first",""
"","","","","","html-keyboard-response","123","671609","0.0-9.0-0.0-1.6","null","<span style='color:GreenYellow; font-size: 70px;'>正确! </span>","null","","","","","","","","","","","","","","","","","","","","","","","feedback_test"
"","","","","","psychophysics","124","673391","0.0-9.0-0.0-0.7","630","","f","","","","","","","","","","","","","key","f","16.666000000000185","720","446","f","true","img/S_ambi40.png","方形","prac_word_first",""
"","","","","","html-keyboard-response","125","673700","0.0-9.0-0.0-1.7","null","<span style='color:GreenYellow; font-size: 70px;'>正确! </span>","null","","","","","","","","","","","","","","","","","","","","","","","feedback_test"
"","","","","","psychophysics","126","675561","0.0-9.0-0.0-0.8","707","","f","","","","","","","","","","","","","key","f","16.665999999999798","720","446","f","true","img/S_ambi40.png","方形","prac_word_first",""
"","","","","","html-keyboard-response","127","675874","0.0-9.0-0.0-1.8","null","<span style='color:GreenYellow; font-size: 70px;'>正确! </span>","null","","","","","","","","","","","","","","","","","","","","","","","feedback_test"
"","","","","","psychophysics","128","677593","0.0-9.0-0.0-0.9","560","","j","","","","","","","","","","","","","key","j","16.671137254902014","720","446","j","true","img/T_ambi40.png","圆形","prac_word_first",""
"","","","","","html-keyboard-response","129","677897","0.0-9.0-0.0-1.9","null","<span style='color:GreenYellow; font-size: 70px;'>正确! </span>","null","","","","","","","","","","","","","","","","","","","","","","","feedback_test"
"","","","","","psychophysics","130","679903","0.0-9.0-0.0-0.10","851","","j","","","","","","","","","","","","","key","j","16.66599999999964","720","446","j","true","img/S_ambi40.png","三角","prac_word_first",""
"","","","","","html-keyboard-response","131","680211","0.0-9.0-0.0-1.10","null","<span style='color:GreenYellow; font-size: 70px;'>正确! </span>","null","","","","","","","","","","","","","","","","","","","","","","","feedback_test"
"","","","","","psychophysics","132","682091","0.0-9.0-0.0-0.11","720","","f","","","","","","","","","","","","","key","f","16.666000000000558","720","446","f","true","img/T_ambi40.png","三角","prac_word_first",""
"","","","","","html-keyboard-response","133","682393","0.0-9.0-0.0-1.11","null","<span style='color:GreenYellow; font-size: 70px;'>正确! </span>","null","","","","","","","","","","","","","","","","","","","","","","","feedback_test"
"","","","","","psychophysics","134","684249","0.0-9.0-0.0-0.12","696","","j","","","","","","","","","","","","","key","j","16.666000000000086","720","446","j","true","img/S_ambi40.png","圆形","prac_word_first",""
"","","","","","html-keyboard-response","135","684557","0.0-9.0-0.0-1.12","null","<span style='color:GreenYellow; font-size: 70px;'>正确! </span>","null","","","","","","","","","","","","","","","","","","","","","","","feedback_test"
"","","","","","psychophysics","136","686588","0.0-9.0-0.0-0.13","872","","f","","","","","","","","","","","","","key","f","16.666000000000086","720","446","f","true","img/C_ambi40.png","圆形","prac_word_first",""
"","","","","","html-keyboard-response","137","686901","0.0-9.0-0.0-1.13","null","<span style='color:GreenYellow; font-size: 70px;'>正确! </span>","null","","","","","","","","","","","","","","","","","","","","","","","feedback_test"
"","","","","","psychophysics","138","688746","0.0-9.0-0.0-0.14","691","","f","","","","","","","","","","","","","key","f","16.666000000000086","720","446","f","true","img/T_ambi40.png","三角","prac_word_first",""
"","","","","","html-keyboard-response","139","689054","0.0-9.0-0.0-1.14","null","<span style='color:GreenYellow; font-size: 70px;'>正确! </span>","null","","","","","","","","","","","","","","","","","","","","","","","feedback_test"
"","","","","","psychophysics","140","691070","0.0-9.0-0.0-0.15","859","","f","","","","","","","","","","","","","key","f","16.66599999999938","720","446","f","true","img/C_ambi40.png","圆形","prac_word_first",""
"","","","","","html-keyboard-response","141","691379","0.0-9.0-0.0-1.15","null","<span style='color:GreenYellow; font-size: 70px;'>正确! </span>","null","","","","","","","","","","","","","","","","","","","","","","","feedback_test"
"","","","","","psychophysics","142","693525","0.0-9.0-0.0-0.16","987","","j","","","","","","","","","","","","","key","j","16.665999999999258","720","446","j","true","img/T_ambi40.png","方形","prac_word_first",""
"","","","","","html-keyboard-response","143","693836","0.0-9.0-0.0-1.16","null","<span style='color:GreenYellow; font-size: 70px;'>正确! </span>","null","","","","","","","","","","","","","","","","","","","","","","","feedback_test"
"","","","","","psychophysics","144","695790","0.0-9.0-0.0-0.17","802","","j","","","","","","","","","","","","","key","j","16.665999999999446","720","446","j","true","img/C_ambi40.png","三角","prac_word_first",""
"","","","","","html-keyboard-response","145","696101","0.0-9.0-0.0-1.17","null","<span style='color:GreenYellow; font-size: 70px;'>正确! </span>","null","","","","","","","","","","","","","","","","","","","","","","","feedback_test"
"","","","","","psychophysics","146","697900","0.0-9.0-0.0-0.18","645","","f","","","","","","","","","","","","","key","f","16.670906542055093","720","446","f","true","img/T_ambi40.png","三角","prac_word_first",""
"","","","","","html-keyboard-response","147","698211","0.0-9.0-0.0-1.18","null","<span style='color:GreenYellow; font-size: 70px;'>正确! </span>","null","","","","","","","","","","","","","","","","","","","","","","","feedback_test"
"","","","","","psychophysics","148","700056","0.0-9.0-0.0-0.19","685","","f","","","","","","","","","","","","","key","f","16.666000000000086","720","446","f","true","img/S_ambi40.png","方形","prac_word_first",""
"","","","","","html-keyboard-response","149","700363","0.0-9.0-0.0-1.19","null","<span style='color:GreenYellow; font-size: 70px;'>正确! </span>","null","","","","","","","","","","","","","","","","","","","","","","","feedback_test"
"","","","","","psychophysics","150","702151","0.0-9.0-0.0-0.20","630","","j","","","","","","","","","","","","","key","j","16.666000000000185","720","446","j","true","img/T_ambi40.png","圆形","prac_word_first",""
"","","","","","html-keyboard-response","151","702461","0.0-9.0-0.0-1.20","null","<span style='color:GreenYellow; font-size: 70px;'>正确! </span>","null","","","","","","","","","","","","","","","","","","","","","","","feedback_test"
"","","","","","psychophysics","152","704193","0.0-9.0-0.0-0.21","576","","f","","","","","","","","","","","","","key","f","16.665999999999983","720","446","f","true","img/S_ambi40.png","方形","prac_word_first",""
"","","","","","html-keyboard-response","153","704498","0.0-9.0-0.0-1.21","null","<span style='color:GreenYellow; font-size: 70px;'>正确! </span>","null","","","","","","","","","","","","","","","","","","","","","","","feedback_test"
"","","","","","psychophysics","154","706268","0.0-9.0-0.0-0.22","614","","j","","","","","","","","","","","","","key","j","16.666000000000487","720","446","j","true","img/S_ambi40.png","三角","prac_word_first",""
"","","","","","html-keyboard-response","155","706579","0.0-9.0-0.0-1.22","null","<span style='color:GreenYellow; font-size: 70px;'>正确! </span>","null","","","","","","","","","","","","","","","","","","","","","","","feedback_test"
"","","","","","psychophysics","156","708509","0.0-9.0-0.0-0.23","771","","j","","","","","","","","","","","","","key","j","16.66600000000073","720","446","j","true","img/C_ambi40.png","方形","prac_word_first",""
"","","","","","html-keyboard-response","157","708817","0.0-9.0-0.0-1.23","null","<span style='color:GreenYellow; font-size: 70px;'>正确! </span>","null","","","","","","","","","","","","","","","","","","","","","","","feedback_test"
"","","","","","html-keyboard-response","158","710446","0.0-10.0","1626","<style>.context{color:white; font-size: 35px; line-height:40px}</style>                            <div><p class='context'>您正确回答了96% 的试次。</p><p class='context'>您的平均反应时为738毫秒。</p><p class='context'>恭喜您完成练习。按任意键进入<span style='color: yellow;'>图形和文字同时呈现条件</span>的练习。</p></div>"," ","","","","","","","","","","","","","","","","","","","","","","",""
"","","","","","psychophysics","159","712959","0.0-11.0-0.0-0.0","null","","null","","","","","","","","","","","","","key","null","16.66599999999938","720","446","j","false","img/T_ambi40.png","圆形","prac_simultaneous",""
"","","","","","html-keyboard-response","160","713270","0.0-11.0-0.0-1.0","null","<span class='add_' style='color:yellow; font-size: 70px;'> 太慢! </span>","null","","","","","","","","","","","","","","","","","","","","","","","feedback_test"
"","","","","","psychophysics","161","715052","0.0-11.0-0.0-0.1","781","","j","","","","","","","","","","","","","key","j","16.66599999999938","720","446","j","true","img/S_ambi40.png","三角","prac_simultaneous",""
"","","","","","html-keyboard-response","162","715365","0.0-11.0-0.0-1.1","null","<span style='color:GreenYellow; font-size: 70px;'>正确! </span>","null","","","","","","","","","","","","","","","","","","","","","","","feedback_test"
"","","","","","psychophysics","163","717177","0.0-11.0-0.0-0.2","806","","f","","","","","","","","","","","","","key","f","16.67085185185122","720","446","f","true","img/S_ambi40.png","方形","prac_simultaneous",""
"","","","","","html-keyboard-response","164","717483","0.0-11.0-0.0-1.2","null","<span style='color:GreenYellow; font-size: 70px;'>正确! </span>","null","","","","","","","","","","","","","","","","","","","","","","","feedback_test"
"","","","","","psychophysics","165","719987","0.0-11.0-0.0-0.3","null","","null","","","","","","","","","","","","","key","null","16.66599999999938","720","446","f","false","img/C_ambi40.png","圆形","prac_simultaneous",""
"","","","","","html-keyboard-response","166","720290","0.0-11.0-0.0-1.3","null","<span class='add_' style='color:yellow; font-size: 70px;'> 太慢! </span>","null","","","","","","","","","","","","","","","","","","","","","","","feedback_test"
"","","","","","psychophysics","167","722557","0.0-11.0-0.0-0.4","1266","","j","","","","","","","","","","","","","key","j","16.666000000000242","720","446","j","true","img/C_ambi40.png","方形","prac_simultaneous",""
"","","","","","html-keyboard-response","168","722868","0.0-11.0-0.0-1.4","null","<span style='color:GreenYellow; font-size: 70px;'>正确! </span>","null","","","","","","","","","","","","","","","","","","","","","","","feedback_test"
"","","","","","psychophysics","169","724695","0.0-11.0-0.0-0.5","824","","f","","","","","","","","","","","","","key","f","16.666000000000377","720","446","f","true","img/S_ambi40.png","方形","prac_simultaneous",""
"","","","","","html-keyboard-response","170","725002","0.0-11.0-0.0-1.5","null","<span style='color:GreenYellow; font-size: 70px;'>正确! </span>","null","","","","","","","","","","","","","","","","","","","","","","","feedback_test"
"","","","","","psychophysics","171","727190","0.0-11.0-0.0-0.6","1187","","j","","","","","","","","","","","","","key","j","16.666000000000572","720","446","j","true","img/C_ambi40.png","三角","prac_simultaneous",""
"","","","","","html-keyboard-response","172","727497","0.0-11.0-0.0-1.6","null","<span style='color:GreenYellow; font-size: 70px;'>正确! </span>","null","","","","","","","","","","","","","","","","","","","","","","","feedback_test"
"","","","","","psychophysics","173","729356","0.0-11.0-0.0-0.7","854","","f","","","","","","","","","","","","","key","f","16.665999999999798","720","446","f","true","img/T_ambi40.png","三角","prac_simultaneous",""
"","","","","","html-keyboard-response","174","729666","0.0-11.0-0.0-1.7","null","<span style='color:GreenYellow; font-size: 70px;'>正确! </span>","null","","","","","","","","","","","","","","","","","","","","","","","feedback_test"
"","","","","","psychophysics","175","731610","0.0-11.0-0.0-0.8","939","","f","","","","","","","","","","","","","key","f","16.666000000000448","720","446","j","false","img/T_ambi40.png","方形","prac_simultaneous",""
"","","","","","html-keyboard-response","176","731917","0.0-11.0-0.0-1.8","null","<span style='color:red; font-size: 70px;'>错误! </span>","null","","","","","","","","","","","","","","","","","","","","","","","feedback_test"
"","","","","","psychophysics","177","733726","0.0-11.0-0.0-0.9","806","","f","","","","","","","","","","","","","key","f","16.665999999999595","720","446","f","true","img/C_ambi40.png","圆形","prac_simultaneous",""
"","","","","","html-keyboard-response","178","734034","0.0-11.0-0.0-1.9","null","<span style='color:GreenYellow; font-size: 70px;'>正确! </span>","null","","","","","","","","","","","","","","","","","","","","","","","feedback_test"
"","","","","","psychophysics","179","735826","0.0-11.0-0.0-0.10","789","","f","","","","","","","","","","","","","key","f","16.665999999999887","720","446","j","false","img/S_ambi40.png","圆形","prac_simultaneous",""
"","","","","","html-keyboard-response","180","736132","0.0-11.0-0.0-1.10","null","<span style='color:red; font-size: 70px;'>错误! </span>","null","","","","","","","","","","","","","","","","","","","","","","","feedback_test"
"","","","","","psychophysics","181","737874","0.0-11.0-0.0-0.11","737","","f","","","","","","","","","","","","","key","f","16.671038461537908","720","446","f","true","img/T_ambi40.png","三角","prac_simultaneous",""
"","","","","","html-keyboard-response","182","738180","0.0-11.0-0.0-1.11","null","<span style='color:GreenYellow; font-size: 70px;'>正确! </span>","null","","","","","","","","","","","","","","","","","","","","","","","feedback_test"
"","","","","","psychophysics","183","740261","0.0-11.0-0.0-0.12","1073","","j","","","","","","","","","","","","","key","j","16.66599999999932","720","446","j","true","img/C_ambi40.png","方形","prac_simultaneous",""
"","","","","","html-keyboard-response","184","740572","0.0-11.0-0.0-1.12","null","<span style='color:GreenYellow; font-size: 70px;'>正确! </span>","null","","","","","","","","","","","","","","","","","","","","","","","feedback_test"
"","","","","","psychophysics","185","742333","0.0-11.0-0.0-0.13","755","","f","","","","","","","","","","","","","key","f","16.665999999999677","720","446","f","true","img/T_ambi40.png","三角","prac_simultaneous",""
"","","","","","html-keyboard-response","186","742643","0.0-11.0-0.0-1.13","null","<span style='color:GreenYellow; font-size: 70px;'>正确! </span>","null","","","","","","","","","","","","","","","","","","","","","","","feedback_test"
"","","","","","psychophysics","187","744733","0.0-11.0-0.0-0.14","1081","","j","","","","","","","","","","","","","key","j","16.666000000000256","720","446","j","true","img/C_ambi40.png","三角","prac_simultaneous",""
"","","","","","html-keyboard-response","188","745042","0.0-11.0-0.0-1.14","null","<span style='color:GreenYellow; font-size: 70px;'>正确! </span>","null","","","","","","","","","","","","","","","","","","","","","","","feedback_test"
"","","","","","psychophysics","189","746849","0.0-11.0-0.0-0.15","796","","f","","","","","","","","","","","","","key","f","16.665999999999887","720","446","f","true","img/C_ambi40.png","圆形","prac_simultaneous",""
"","","","","","html-keyboard-response","190","747155","0.0-11.0-0.0-1.15","null","<span style='color:GreenYellow; font-size: 70px;'>正确! </span>","null","","","","","","","","","","","","","","","","","","","","","","","feedback_test"
"","","","","","psychophysics","191","748961","0.0-11.0-0.0-0.16","796","","f","","","","","","","","","","","","","key","f","16.665999999999887","720","446","j","false","img/S_ambi40.png","圆形","prac_simultaneous",""
"","","","","","html-keyboard-response","192","749270","0.0-11.0-0.0-1.16","null","<span style='color:red; font-size: 70px;'>错误! </span>","null","","","","","","","","","","","","","","","","","","","","","","","feedback_test"
"","","","","","psychophysics","193","751096","0.0-11.0-0.0-0.17","825","","f","","","","","","","","","","","","","key","f","16.665999999999595","720","446","f","true","img/C_ambi40.png","圆形","prac_simultaneous",""
"","","","","","html-keyboard-response","194","751403","0.0-11.0-0.0-1.17","null","<span style='color:GreenYellow; font-size: 70px;'>正确! </span>","null","","","","","","","","","","","","","","","","","","","","","","","feedback_test"
"","","","","","psychophysics","195","753560","0.0-11.0-0.0-0.18","1156","","f","","","","","","","","","","","","","key","f","16.665999999999258","720","446","f","true","img/T_ambi40.png","三角","prac_simultaneous",""
"","","","","","html-keyboard-response","196","753867","0.0-11.0-0.0-1.18","null","<span style='color:GreenYellow; font-size: 70px;'>正确! </span>","null","","","","","","","","","","","","","","","","","","","","","","","feedback_test"
"","","","","","psychophysics","197","755708","0.0-11.0-0.0-0.19","838","","f","","","","","","","","","","","","","key","f","16.665999999999027","720","446","f","true","img/S_ambi40.png","方形","prac_simultaneous",""
"","","","","","html-keyboard-response","198","756018","0.0-11.0-0.0-1.19","null","<span style='color:GreenYellow; font-size: 70px;'>正确! </span>","null","","","","","","","","","","","","","","","","","","","","","","","feedback_test"
"","","","","","psychophysics","199","758002","0.0-11.0-0.0-0.20","981","","f","","","","","","","","","","","","","key","f","16.67047008546965","720","446","j","false","img/T_ambi40.png","方形","prac_simultaneous",""
"","","","","","html-keyboard-response","200","758305","0.0-11.0-0.0-1.20","null","<span style='color:red; font-size: 70px;'>错误! </span>","null","","","","","","","","","","","","","","","","","","","","","","","feedback_test"
"","","","","","psychophysics","201","760074","0.0-11.0-0.0-0.21","761","","f","","","","","","","","","","","","","key","f","16.66599999999938","720","446","f","true","img/S_ambi40.png","方形","prac_simultaneous",""
"","","","","","html-keyboard-response","202","760377","0.0-11.0-0.0-1.21","null","<span style='color:GreenYellow; font-size: 70px;'>正确! </span>","null","","","","","","","","","","","","","","","","","","","","","","","feedback_test"
"","","","","","psychophysics","203","762161","0.0-11.0-0.0-0.22","775","","j","","","","","","","","","","","","","key","j","16.666000000000185","720","446","j","true","img/S_ambi40.png","三角","prac_simultaneous",""
"","","","","","html-keyboard-response","204","762470","0.0-11.0-0.0-1.22","null","<span style='color:GreenYellow; font-size: 70px;'>正确! </span>","null","","","","","","","","","","","","","","","","","","","","","","","feedback_test"
"","","","","","psychophysics","205","764861","0.0-11.0-0.0-0.23","1388","","j","","","","","","","","","","","","","key","j","16.66599999999949","720","446","j","true","img/T_ambi40.png","圆形","prac_simultaneous",""
"","","","","","html-keyboard-response","206","765174","0.0-11.0-0.0-1.23","null","<span style='color:GreenYellow; font-size: 70px;'>正确! </span>","null","","","","","","","","","","","","","","","","","","","","","","","feedback_test"
"","","","","","html-keyboard-response","207","767852","0.0-12.0","2675","<style>.context{color:white; font-size: 35px; line-height:40px}</style>                            <div><p class='context'>您正确回答了75% 的试次。</p><p class='context'>您的平均反应时为928毫秒。</p><p class='context'>恭喜您完成练习。按任意键进入正式实验。</p><p class='footer' style='font-size: 35px; line-height:40px;'>请在进入正式实验实验之前将您的<span style='color: lightgreen;'>食指</span>放在电脑键盘的相应键位上进行按键。</p>"," ","","","","","","","","","","","","","","","","","","","","","","",""
"","","","","","html-keyboard-response","208","776321","0.0-13.0-2.0-0.0","8464","
    <p>请您将手指放在按键上，准备进入呈现顺序为<span style='color: yellow;'>图形和文字同时呈现条件</span>的正式匹配任务</p>
    <p> <div style = ""color: green""><按任意键进入下一阶段的匹配任务></div></p>
    "," ","","","","","","","","","","","","","","","","","","","","","","",""
"","","","","","psychophysics","209","778386","0.0-13.0-2.0-1.0-0.0-0.0","1055","","j","","","","","","","","","","","","","key","j","16.665999999999567","720","446","j","true","img/T_ambi40.png","圆形","simultaneous",""
"","","","","","html-keyboard-response","210","778694","0.0-13.0-2.0-1.0-0.0-1.0","null","<span style='color:GreenYellow; font-size: 70px;'>正确! </span>","null","","","","","","","","","","","","","","","","","","","","","","","feedback_test"
"","","","","","psychophysics","211","781212","0.0-13.0-2.0-1.0-0.0-0.1","null","","null","","","","","","","","","","","","","key","null","16.66599999999938","720","446","f","false","img/T_ambi40.png","三角","simultaneous",""
"","","","","","html-keyboard-response","212","781522","0.0-13.0-2.0-1.0-0.0-1.1","null","<span class='add_' style='color:yellow; font-size: 70px;'> 太慢! </span>","null","","","","","","","","","","","","","","","","","","","","","","","feedback_test"
"","","","","","psychophysics","213","783187","0.0-13.0-2.0-1.0-0.0-0.2","658","","f","","","","","","","","","","","","","key","f","16.666000000000086","720","446","f","true","img/C_ambi40.png","圆形","simultaneous",""
"","","","","","html-keyboard-response","214","783491","0.0-13.0-2.0-1.0-0.0-1.2","null","<span style='color:GreenYellow; font-size: 70px;'>正确! </span>","null","","","","","","","","","","","","","","","","","","","","","","","feedback_test"
"","","","","","psychophysics","215","785248","0.0-13.0-2.0-1.0-0.0-0.3","747","","f","","","","","","","","","","","","","key","f","16.665999999999677","720","446","f","true","img/T_ambi40.png","三角","simultaneous",""
"","","","","","html-keyboard-response","216","785554","0.0-13.0-2.0-1.0-0.0-1.3","null","<span style='color:GreenYellow; font-size: 70px;'>正确! </span>","null","","","","","","","","","","","","","","","","","","","","","","","feedback_test"
"","","","","","psychophysics","217","787496","0.0-13.0-2.0-1.0-0.0-0.4","939","","f","","","","","","","","","","","","","key","f","16.665999999999716","720","446","j","false","img/S_ambi40.png","圆形","simultaneous",""
"","","","","","html-keyboard-response","218","787802","0.0-13.0-2.0-1.0-0.0-1.4","null","<span style='color:red; font-size: 70px;'>错误! </span>","null","","","","","","","","","","","","","","","","","","","","","","","feedback_test"
"","","","","","psychophysics","219","789730","0.0-13.0-2.0-1.0-0.0-0.5","926","","j","","","","","","","","","","","","","key","j","16.67059649122887","720","446","j","true","img/T_ambi40.png","方形","simultaneous",""
"","","","","","html-keyboard-response","220","790034","0.0-13.0-2.0-1.0-0.0-1.5","null","<span style='color:GreenYellow; font-size: 70px;'>正确! </span>","null","","","","","","","","","","","","","","","","","","","","","","","feedback_test"
"","","","","","psychophysics","221","792080","0.0-13.0-2.0-1.0-0.0-0.6","1044","","j","","","","","","","","","","","","","key","j","16.666000000000086","720","446","j","true","img/S_ambi40.png","三角","simultaneous",""
"","","","","","html-keyboard-response","222","792389","0.0-13.0-2.0-1.0-0.0-1.6","null","<span style='color:GreenYellow; font-size: 70px;'>正确! </span>","null","","","","","","","","","","","","","","","","","","","","","","","feedback_test"
"","","","","","psychophysics","223","794401","0.0-13.0-2.0-1.0-0.0-0.7","1005","","j","","","","","","","","","","","","","key","j","16.66600000000062","720","446","j","true","img/C_ambi40.png","三角","simultaneous",""
"","","","","","html-keyboard-response","224","794710","0.0-13.0-2.0-1.0-0.0-1.7","null","<span style='color:GreenYellow; font-size: 70px;'>正确! </span>","null","","","","","","","","","","","","","","","","","","","","","","","feedback_test"
"","","","","","psychophysics","225","796595","0.0-13.0-2.0-1.0-0.0-0.8","878","","f","","","","","","","","","","","","","key","f","16.666000000000558","720","446","f","true","img/S_ambi40.png","方形","simultaneous",""
"","","","","","html-keyboard-response","226","796900","0.0-13.0-2.0-1.0-0.0-1.8","null","<span style='color:GreenYellow; font-size: 70px;'>正确! </span>","null","","","","","","","","","","","","","","","","","","","","","","","feedback_test"
"","","","","","psychophysics","227","798844","0.0-13.0-2.0-1.0-0.0-0.9","940","","f","","","","","","","","","","","","","key","f","16.665999999999716","720","446","f","true","img/C_ambi40.png","圆形","simultaneous",""
"","","","","","html-keyboard-response","228","799150","0.0-13.0-2.0-1.0-0.0-1.9","null","<span style='color:GreenYellow; font-size: 70px;'>正确! </span>","null","","","","","","","","","","","","","","","","","","","","","","","feedback_test"
"","","","","","psychophysics","229","800841","0.0-13.0-2.0-1.0-0.0-0.10","689","","f","","","","","","","","","","","","","key","f","16.665999999999457","720","446","f","true","img/S_ambi40.png","方形","simultaneous",""
"","","","","","html-keyboard-response","230","801148","0.0-13.0-2.0-1.0-0.0-1.10","null","<span style='color:GreenYellow; font-size: 70px;'>正确! </span>","null","","","","","","","","","","","","","","","","","","","","","","","feedback_test"
"","","","","","psychophysics","231","803040","0.0-13.0-2.0-1.0-0.0-0.11","887","","j","","","","","","","","","","","","","key","j","16.66600000000027","720","446","j","true","img/C_ambi40.png","方形","simultaneous",""
"","","","","","html-keyboard-response","232","803348","0.0-13.0-2.0-1.0-0.0-1.11","null","<span style='color:GreenYellow; font-size: 70px;'>正确! </span>","null","","","","","","","","","","","","","","","","","","","","","","","feedback_test"
"","","","","","psychophysics","233","805408","0.0-13.0-2.0-1.0-0.0-0.12","1056","","f","","","","","","","","","","","","","key","f","16.666000000000516","720","446","f","true","img/C_ambi40.png","圆形","simultaneous",""
"","","","","","html-keyboard-response","234","805718","0.0-13.0-2.0-1.0-0.0-1.12","null","<span style='color:GreenYellow; font-size: 70px;'>正确! </span>","null","","","","","","","","","","","","","","","","","","","","","","","feedback_test"
"","","","","","psychophysics","235","807766","0.0-13.0-2.0-1.0-0.0-0.13","1046","","j","","","","","","","","","","","","","key","j","16.666000000000086","720","446","j","true","img/T_ambi40.png","方形","simultaneous",""
"","","","","","html-keyboard-response","236","808075","0.0-13.0-2.0-1.0-0.0-1.13","null","<span style='color:GreenYellow; font-size: 70px;'>正确! </span>","null","","","","","","","","","","","","","","","","","","","","","","","feedback_test"
"","","","","","psychophysics","237","809823","0.0-13.0-2.0-1.0-0.0-0.14","741","","j","","","","","","","","","","","","","key","j","16.67108653846215","720","446","j","true","img/S_ambi40.png","圆形","simultaneous",""
"","","","","","html-keyboard-response","238","810131","0.0-13.0-2.0-1.0-0.0-1.14","null","<span style='color:GreenYellow; font-size: 70px;'>正确! </span>","null","","","","","","","","","","","","","","","","","","","","","","","feedback_test"
"","","","","","psychophysics","239","811943","0.0-13.0-2.0-1.0-0.0-0.15","807","","j","","","","","","","","","","","","","key","j","16.665999999999595","720","446","j","true","img/S_ambi40.png","三角","simultaneous",""
"","","","","","html-keyboard-response","240","812252","0.0-13.0-2.0-1.0-0.0-1.15","null","<span style='color:GreenYellow; font-size: 70px;'>正确! </span>","null","","","","","","","","","","","","","","","","","","","","","","","feedback_test"
"","","","","","psychophysics","241","814082","0.0-13.0-2.0-1.0-0.0-0.16","828","","j","","","","","","","","","","","","","key","j","16.665999999999595","720","446","j","true","img/C_ambi40.png","三角","simultaneous",""
"","","","","","html-keyboard-response","242","814386","0.0-13.0-2.0-1.0-0.0-1.16","null","<span style='color:GreenYellow; font-size: 70px;'>正确! </span>","null","","","","","","","","","","","","","","","","","","","","","","","feedback_test"
"","","","","","psychophysics","243","816172","0.0-13.0-2.0-1.0-0.0-0.17","786","","f","","","","","","","","","","","","","key","f","16.665999999999087","720","446","f","true","img/S_ambi40.png","方形","simultaneous",""
"","","","","","html-keyboard-response","244","816478","0.0-13.0-2.0-1.0-0.0-1.17","null","<span style='color:GreenYellow; font-size: 70px;'>正确! </span>","null","","","","","","","","","","","","","","","","","","","","","","","feedback_test"
"","","","","","psychophysics","245","818280","0.0-13.0-2.0-1.0-0.0-0.18","795","","f","","","","","","","","","","","","","key","f","16.665999999999887","720","446","f","true","img/T_ambi40.png","三角","simultaneous",""
"","","","","","html-keyboard-response","246","818586","0.0-13.0-2.0-1.0-0.0-1.18","null","<span style='color:GreenYellow; font-size: 70px;'>正确! </span>","null","","","","","","","","","","","","","","","","","","","","","","","feedback_test"
"","","","","","psychophysics","247","820311","0.0-13.0-2.0-1.0-0.0-0.19","723","","f","","","","","","","","","","","","","key","f","16.66600000000029","720","446","f","true","img/T_ambi40.png","三角","simultaneous",""
"","","","","","html-keyboard-response","248","820618","0.0-13.0-2.0-1.0-0.0-1.19","null","<span style='color:GreenYellow; font-size: 70px;'>正确! </span>","null","","","","","","","","","","","","","","","","","","","","","","","feedback_test"
"","","","","","psychophysics","249","822396","0.0-13.0-2.0-1.0-0.0-0.20","776","","j","","","","","","","","","","","","","key","j","16.666000000000487","720","446","f","false","img/S_ambi40.png","方形","simultaneous",""
"","","","","","html-keyboard-response","250","822699","0.0-13.0-2.0-1.0-0.0-1.20","null","<span style='color:red; font-size: 70px;'>错误! </span>","null","","","","","","","","","","","","","","","","","","","","","","","feedback_test"
"","","","","","psychophysics","251","824610","0.0-13.0-2.0-1.0-0.0-0.21","907","","j","","","","","","","","","","","","","key","j","16.665999999999993","720","446","j","true","img/T_ambi40.png","圆形","simultaneous",""
"","","","","","html-keyboard-response","252","824918","0.0-13.0-2.0-1.0-0.0-1.21","null","<span style='color:GreenYellow; font-size: 70px;'>正确! </span>","null","","","","","","","","","","","","","","","","","","","","","","","feedback_test"
"","","","","","psychophysics","253","826865","0.0-13.0-2.0-1.0-0.0-0.22","946","","j","","","","","","","","","","","","","key","j","16.66600000000073","720","446","j","true","img/C_ambi40.png","方形","simultaneous",""
"","","","","","html-keyboard-response","254","827170","0.0-13.0-2.0-1.0-0.0-1.22","null","<span style='color:GreenYellow; font-size: 70px;'>正确! </span>","null","","","","","","","","","","","","","","","","","","","","","","","feedback_test"
"","","","","","psychophysics","255","828969","0.0-13.0-2.0-1.0-0.0-0.23","798","","f","","","","","","","","","","","","","key","f","16.670897196261343","720","446","f","true","img/C_ambi40.png","圆形","simultaneous",""
"","","","","","html-keyboard-response","256","829275","0.0-13.0-2.0-1.0-0.0-1.23","null","<span style='color:GreenYellow; font-size: 70px;'>正确! </span>","null","","","","","","","","","","","","","","","","","","","","","","","feedback_test"
"","","","","","psychophysics","257","831439","0.0-13.0-2.0-1.0-0.0-0.24","1155","","j","","","","","","","","","","","","","key","j","16.665999999999922","720","446","f","false","img/T_ambi40.png","三角","simultaneous",""
"","","","","","html-keyboard-response","258","831747","0.0-13.0-2.0-1.0-0.0-1.24","null","<span style='color:red; font-size: 70px;'>错误! </span>","null","","","","","","","","","","","","","","","","","","","","","","","feedback_test"
"","","","","","psychophysics","259","833752","0.0-13.0-2.0-1.0-0.0-0.25","999","","j","","","","","","","","","","","","","key","j","16.66600000000035","720","446","j","true","img/T_ambi40.png","方形","simultaneous",""
"","","","","","html-keyboard-response","260","834059","0.0-13.0-2.0-1.0-0.0-1.25","null","<span style='color:GreenYellow; font-size: 70px;'>正确! </span>","null","","","","","","","","","","","","","","","","","","","","","","","feedback_test"
"","","","","","psychophysics","261","835779","0.0-13.0-2.0-1.0-0.0-0.26","712","","f","","","","","","","","","","","","","key","f","16.66599999999915","720","446","f","true","img/S_ambi40.png","方形","simultaneous",""
"","","","","","html-keyboard-response","262","836086","0.0-13.0-2.0-1.0-0.0-1.26","null","<span style='color:GreenYellow; font-size: 70px;'>正确! </span>","null","","","","","","","","","","","","","","","","","","","","","","","feedback_test"
"","","","","","psychophysics","263","837896","0.0-13.0-2.0-1.0-0.0-0.27","810","","j","","","","","","","","","","","","","key","j","16.665999999999887","720","446","j","true","img/S_ambi40.png","三角","simultaneous",""
"","","","","","html-keyboard-response","264","838205","0.0-13.0-2.0-1.0-0.0-1.27","null","<span style='color:GreenYellow; font-size: 70px;'>正确! </span>","null","","","","","","","","","","","","","","","","","","","","","","","feedback_test"
"","","","","","psychophysics","265","840137","0.0-13.0-2.0-1.0-0.0-0.28","925","","f","","","","","","","","","","","","","key","f","16.66829565217435","720","446","f","true","img/S_ambi40.png","方形","simultaneous",""
"","","","","","html-keyboard-response","266","840442","0.0-13.0-2.0-1.0-0.0-1.28","null","<span style='color:GreenYellow; font-size: 70px;'>正确! </span>","null","","","","","","","","","","","","","","","","","","","","","","","feedback_test"
"","","","","","psychophysics","267","842166","0.0-13.0-2.0-1.0-0.0-0.29","717","","j","","","","","","","","","","","","","key","j","16.66600000000029","720","446","j","true","img/C_ambi40.png","三角","simultaneous",""
"","","","","","html-keyboard-response","268","842477","0.0-13.0-2.0-1.0-0.0-1.29","null","<span style='color:GreenYellow; font-size: 70px;'>正确! </span>","null","","","","","","","","","","","","","","","","","","","","","","","feedback_test"
"","","","","","psychophysics","269","844318","0.0-13.0-2.0-1.0-0.0-0.30","832","","f","","","","","","","","","","","","","key","f","16.666000000000377","720","446","f","true","img/C_ambi40.png","圆形","simultaneous",""
"","","","","","html-keyboard-response","270","844630","0.0-13.0-2.0-1.0-0.0-1.30","null","<span style='color:GreenYellow; font-size: 70px;'>正确! </span>","null","","","","","","","","","","","","","","","","","","","","","","","feedback_test"
"","","","","","psychophysics","271","846446","0.0-13.0-2.0-1.0-0.0-0.31","810","","f","","","","","","","","","","","","","key","f","16.666000000000672","720","446","f","true","img/T_ambi40.png","三角","simultaneous",""
"","","","","","html-keyboard-response","272","846758","0.0-13.0-2.0-1.0-0.0-1.31","null","<span style='color:GreenYellow; font-size: 70px;'>正确! </span>","null","","","","","","","","","","","","","","","","","","","","","","","feedback_test"
"","","","","","psychophysics","273","848473","0.0-13.0-2.0-1.0-0.0-0.32","710","","j","","","","","","","","","","","","","key","j","16.66600000000029","720","446","j","true","img/T_ambi40.png","圆形","simultaneous",""
"","","","","","html-keyboard-response","274","848782","0.0-13.0-2.0-1.0-0.0-1.32","null","<span style='color:GreenYellow; font-size: 70px;'>正确! </span>","null","","","","","","","","","","","","","","","","","","","","","","","feedback_test"
"","","","","","psychophysics","275","850394","0.0-13.0-2.0-1.0-0.0-0.33","609","","f","","","","","","","","","","","","","key","f","16.665999999999865","720","446","f","true","img/C_ambi40.png","圆形","simultaneous",""
"","","","","","html-keyboard-response","276","850702","0.0-13.0-2.0-1.0-0.0-1.33","null","<span style='color:GreenYellow; font-size: 70px;'>正确! </span>","null","","","","","","","","","","","","","","","","","","","","","","","feedback_test"
"","","","","","psychophysics","277","852672","0.0-13.0-2.0-1.0-0.0-0.34","968","","j","","","","","","","","","","","","","key","j","16.666000000000174","720","446","j","true","img/C_ambi40.png","方形","simultaneous",""
"","","","","","html-keyboard-response","278","852977","0.0-13.0-2.0-1.0-0.0-1.34","null","<span style='color:GreenYellow; font-size: 70px;'>正确! </span>","null","","","","","","","","","","","","","","","","","","","","","","","feedback_test"
"","","","","","psychophysics","279","854601","0.0-13.0-2.0-1.0-0.0-0.35","615","","f","","","","","","","","","","","","","key","f","16.665999999999865","720","446","j","false","img/S_ambi40.png","圆形","simultaneous",""
"","","","","","html-keyboard-response","280","854906","0.0-13.0-2.0-1.0-0.0-1.35","null","<span style='color:red; font-size: 70px;'>错误! </span>","null","","","","","","","","","","","","","","","","","","","","","","","feedback_test"
"","","","","","psychophysics","281","856627","0.0-13.0-2.0-1.0-0.0-0.36","713","","f","","","","","","","","","","","","","key","f","16.66600000000029","720","446","f","true","img/S_ambi40.png","方形","simultaneous",""
"","","","","","html-keyboard-response","282","856929","0.0-13.0-2.0-1.0-0.0-1.36","null","<span style='color:GreenYellow; font-size: 70px;'>正确! </span>","null","","","","","","","","","","","","","","","","","","","","","","","feedback_test"
"","","","","","psychophysics","283","858675","0.0-13.0-2.0-1.0-0.0-0.37","739","","j","","","","","","","","","","","","","key","j","16.671038461539027","720","446","j","true","img/T_ambi40.png","圆形","simultaneous",""
"","","","","","html-keyboard-response","284","858982","0.0-13.0-2.0-1.0-0.0-1.37","null","<span style='color:GreenYellow; font-size: 70px;'>正确! </span>","null","","","","","","","","","","","","","","","","","","","","","","","feedback_test"
"","","","","","psychophysics","285","860797","0.0-13.0-2.0-1.0-0.0-0.38","812","","j","","","","","","","","","","","","","key","j","16.665999999999595","720","446","j","true","img/S_ambi40.png","三角","simultaneous",""
"","","","","","html-keyboard-response","286","861105","0.0-13.0-2.0-1.0-0.0-1.38","null","<span style='color:GreenYellow; font-size: 70px;'>正确! </span>","null","","","","","","","","","","","","","","","","","","","","","","","feedback_test"
"","","","","","psychophysics","287","863109","0.0-13.0-2.0-1.0-0.0-0.39","996","","j","","","","","","","","","","","","","key","j","16.66599999999964","720","446","f","false","img/T_ambi40.png","三角","simultaneous",""
"","","","","","html-keyboard-response","288","863422","0.0-13.0-2.0-1.0-0.0-1.39","null","<span style='color:red; font-size: 70px;'>错误! </span>","null","","","","","","","","","","","","","","","","","","","","","","","feedback_test"
"","","","","","psychophysics","289","865461","0.0-13.0-2.0-1.0-0.0-0.40","1032","","j","","","","","","","","","","","","","key","j","16.666000000000086","720","446","j","true","img/S_ambi40.png","圆形","simultaneous",""
"","","","","","html-keyboard-response","290","865773","0.0-13.0-2.0-1.0-0.0-1.40","null","<span style='color:GreenYellow; font-size: 70px;'>正确! </span>","null","","","","","","","","","","","","","","","","","","","","","","","feedback_test"
"","","","","","psychophysics","291","867907","0.0-13.0-2.0-1.0-0.0-0.41","1126","","j","","","","","","","","","","","","","key","j","16.665999999999503","720","446","j","true","img/C_ambi40.png","方形","simultaneous",""
"","","","","","html-keyboard-response","292","868211","0.0-13.0-2.0-1.0-0.0-1.41","null","<span style='color:GreenYellow; font-size: 70px;'>正确! </span>","null","","","","","","","","","","","","","","","","","","","","","","","feedback_test"
"","","","","","psychophysics","293","870159","0.0-13.0-2.0-1.0-0.0-0.42","942","","f","","","","","","","","","","","","","key","f","16.665999999999446","720","446","f","true","img/S_ambi40.png","方形","simultaneous",""
"","","","","","html-keyboard-response","294","870470","0.0-13.0-2.0-1.0-0.0-1.42","null","<span style='color:GreenYellow; font-size: 70px;'>正确! </span>","null","","","","","","","","","","","","","","","","","","","","","","","feedback_test"
"","","","","","psychophysics","295","872223","0.0-13.0-2.0-1.0-0.0-0.43","751","","f","","","","","","","","","","","","","key","f","16.665999999999677","720","446","f","true","img/C_ambi40.png","圆形","simultaneous",""
"","","","","","html-keyboard-response","296","872529","0.0-13.0-2.0-1.0-0.0-1.43","null","<span style='color:GreenYellow; font-size: 70px;'>正确! </span>","null","","","","","","","","","","","","","","","","","","","","","","","feedback_test"
"","","","","","psychophysics","297","874476","0.0-13.0-2.0-1.0-0.0-0.44","940","","j","","","","","","","","","","","","","key","j","16.666000000000448","720","446","j","true","img/T_ambi40.png","方形","simultaneous",""
"","","","","","html-keyboard-response","298","874782","0.0-13.0-2.0-1.0-0.0-1.44","null","<span style='color:GreenYellow; font-size: 70px;'>正确! </span>","null","","","","","","","","","","","","","","","","","","","","","","","feedback_test"
"","","","","","psychophysics","299","876661","0.0-13.0-2.0-1.0-0.0-0.45","876","","j","","","","","","","","","","","","","key","j","16.665999999999517","720","446","j","true","img/C_ambi40.png","三角","simultaneous",""
"","","","","","html-keyboard-response","300","876970","0.0-13.0-2.0-1.0-0.0-1.45","null","<span style='color:GreenYellow; font-size: 70px;'>正确! </span>","null","","","","","","","","","","","","","","","","","","","","","","","feedback_test"
"","","","","","psychophysics","301","878688","0.0-13.0-2.0-1.0-0.0-0.46","715","","f","","","","","","","","","","","","","key","f","16.671137254902014","720","446","f","true","img/T_ambi40.png","三角","simultaneous",""
"","","","","","html-keyboard-response","302","878997","0.0-13.0-2.0-1.0-0.0-1.46","null","<span style='color:GreenYellow; font-size: 70px;'>正确! </span>","null","","","","","","","","","","","","","","","","","","","","","","","feedback_test"
"","","","","","psychophysics","303","880797","0.0-13.0-2.0-1.0-0.0-0.47","795","","f","","","","","","","","","","","","","key","f","16.665999999999887","720","446","f","true","img/C_ambi40.png","圆形","simultaneous",""
"","","","","","html-keyboard-response","304","881108","0.0-13.0-2.0-1.0-0.0-1.47","null","<span style='color:GreenYellow; font-size: 70px;'>正确! </span>","null","","","","","","","","","","","","","","","","","","","","","","","feedback_test"
"","","","","","psychophysics","305","882899","0.0-13.0-2.0-1.0-0.0-0.48","785","","j","","","","","","","","","","","","","key","j","16.666000000000185","720","446","j","true","img/C_ambi40.png","三角","simultaneous",""
"","","","","","html-keyboard-response","306","883202","0.0-13.0-2.0-1.0-0.0-1.48","null","<span style='color:GreenYellow; font-size: 70px;'>正确! </span>","null","","","","","","","","","","","","","","","","","","","","","","","feedback_test"
"","","","","","psychophysics","307","885011","0.0-13.0-2.0-1.0-0.0-0.49","808","","f","","","","","","","","","","","","","key","f","16.665999999999887","720","446","f","true","img/C_ambi40.png","圆形","simultaneous",""
"","","","","","html-keyboard-response","308","885313","0.0-13.0-2.0-1.0-0.0-1.49","null","<span style='color:GreenYellow; font-size: 70px;'>正确! </span>","null","","","","","","","","","","","","","","","","","","","","","","","feedback_test"
"","","","","","psychophysics","309","887137","0.0-13.0-2.0-1.0-0.0-0.50","819","","f","","","","","","","","","","","","","key","f","16.665999999999308","720","446","j","false","img/T_ambi40.png","方形","simultaneous",""
"","","","","","html-keyboard-response","310","887441","0.0-13.0-2.0-1.0-0.0-1.50","null","<span style='color:red; font-size: 70px;'>错误! </span>","null","","","","","","","","","","","","","","","","","","","","","","","feedback_test"
"","","","","","psychophysics","311","889193","0.0-13.0-2.0-1.0-0.0-0.51","742","","f","","","","","","","","","","","","","key","f","16.665999999999677","720","446","f","true","img/S_ambi40.png","方形","simultaneous",""
"","","","","","html-keyboard-response","312","889501","0.0-13.0-2.0-1.0-0.0-1.51","null","<span style='color:GreenYellow; font-size: 70px;'>正确! </span>","null","","","","","","","","","","","","","","","","","","","","","","","feedback_test"
"","","","","","psychophysics","313","891513","0.0-13.0-2.0-1.0-0.0-0.52","1010","","j","","","","","","","","","","","","","key","j","16.66600000000062","720","446","j","true","img/C_ambi40.png","方形","simultaneous",""
"","","","","","html-keyboard-response","314","891822","0.0-13.0-2.0-1.0-0.0-1.52","null","<span style='color:GreenYellow; font-size: 70px;'>正确! </span>","null","","","","","","","","","","","","","","","","","","","","","","","feedback_test"
"","","","","","psychophysics","315","893608","0.0-13.0-2.0-1.0-0.0-0.53","782","","j","","","","","","","","","","","","","key","j","16.666000000000185","720","446","j","true","img/S_ambi40.png","三角","simultaneous",""
"","","","","","html-keyboard-response","316","893918","0.0-13.0-2.0-1.0-0.0-1.53","null","<span style='color:GreenYellow; font-size: 70px;'>正确! </span>","null","","","","","","","","","","","","","","","","","","","","","","","feedback_test"
"","","","","","psychophysics","317","895700","0.0-13.0-2.0-1.0-0.0-0.54","772","","f","","","","","","","","","","","","","key","f","16.666000000000185","720","446","f","true","img/S_ambi40.png","方形","simultaneous",""
"","","","","","html-keyboard-response","318","896013","0.0-13.0-2.0-1.0-0.0-1.54","null","<span style='color:GreenYellow; font-size: 70px;'>正确! </span>","null","","","","","","","","","","","","","","","","","","","","","","","feedback_test"
"","","","","","psychophysics","319","897712","0.0-13.0-2.0-1.0-0.0-0.55","694","","f","","","","","","","","","","","","","key","f","16.666000000000608","720","446","f","true","img/C_ambi40.png","圆形","simultaneous",""
"","","","","","html-keyboard-response","320","898021","0.0-13.0-2.0-1.0-0.0-1.55","null","<span style='color:GreenYellow; font-size: 70px;'>正确! </span>","null","","","","","","","","","","","","","","","","","","","","","","","feedback_test"
"","","","","","psychophysics","321","899943","0.0-13.0-2.0-1.0-0.0-0.56","921","","f","","","","","","","","","","","","","key","f","16.67059649122887","720","446","f","true","img/T_ambi40.png","三角","simultaneous",""
"","","","","","html-keyboard-response","322","900251","0.0-13.0-2.0-1.0-0.0-1.56","null","<span style='color:GreenYellow; font-size: 70px;'>正确! </span>","null","","","","","","","","","","","","","","","","","","","","","","","feedback_test"
"","","","","","psychophysics","323","902053","0.0-13.0-2.0-1.0-0.0-0.57","801","","j","","","","","","","","","","","","","key","j","16.665999999999887","720","446","j","true","img/S_ambi40.png","圆形","simultaneous",""
"","","","","","html-keyboard-response","324","902364","0.0-13.0-2.0-1.0-0.0-1.57","null","<span style='color:GreenYellow; font-size: 70px;'>正确! </span>","null","","","","","","","","","","","","","","","","","","","","","","","feedback_test"
"","","","","","psychophysics","325","904220","0.0-13.0-2.0-1.0-0.0-0.58","852","","f","","","","","","","","","","","","","key","f","16.665999999999798","720","446","f","true","img/T_ambi40.png","三角","simultaneous",""
"","","","","","html-keyboard-response","326","904532","0.0-13.0-2.0-1.0-0.0-1.58","null","<span style='color:GreenYellow; font-size: 70px;'>正确! </span>","null","","","","","","","","","","","","","","","","","","","","","","","feedback_test"
"","","","","","psychophysics","327","906401","0.0-13.0-2.0-1.0-0.0-0.59","866","","j","","","","","","","","","","","","","key","j","16.665999999999517","720","446","j","true","img/T_ambi40.png","圆形","simultaneous",""
"","","","","","html-keyboard-response","328","906706","0.0-13.0-2.0-1.0-0.0-1.59","null","<span style='color:GreenYellow; font-size: 70px;'>正确! </span>","null","","","","","","","","","","","","","","","","","","","","","","","feedback_test"
"","","","","","html-keyboard-response","329","909739","0.0-13.0-2.0-1.0-1.0","3030","<style>.context{color:white; font-size: 35px; line-height:40px}</style>                            <div><p class='context'>您正确回答了88% 的试次。</p><p class='context'>您的平均反应时为846毫秒。</p><p class='context'>请按任意键进入休息</p></div>"," ","","","","","","","","","","","","","","","","","","","","","","",""
"","","","","","html-button-response","330","942125","0.0-13.0-2.0-1.0-2.0","32382","
                    <p>您当前还剩余3组实验</p>
                    <p>现在是休息时间，当您结束休息后，您可以点击 结束休息 按钮 继续</p>
                    <p>建议休息时间还剩余<span id=""iii"">60</span>秒</p>","0","","","","","","","","","","","","","","","","","","","","","","",""
"","","","","","psychophysics","331","944635","0.0-13.0-2.0-1.0-0.1-0.60","null","","null","","","","","","","","","","","","","key","null","16.666000000000157","720","446","j","false","img/S_ambi40.png","三角","simultaneous",""
"","","","","","html-keyboard-response","332","944940","0.0-13.0-2.0-1.0-0.1-1.60","null","<span class='add_' style='color:yellow; font-size: 70px;'> 太慢! </span>","null","","","","","","","","","","","","","","","","","","","","","","","feedback_test"
"","","","","","psychophysics","333","947034","0.0-13.0-2.0-1.0-0.1-0.61","1089","","f","","","","","","","","","","","","","key","f","16.666","720","446","f","true","img/S_ambi40.png","方形","simultaneous",""
"","","","","","html-keyboard-response","334","947339","0.0-13.0-2.0-1.0-0.1-1.61","null","<span style='color:GreenYellow; font-size: 70px;'>正确! </span>","null","","","","","","","","","","","","","","","","","","","","","","","feedback_test"
"","","","","","psychophysics","335","949173","0.0-13.0-2.0-1.0-0.1-0.62","827","","j","","","","","","","","","","","","","key","j","16.666000000000377","720","446","j","true","img/S_ambi40.png","圆形","simultaneous",""
"","","","","","html-keyboard-response","336","949484","0.0-13.0-2.0-1.0-0.1-1.62","null","<span style='color:GreenYellow; font-size: 70px;'>正确! </span>","null","","","","","","","","","","","","","","","","","","","","","","","feedback_test"
"","","","","","psychophysics","337","951646","0.0-13.0-2.0-1.0-0.1-0.63","1157","","f","","","","","","","","","","","","","key","f","16.665999999999258","720","446","f","true","img/T_ambi40.png","三角","simultaneous",""
"","","","","","html-keyboard-response","338","951954","0.0-13.0-2.0-1.0-0.1-1.63","null","<span style='color:GreenYellow; font-size: 70px;'>正确! </span>","null","","","","","","","","","","","","","","","","","","","","","","","feedback_test"
"","","","","","psychophysics","339","953635","0.0-13.0-2.0-1.0-0.1-0.64","673","","j","","","","","","","","","","","","","key","j","16.665999999999766","720","446","j","true","img/T_ambi40.png","圆形","simultaneous",""
"","","","","","html-keyboard-response","340","953942","0.0-13.0-2.0-1.0-0.1-1.64","null","<span style='color:GreenYellow; font-size: 70px;'>正确! </span>","null","","","","","","","","","","","","","","","","","","","","","","","feedback_test"
"","","","","","psychophysics","341","955663","0.0-13.0-2.0-1.0-0.1-0.65","715","","f","","","","","","","","","","","","","key","f","16.66600000000029","720","446","f","true","img/S_ambi40.png","方形","simultaneous",""
"","","","","","html-keyboard-response","342","955972","0.0-13.0-2.0-1.0-0.1-1.65","null","<span style='color:GreenYellow; font-size: 70px;'>正确! </span>","null","","","","","","","","","","","","","","","","","","","","","","","feedback_test"
"","","","","","psychophysics","343","958061","0.0-13.0-2.0-1.0-0.1-0.66","1084","","f","","","","","","","","","","","","","key","f","16.666000000000256","720","446","j","false","img/T_ambi40.png","方形","simultaneous",""
"","","","","","html-keyboard-response","344","958371","0.0-13.0-2.0-1.0-0.1-1.66","null","<span style='color:red; font-size: 70px;'>错误! </span>","null","","","","","","","","","","","","","","","","","","","","","","","feedback_test"
"","","","","","psychophysics","345","960056","0.0-13.0-2.0-1.0-0.1-0.67","678","","j","","","","","","","","","","","","","key","j","16.66600000000093","720","446","j","true","img/C_ambi40.png","三角","simultaneous",""
"","","","","","html-keyboard-response","346","960366","0.0-13.0-2.0-1.0-0.1-1.67","null","<span style='color:GreenYellow; font-size: 70px;'>正确! </span>","null","","","","","","","","","","","","","","","","","","","","","","","feedback_test"
"","","","","","psychophysics","347","962058","0.0-13.0-2.0-1.0-0.1-0.68","691","","f","","","","","","","","","","","","","key","f","16.67124000000069","720","446","f","true","img/C_ambi40.png","圆形","simultaneous",""
"","","","","","html-keyboard-response","348","962364","0.0-13.0-2.0-1.0-0.1-1.68","null","<span style='color:GreenYellow; font-size: 70px;'>正确! </span>","null","","","","","","","","","","","","","","","","","","","","","","","feedback_test"
"","","","","","psychophysics","349","964172","0.0-13.0-2.0-1.0-0.1-0.69","805","","j","","","","","","","","","","","","","key","j","16.665999999999595","720","446","f","false","img/T_ambi40.png","三角","simultaneous",""
"","","","","","html-keyboard-response","350","964483","0.0-13.0-2.0-1.0-0.1-1.69","null","<span style='color:red; font-size: 70px;'>错误! </span>","null","","","","","","","","","","","","","","","","","","","","","","","feedback_test"
"","","","","","psychophysics","351","966249","0.0-13.0-2.0-1.0-0.1-0.70","764","","f","","","","","","","","","","","","","key","f","16.665999999999677","720","446","f","true","img/C_ambi40.png","圆形","simultaneous",""
"","","","","","html-keyboard-response","352","966556","0.0-13.0-2.0-1.0-0.1-1.70","null","<span style='color:GreenYellow; font-size: 70px;'>正确! </span>","null","","","","","","","","","","","","","","","","","","","","","","","feedback_test"
"","","","","","psychophysics","353","968784","0.0-13.0-2.0-1.0-0.1-0.71","1223","","j","","","","","","","","","","","","","key","j","16.665999999999848","720","446","j","true","img/C_ambi40.png","方形","simultaneous",""
"","","","","","html-keyboard-response","354","969092","0.0-13.0-2.0-1.0-0.1-1.71","null","<span style='color:GreenYellow; font-size: 70px;'>正确! </span>","null","","","","","","","","","","","","","","","","","","","","","","","feedback_test"
"","","","","","psychophysics","355","971071","0.0-13.0-2.0-1.0-0.1-0.72","972","","j","","","","","","","","","","","","","key","j","16.665999999999904","720","446","j","true","img/T_ambi40.png","圆形","simultaneous",""
"","","","","","html-keyboard-response","356","971378","0.0-13.0-2.0-1.0-0.1-1.72","null","<span style='color:GreenYellow; font-size: 70px;'>正确! </span>","null","","","","","","","","","","","","","","","","","","","","","","","feedback_test"
"","","","","","psychophysics","357","973318","0.0-13.0-2.0-1.0-0.1-0.73","934","","j","","","","","","","","","","","","","key","j","16.668267241379063","720","446","j","true","img/C_ambi40.png","方形","simultaneous",""
"","","","","","html-keyboard-response","358","973627","0.0-13.0-2.0-1.0-0.1-1.73","null","<span style='color:GreenYellow; font-size: 70px;'>正确! </span>","null","","","","","","","","","","","","","","","","","","","","","","","feedback_test"
"","","","","","psychophysics","359","975449","0.0-13.0-2.0-1.0-0.1-0.74","816","","f","","","","","","","","","","","","","key","f","16.666000000000672","720","446","f","true","img/S_ambi40.png","方形","simultaneous",""
"","","","","","html-keyboard-response","360","975758","0.0-13.0-2.0-1.0-0.1-1.74","null","<span style='color:GreenYellow; font-size: 70px;'>正确! </span>","null","","","","","","","","","","","","","","","","","","","","","","","feedback_test"
"","","","","","psychophysics","361","977657","0.0-13.0-2.0-1.0-0.1-0.75","892","","f","","","","","","","","","","","","","key","f","16.66600000000027","720","446","f","true","img/T_ambi40.png","三角","simultaneous",""
"","","","","","html-keyboard-response","362","977962","0.0-13.0-2.0-1.0-0.1-1.75","null","<span style='color:GreenYellow; font-size: 70px;'>正确! </span>","null","","","","","","","","","","","","","","","","","","","","","","","feedback_test"
"","","","","","psychophysics","363","979742","0.0-13.0-2.0-1.0-0.1-0.76","775","","j","","","","","","","","","","","","","key","j","16.666000000000185","720","446","j","true","img/S_ambi40.png","三角","simultaneous",""
"","","","","","html-keyboard-response","364","980052","0.0-13.0-2.0-1.0-0.1-1.76","null","<span style='color:GreenYellow; font-size: 70px;'>正确! </span>","null","","","","","","","","","","","","","","","","","","","","","","","feedback_test"
"","","","","","psychophysics","365","982025","0.0-13.0-2.0-1.0-0.1-0.77","971","","f","","","","","","","","","","","","","key","f","16.666000000000174","720","446","f","true","img/T_ambi40.png","三角","simultaneous",""
"","","","","","html-keyboard-response","366","982334","0.0-13.0-2.0-1.0-0.1-1.77","null","<span style='color:GreenYellow; font-size: 70px;'>正确! </span>","null","","","","","","","","","","","","","","","","","","","","","","","feedback_test"
"","","","","","psychophysics","367","984206","0.0-13.0-2.0-1.0-0.1-0.78","859","","j","","","","","","","","","","","","","key","j","16.665999999999798","720","446","j","true","img/C_ambi40.png","三角","simultaneous",""
"","","","","","html-keyboard-response","368","984517","0.0-13.0-2.0-1.0-0.1-1.78","null","<span style='color:GreenYellow; font-size: 70px;'>正确! </span>","null","","","","","","","","","","","","","","","","","","","","","","","feedback_test"
"","","","","","psychophysics","369","986733","0.0-13.0-2.0-1.0-0.1-0.79","1215","","j","","","","","","","","","","","","","key","j","16.666000000000086","720","446","j","true","img/T_ambi40.png","方形","simultaneous",""
"","","","","","html-keyboard-response","370","987046","0.0-13.0-2.0-1.0-0.1-1.79","null","<span style='color:GreenYellow; font-size: 70px;'>正确! </span>","null","","","","","","","","","","","","","","","","","","","","","","","feedback_test"
"","","","","","psychophysics","371","989367","0.0-13.0-2.0-1.0-0.1-0.80","1317","","f","","","","","","","","","","","","","key","f","16.66600000000016","720","446","f","true","img/C_ambi40.png","圆形","simultaneous",""
"","","","","","html-keyboard-response","372","989678","0.0-13.0-2.0-1.0-0.1-1.80","null","<span style='color:GreenYellow; font-size: 70px;'>正确! </span>","null","","","","","","","","","","","","","","","","","","","","","","","feedback_test"
"","","","","","psychophysics","373","991574","0.0-13.0-2.0-1.0-0.1-0.81","890","","f","","","","","","","","","","","","","key","f","16.67062831858474","720","446","j","false","img/S_ambi40.png","圆形","simultaneous",""
"","","","","","html-keyboard-response","374","991882","0.0-13.0-2.0-1.0-0.1-1.81","null","<span style='color:red; font-size: 70px;'>错误! </span>","null","","","","","","","","","","","","","","","","","","","","","","","feedback_test"
"","","","","","psychophysics","375","993809","0.0-13.0-2.0-1.0-0.1-0.82","925","","f","","","","","","","","","","","","","key","f","16.665999999999993","720","446","f","true","img/C_ambi40.png","圆形","simultaneous",""
"","","","","","html-keyboard-response","376","994113","0.0-13.0-2.0-1.0-0.1-1.82","null","<span style='color:GreenYellow; font-size: 70px;'>正确! </span>","null","","","","","","","","","","","","","","","","","","","","","","","feedback_test"
"","","","","","psychophysics","377","996131","0.0-13.0-2.0-1.0-0.1-0.83","1013","","f","","","","","","","","","","","","","key","f","16.66600000000035","720","446","f","true","img/S_ambi40.png","方形","simultaneous",""
"","","","","","html-keyboard-response","378","996433","0.0-13.0-2.0-1.0-0.1-1.83","null","<span style='color:GreenYellow; font-size: 70px;'>正确! </span>","null","","","","","","","","","","","","","","","","","","","","","","","feedback_test"
"","","","","","psychophysics","379","998272","0.0-13.0-2.0-1.0-0.1-0.84","835","","j","","","","","","","","","","","","","key","j","16.666000000000377","720","446","j","true","img/T_ambi40.png","圆形","simultaneous",""
"","","","","","html-keyboard-response","380","998577","0.0-13.0-2.0-1.0-0.1-1.84","null","<span style='color:GreenYellow; font-size: 70px;'>正确! </span>","null","","","","","","","","","","","","","","","","","","","","","","","feedback_test"
"","","","","","psychophysics","381","1000451","0.0-13.0-2.0-1.0-0.1-0.85","866","","f","","","","","","","","","","","","","key","f","16.666000000000558","720","446","f","true","img/C_ambi40.png","圆形","simultaneous",""
"","","","","","html-keyboard-response","382","1000755","0.0-13.0-2.0-1.0-0.1-1.85","null","<span style='color:GreenYellow; font-size: 70px;'>正确! </span>","null","","","","","","","","","","","","","","","","","","","","","","","feedback_test"
"","","","","","psychophysics","383","1002490","0.0-13.0-2.0-1.0-0.1-0.86","725","","f","","","","","","","","","","","","","key","f","16.665999999999983","720","446","f","true","img/S_ambi40.png","方形","simultaneous",""
"","","","","","html-keyboard-response","384","1002793","0.0-13.0-2.0-1.0-0.1-1.86","null","<span style='color:GreenYellow; font-size: 70px;'>正确! </span>","null","","","","","","","","","","","","","","","","","","","","","","","feedback_test"
"","","","","","psychophysics","385","1004483","0.0-13.0-2.0-1.0-0.1-0.87","684","","j","","","","","","","","","","","","","key","j","16.665999999999457","720","446","j","true","img/S_ambi40.png","圆形","simultaneous",""
"","","","","","html-keyboard-response","386","1004790","0.0-13.0-2.0-1.0-0.1-1.87","null","<span style='color:GreenYellow; font-size: 70px;'>正确! </span>","null","","","","","","","","","","","","","","","","","","","","","","","feedback_test"
"","","","","","psychophysics","387","1006594","0.0-13.0-2.0-1.0-0.1-0.88","797","","j","","","","","","","","","","","","","key","j","16.665999999999887","720","446","j","true","img/S_ambi40.png","三角","simultaneous",""
"","","","","","html-keyboard-response","388","1006900","0.0-13.0-2.0-1.0-0.1-1.88","null","<span style='color:GreenYellow; font-size: 70px;'>正确! </span>","null","","","","","","","","","","","","","","","","","","","","","","","feedback_test"
"","","","","","psychophysics","389","1009141","0.0-13.0-2.0-1.0-0.1-0.89","1239","","j","","","","","","","","","","","","","key","j","16.665999999999848","720","446","j","true","img/C_ambi40.png","三角","simultaneous",""
"","","","","","html-keyboard-response","390","1009450","0.0-13.0-2.0-1.0-0.1-1.89","null","<span style='color:GreenYellow; font-size: 70px;'>正确! </span>","null","","","","","","","","","","","","","","","","","","","","","","","feedback_test"
"","","","","","psychophysics","391","1011239","0.0-13.0-2.0-1.0-0.1-0.90","778","","f","","","","","","","","","","","","","key","f","16.666000000000185","720","446","f","true","img/C_ambi40.png","圆形","simultaneous",""
"","","","","","html-keyboard-response","392","1011550","0.0-13.0-2.0-1.0-0.1-1.90","null","<span style='color:GreenYellow; font-size: 70px;'>正确! </span>","null","","","","","","","","","","","","","","","","","","","","","","","feedback_test"
"","","","","","psychophysics","393","1013590","0.0-13.0-2.0-1.0-0.1-0.91","1037","","f","","","","","","","","","","","","","key","f","16.670363636363167","720","446","f","true","img/T_ambi40.png","三角","simultaneous",""
"","","","","","html-keyboard-response","394","1013902","0.0-13.0-2.0-1.0-0.1-1.91","null","<span style='color:GreenYellow; font-size: 70px;'>正确! </span>","null","","","","","","","","","","","","","","","","","","","","","","","feedback_test"
"","","","","","psychophysics","395","1015776","0.0-13.0-2.0-1.0-0.1-0.92","867","","j","","","","","","","","","","","","","key","j","16.665999999999798","720","446","f","false","img/T_ambi40.png","三角","simultaneous",""
"","","","","","html-keyboard-response","396","1016085","0.0-13.0-2.0-1.0-0.1-1.92","null","<span style='color:red; font-size: 70px;'>错误! </span>","null","","","","","","","","","","","","","","","","","","","","","","","feedback_test"
"","","","","","psychophysics","397","1018209","0.0-13.0-2.0-1.0-0.1-0.93","1117","","j","","","","","","","","","","","","","key","j","16.665999999999748","720","446","j","true","img/T_ambi40.png","方形","simultaneous",""
"","","","","","html-keyboard-response","398","1018518","0.0-13.0-2.0-1.0-0.1-1.93","null","<span style='color:GreenYellow; font-size: 70px;'>正确! </span>","null","","","","","","","","","","","","","","","","","","","","","","","feedback_test"
"","","","","","psychophysics","399","1020681","0.0-13.0-2.0-1.0-0.1-0.94","1156","","j","","","","","","","","","","","","","key","j","16.666000000000167","720","446","j","true","img/C_ambi40.png","方形","simultaneous",""
"","","","","","html-keyboard-response","400","1020985","0.0-13.0-2.0-1.0-0.1-1.94","null","<span style='color:GreenYellow; font-size: 70px;'>正确! </span>","null","","","","","","","","","","","","","","","","","","","","","","","feedback_test"
"","","","","","psychophysics","401","1022784","0.0-13.0-2.0-1.0-0.1-0.95","796","","f","","","","","","","","","","","","","key","f","16.666000000000974","720","446","f","true","img/S_ambi40.png","方形","simultaneous",""
"","","","","","html-keyboard-response","402","1023092","0.0-13.0-2.0-1.0-0.1-1.95","null","<span style='color:GreenYellow; font-size: 70px;'>正确! </span>","null","","","","","","","","","","","","","","","","","","","","","","","feedback_test"
"","","","","","psychophysics","403","1024823","0.0-13.0-2.0-1.0-0.1-0.96","723","","j","","","","","","","","","","","","","key","j","16.665999999999983","720","446","f","false","img/C_ambi40.png","圆形","simultaneous",""
"","","","","","html-keyboard-response","404","1025132","0.0-13.0-2.0-1.0-0.1-1.96","null","<span style='color:red; font-size: 70px;'>错误! </span>","null","","","","","","","","","","","","","","","","","","","","","","","feedback_test"
"","","","","","psychophysics","405","1026903","0.0-13.0-2.0-1.0-0.1-0.97","769","","f","","","","","","","","","","","","","key","f","16.666000000000487","720","446","f","true","img/S_ambi40.png","方形","simultaneous",""
"","","","","","html-keyboard-response","406","1027212","0.0-13.0-2.0-1.0-0.1-1.97","null","<span style='color:GreenYellow; font-size: 70px;'>正确! </span>","null","","","","","","","","","","","","","","","","","","","","","","","feedback_test"
"","","","","","psychophysics","407","1029046","0.0-13.0-2.0-1.0-0.1-0.98","829","","j","","","","","","","","","","","","","key","j","16.666000000000377","720","446","j","true","img/S_ambi40.png","圆形","simultaneous",""
"","","","","","html-keyboard-response","408","1029357","0.0-13.0-2.0-1.0-0.1-1.98","null","<span style='color:GreenYellow; font-size: 70px;'>正确! </span>","null","","","","","","","","","","","","","","","","","","","","","","","feedback_test"
"","","","","","psychophysics","409","1031508","0.0-13.0-2.0-1.0-0.1-0.99","1144","","j","","","","","","","","","","","","","key","j","16.666000000000167","720","446","j","true","img/C_ambi40.png","方形","simultaneous",""
"","","","","","html-keyboard-response","410","1031810","0.0-13.0-2.0-1.0-0.1-1.99","null","<span style='color:GreenYellow; font-size: 70px;'>正确! </span>","null","","","","","","","","","","","","","","","","","","","","","","","feedback_test"
"","","","","","psychophysics","411","1033739","0.0-13.0-2.0-1.0-0.1-0.100","923","","j","","","","","","","","","","","","","key","j","16.670608695652135","720","446","j","true","img/T_ambi40.png","圆形","simultaneous",""
"","","","","","html-keyboard-response","412","1034043","0.0-13.0-2.0-1.0-0.1-1.100","null","<span style='color:GreenYellow; font-size: 70px;'>正确! </span>","null","","","","","","","","","","","","","","","","","","","","","","","feedback_test"
"","","","","","psychophysics","413","1035876","0.0-13.0-2.0-1.0-0.1-0.101","826","","j","","","","","","","","","","","","","key","j","16.666000000000377","720","446","j","true","img/C_ambi40.png","三角","simultaneous",""
"","","","","","html-keyboard-response","414","1036182","0.0-13.0-2.0-1.0-0.1-1.101","null","<span style='color:GreenYellow; font-size: 70px;'>正确! </span>","null","","","","","","","","","","","","","","","","","","","","","","","feedback_test"
"","","","","","psychophysics","415","1037909","0.0-13.0-2.0-1.0-0.1-0.102","726","","f","","","","","","","","","","","","","key","f","16.66600000000029","720","446","f","true","img/C_ambi40.png","圆形","simultaneous",""
"","","","","","html-keyboard-response","416","1038222","0.0-13.0-2.0-1.0-0.1-1.102","null","<span style='color:GreenYellow; font-size: 70px;'>正确! </span>","null","","","","","","","","","","","","","","","","","","","","","","","feedback_test"
"","","","","","psychophysics","417","1039985","0.0-13.0-2.0-1.0-0.1-0.103","760","","f","","","","","","","","","","","","","key","f","16.666000000000487","720","446","f","true","img/T_ambi40.png","三角","simultaneous",""
"","","","","","html-keyboard-response","418","1040293","0.0-13.0-2.0-1.0-0.1-1.103","null","<span style='color:GreenYellow; font-size: 70px;'>正确! </span>","null","","","","","","","","","","","","","","","","","","","","","","","feedback_test"
"","","","","","psychophysics","419","1042053","0.0-13.0-2.0-1.0-0.1-0.104","755","","j","","","","","","","","","","","","","key","j","16.666000000000487","720","446","j","true","img/T_ambi40.png","方形","simultaneous",""
"","","","","","html-keyboard-response","420","1042363","0.0-13.0-2.0-1.0-0.1-1.104","null","<span style='color:GreenYellow; font-size: 70px;'>正确! </span>","null","","","","","","","","","","","","","","","","","","","","","","","feedback_test"
"","","","","","psychophysics","421","1044181","0.0-13.0-2.0-1.0-0.1-0.105","815","","f","","","","","","","","","","","","","key","f","16.665999999999595","720","446","f","true","img/T_ambi40.png","三角","simultaneous",""
"","","","","","html-keyboard-response","422","1044494","0.0-13.0-2.0-1.0-0.1-1.105","null","<span style='color:GreenYellow; font-size: 70px;'>正确! </span>","null","","","","","","","","","","","","","","","","","","","","","","","feedback_test"
"","","","","","psychophysics","423","1046230","0.0-13.0-2.0-1.0-0.1-0.106","731","","f","","","","","","","","","","","","","key","f","16.665999999999983","720","446","f","true","img/S_ambi40.png","方形","simultaneous",""
"","","","","","html-keyboard-response","424","1046538","0.0-13.0-2.0-1.0-0.1-1.106","null","<span style='color:GreenYellow; font-size: 70px;'>正确! </span>","null","","","","","","","","","","","","","","","","","","","","","","","feedback_test"
"","","","","","psychophysics","425","1048264","0.0-13.0-2.0-1.0-0.1-0.107","715","","j","","","","","","","","","","","","","key","j","16.66599999999915","720","446","j","true","img/S_ambi40.png","三角","simultaneous",""
"","","","","","html-keyboard-response","426","1048571","0.0-13.0-2.0-1.0-0.1-1.107","null","<span style='color:GreenYellow; font-size: 70px;'>正确! </span>","null","","","","","","","","","","","","","","","","","","","","","","","feedback_test"
"","","","","","psychophysics","427","1050272","0.0-13.0-2.0-1.0-0.1-0.108","693","","f","","","","","","","","","","","","","key","f","16.666000000000608","720","446","f","true","img/C_ambi40.png","圆形","simultaneous",""
"","","","","","html-keyboard-response","428","1050578","0.0-13.0-2.0-1.0-0.1-1.108","null","<span style='color:GreenYellow; font-size: 70px;'>正确! </span>","null","","","","","","","","","","","","","","","","","","","","","","","feedback_test"
"","","","","","psychophysics","429","1052407","0.0-13.0-2.0-1.0-0.1-0.109","824","","f","","","","","","","","","","","","","key","f","16.670798165136265","720","446","f","true","img/T_ambi40.png","三角","simultaneous",""
"","","","","","html-keyboard-response","430","1052718","0.0-13.0-2.0-1.0-0.1-1.109","null","<span style='color:GreenYellow; font-size: 70px;'>正确! </span>","null","","","","","","","","","","","","","","","","","","","","","","","feedback_test"
"","","","","","psychophysics","431","1054463","0.0-13.0-2.0-1.0-0.1-0.110","737","","f","","","","","","","","","","","","","key","f","16.665999999999983","720","446","f","true","img/S_ambi40.png","方形","simultaneous",""
"","","","","","html-keyboard-response","432","1054773","0.0-13.0-2.0-1.0-0.1-1.110","null","<span style='color:GreenYellow; font-size: 70px;'>正确! </span>","null","","","","","","","","","","","","","","","","","","","","","","","feedback_test"
