"success","timeout","failed_images","failed_audio","failed_video","trial_type","trial_index","time_elapsed","internal_node_id","rt","stimulus","response","value","item_width_mm","item_height_mm","item_width_px","px2mm","view_dist_mm","item_width_deg","px2deg","scale_factor","win_width_deg","win_height_deg","view_history","response_type","key_press","avg_frame_time","center_x","center_y","correct_response","correct","Image","word","condition","screen_id"
"true","false","[]","[]","[]","preload","0","414","0.0-0.0","","","","","","","","","","","","","","","","","","","","","","","","","",""
"","","","","","html-keyboard-response","1","96420","0.0-1.0","96004","
   <p>您好，欢迎参加本次实验。</p>
   <p>为充分保障您的权利，请确保您已经知晓并同意《参与实验同意书》以及《数据公开知情同意书》。</p>
   <p>如果您未见过上述内容，请咨询实验员。</p>
   <p>如果您选择继续实验，则表示您已经清楚两份知情同意书的内容并同意。</p>
   <p> <div style = ""color: green""><按任意键至下页></div> </p>
   ","arrowdown","","","","","","","","","","","","","","","","","","","","","","",""
"","","","","","html-keyboard-response","2","98101","0.0-2.0","1681","
   <p>本实验首先需要您填写一些基本个人信息。</p>
   <p> <div style = ""color: green""><按任意键至下页></div></p>
   ","arrowdown","","","","","","","","","","","","","","","","","","","","","","",""
"","","","","","call-function","3","98102","0.0-3.0-0.0","","","","","","","","","","","","","","","","","","","","","","","","","",""
"","","","","","survey-html-form","4","101714","0.0-3.0-1.0","3592","","{""Q0"":""3""}","","","","","","","","","","","","","","","","","","","","","","",""
"","","","","","html-button-response","5","102721","0.0-3.0-2.0","1006","<p style = 'color : white'>您的性别</p>","0","","","","","","","","","","","","","","","","","","","","","","",""
"","","","","","survey-html-form","6","106417","0.0-3.0-3.0","3695","","{""Q0"":""1995""}","","","","","","","","","","","","","","","","","","","","","","",""
"","","","","","survey-html-form","7","108657","0.0-3.0-4.0","2239","","{""Q0"":""7""}","","","","","","","","","","","","","","","","","","","","","","",""
"","","","","","virtual-chinrest","8","228412","0.0-4.0","119753","","","","85.6","53.98","539.7946217924662","6.302314170665967","452.95","10.795892435849323","50","0.7076765580426009","30.72","14.44","","","","","","","","","","","",""
"true","","","","","fullscreen","9","238096","0.0-5.0","","","","","","","","","","","","","","","","","","","","","","","","","",""
"","","","","","instructions","10","289023","0.0-6.0","50927","","","","","","","","","","","","","","[{""page_index"":0,""viewing_time"":4400},{""page_index"":1,""viewing_time"":26529},{""page_index"":2,""viewing_time"":15836},{""page_index"":3,""viewing_time"":4162}]","","","","","","","","","","",""
"","","","","","psychophysics","11","291682","0.0-7.0-0.0-0.0","null","","null","","","","","","","","","","","","","key","null","16.661246835443123","768","428","f","false","img/C_ambi40.png","三角","prac_image_first",""
"","","","","","html-keyboard-response","12","291984","0.0-7.0-0.0-1.0","null","<span class='add_' style='color:yellow; font-size: 70px;'> 太慢! </span>","null","","","","","","","","","","","","","","","","","","","","","","","feedback_test"
"","","","","","psychophysics","13","293836","0.0-7.0-0.0-0.1","701","","j","","","","","","","","","","","","","key","j","16.660527272727233","768","428","j","true","img/S_ambi40.png","方形","prac_image_first",""
"","","","","","html-keyboard-response","14","294136","0.0-7.0-0.0-1.1","null","<span style='color:GreenYellow; font-size: 70px;'>正确! </span>","null","","","","","","","","","","","","","","","","","","","","","","","feedback_test"
"","","","","","psychophysics","15","295923","0.0-7.0-0.0-0.2","635","","j","","","","","","","","","","","","","key","j","16.661575471697912","768","428","j","true","img/C_ambi40.png","圆形","prac_image_first",""
"","","","","","html-keyboard-response","16","296223","0.0-7.0-0.0-1.2","null","<span style='color:GreenYellow; font-size: 70px;'>正确! </span>","null","","","","","","","","","","","","","","","","","","","","","","","feedback_test"
"","","","","","psychophysics","17","298077","0.0-7.0-0.0-0.3","701","","j","","","","","","","","","","","","","key","j","16.66099999999966","768","428","j","true","img/T_ambi40.png","三角","prac_image_first",""
"","","","","","html-keyboard-response","18","298378","0.0-7.0-0.0-1.3","null","<span style='color:GreenYellow; font-size: 70px;'>正确! </span>","null","","","","","","","","","","","","","","","","","","","","","","","feedback_test"
"","","","","","psychophysics","19","301030","0.0-7.0-0.0-0.4","null","","null","","","","","","","","","","","","","key","null","16.656183544303957","768","428","f","false","img/T_ambi40.png","圆形","prac_image_first",""
"","","","","","html-keyboard-response","20","301332","0.0-7.0-0.0-1.4","null","<span class='add_' style='color:yellow; font-size: 70px;'> 太慢! </span>","null","","","","","","","","","","","","","","","","","","","","","","","feedback_test"
"","","","","","psychophysics","21","303325","0.0-7.0-0.0-0.5","841","","j","","","","","","","","","","","","","key","j","16.66190677966135","768","428","j","true","img/C_ambi40.png","圆形","prac_image_first",""
"","","","","","html-keyboard-response","22","303626","0.0-7.0-0.0-1.5","null","<span style='color:GreenYellow; font-size: 70px;'>正确! </span>","null","","","","","","","","","","","","","","","","","","","","","","","feedback_test"
"","","","","","psychophysics","23","305330","0.0-7.0-0.0-0.6","553","","j","","","","","","","","","","","","","key","j","16.663078431372174","768","428","j","true","img/T_ambi40.png","三角","prac_image_first",""
"","","","","","html-keyboard-response","24","305630","0.0-7.0-0.0-1.6","null","<span style='color:GreenYellow; font-size: 70px;'>正确! </span>","null","","","","","","","","","","","","","","","","","","","","","","","feedback_test"
"","","","","","psychophysics","25","308015","0.0-7.0-0.0-0.7","1233","","j","","","","","","","","","","","","","key","j","16.66093661971833","768","428","j","true","img/S_ambi40.png","方形","prac_image_first",""
"","","","","","html-keyboard-response","26","308316","0.0-7.0-0.0-1.7","null","<span style='color:GreenYellow; font-size: 70px;'>正确! </span>","null","","","","","","","","","","","","","","","","","","","","","","","feedback_test"
"","","","","","psychophysics","27","310969","0.0-7.0-0.0-0.8","null","","null","","","","","","","","","","","","","key","null","16.660955696202787","768","428","f","false","img/S_ambi40.png","圆形","prac_image_first",""
"","","","","","html-keyboard-response","28","311270","0.0-7.0-0.0-1.8","null","<span class='add_' style='color:yellow; font-size: 70px;'> 太慢! </span>","null","","","","","","","","","","","","","","","","","","","","","","","feedback_test"
"","","","","","psychophysics","29","312752","0.0-7.0-0.0-0.9","330","","j","","","","","","","","","","","","","key","j","16.662522727273014","768","428","f","false","img/T_ambi40.png","方形","prac_image_first",""
"","","","","","html-keyboard-response","30","313053","0.0-7.0-0.0-1.9","null","<span style='color:red; font-size: 70px;'>错误! </span>","null","","","","","","","","","","","","","","","","","","","","","","","feedback_test"
"","","","","","psychophysics","31","315705","0.0-7.0-0.0-0.10","null","","null","","","","","","","","","","","","","key","null","16.660727848101015","768","428","f","false","img/C_ambi40.png","方形","prac_image_first",""
"","","","","","html-keyboard-response","32","316008","0.0-7.0-0.0-1.10","null","<span class='add_' style='color:yellow; font-size: 70px;'> 太慢! </span>","null","","","","","","","","","","","","","","","","","","","","","","","feedback_test"
"","","","","","psychophysics","33","318662","0.0-7.0-0.0-0.11","null","","null","","","","","","","","","","","","","key","null","16.661278481012772","768","428","f","false","img/S_ambi40.png","三角","prac_image_first",""
"","","","","","html-keyboard-response","34","318962","0.0-7.0-0.0-1.11","null","<span class='add_' style='color:yellow; font-size: 70px;'> 太慢! </span>","null","","","","","","","","","","","","","","","","","","","","","","","feedback_test"
"","","","","","psychophysics","35","320757","0.0-7.0-0.0-0.12","644","","f","","","","","","","","","","","","","key","f","16.661112149532723","768","428","f","true","img/T_ambi40.png","方形","prac_image_first",""
"","","","","","html-keyboard-response","36","321059","0.0-7.0-0.0-1.12","null","<span style='color:GreenYellow; font-size: 70px;'>正确! </span>","null","","","","","","","","","","","","","","","","","","","","","","","feedback_test"
"","","","","","psychophysics","37","322891","0.0-7.0-0.0-0.13","680","","j","","","","","","","","","","","","","key","j","16.66040366972474","768","428","j","true","img/C_ambi40.png","圆形","prac_image_first",""
"","","","","","html-keyboard-response","38","323193","0.0-7.0-0.0-1.13","null","<span style='color:GreenYellow; font-size: 70px;'>正确! </span>","null","","","","","","","","","","","","","","","","","","","","","","","feedback_test"
"","","","","","psychophysics","39","324968","0.0-7.0-0.0-0.14","625","","j","","","","","","","","","","","","","key","j","16.661485714285767","768","428","j","true","img/S_ambi40.png","方形","prac_image_first",""
"","","","","","html-keyboard-response","40","325270","0.0-7.0-0.0-1.14","null","<span style='color:GreenYellow; font-size: 70px;'>正确! </span>","null","","","","","","","","","","","","","","","","","","","","","","","feedback_test"
"","","","","","psychophysics","41","327023","0.0-7.0-0.0-0.15","603","","f","","","","","","","","","","","","","key","f","16.660615384615646","768","428","f","true","img/C_ambi40.png","方形","prac_image_first",""
"","","","","","html-keyboard-response","42","327324","0.0-7.0-0.0-1.15","null","<span style='color:GreenYellow; font-size: 70px;'>正确! </span>","null","","","","","","","","","","","","","","","","","","","","","","","feedback_test"
"","","","","","psychophysics","43","329034","0.0-7.0-0.0-0.16","559","","j","","","","","","","","","","","","","key","j","16.661683168316994","768","428","j","true","img/T_ambi40.png","三角","prac_image_first",""
"","","","","","html-keyboard-response","44","329336","0.0-7.0-0.0-1.16","null","<span style='color:GreenYellow; font-size: 70px;'>正确! </span>","null","","","","","","","","","","","","","","","","","","","","","","","feedback_test"
"","","","","","psychophysics","45","330998","0.0-7.0-0.0-0.17","511","","j","","","","","","","","","","","","","key","j","16.660663265306074","768","428","j","true","img/T_ambi40.png","三角","prac_image_first",""
"","","","","","html-keyboard-response","46","331301","0.0-7.0-0.0-1.17","null","<span style='color:GreenYellow; font-size: 70px;'>正确! </span>","null","","","","","","","","","","","","","","","","","","","","","","","feedback_test"
"","","","","","psychophysics","47","333039","0.0-7.0-0.0-0.18","588","","j","","","","","","","","","","","","","key","j","16.65597087378643","768","428","j","true","img/C_ambi40.png","圆形","prac_image_first",""
"","","","","","html-keyboard-response","48","333340","0.0-7.0-0.0-1.18","null","<span style='color:GreenYellow; font-size: 70px;'>正确! </span>","null","","","","","","","","","","","","","","","","","","","","","","","feedback_test"
"","","","","","psychophysics","49","335043","0.0-7.0-0.0-0.19","551","","j","","","","","","","","","","","","","key","j","16.659435643564382","768","428","f","false","img/S_ambi40.png","圆形","prac_image_first",""
"","","","","","html-keyboard-response","50","335344","0.0-7.0-0.0-1.19","null","<span style='color:red; font-size: 70px;'>错误! </span>","null","","","","","","","","","","","","","","","","","","","","","","","feedback_test"
"","","","","","psychophysics","51","337079","0.0-7.0-0.0-0.20","583","","f","","","","","","","","","","","","","key","f","16.66139805825253","768","428","j","false","img/S_ambi40.png","方形","prac_image_first",""
"","","","","","html-keyboard-response","52","337381","0.0-7.0-0.0-1.20","null","<span style='color:red; font-size: 70px;'>错误! </span>","null","","","","","","","","","","","","","","","","","","","","","","","feedback_test"
"","","","","","psychophysics","53","339186","0.0-7.0-0.0-0.21","652","","f","","","","","","","","","","","","","key","f","16.65041121495311","768","428","f","true","img/T_ambi40.png","圆形","prac_image_first",""
"","","","","","html-keyboard-response","54","339489","0.0-7.0-0.0-1.21","null","<span style='color:GreenYellow; font-size: 70px;'>正确! </span>","null","","","","","","","","","","","","","","","","","","","","","","","feedback_test"
"","","","","","psychophysics","55","341510","0.0-7.0-0.0-0.22","870","","f","","","","","","","","","","","","","key","f","16.66087499999994","768","428","f","true","img/C_ambi40.png","三角","prac_image_first",""
"","","","","","html-keyboard-response","56","341811","0.0-7.0-0.0-1.22","null","<span style='color:GreenYellow; font-size: 70px;'>正确! </span>","null","","","","","","","","","","","","","","","","","","","","","","","feedback_test"
"","","","","","psychophysics","57","343630","0.0-7.0-0.0-0.23","667","","f","","","","","","","","","","","","","key","f","16.66259259259257","768","428","f","true","img/S_ambi40.png","三角","prac_image_first",""
"","","","","","html-keyboard-response","58","343931","0.0-7.0-0.0-1.23","null","<span style='color:GreenYellow; font-size: 70px;'>正确! </span>","null","","","","","","","","","","","","","","","","","","","","","","","feedback_test"
"","","","","","html-keyboard-response","59","347415","0.0-8.0","3482","<style>.context{color:white; font-size: 35px; line-height:40px}</style>                            <div><p class='context'>您正确回答了67% 的试次。</p><p class='context'>您的平均反应时为691毫秒。</p><p class='context'>恭喜您完成这一阶段的练习。按任意键进入<span style='color: yellow;'>先文字后图形条件</span>的练习。</p></div>"," ","","","","","","","","","","","","","","","","","","","","","","",""
"","","","","","psychophysics","60","349246","0.0-9.0-0.0-0.0","675","","j","","","","","","","","","","","","","key","j","16.661222222221788","768","428","j","true","img/T_ambi40.png","三角","prac_word_first",""
"","","","","","html-keyboard-response","61","349548","0.0-9.0-0.0-1.0","null","<span style='color:GreenYellow; font-size: 70px;'>正确! </span>","null","","","","","","","","","","","","","","","","","","","","","","","feedback_test"
"","","","","","psychophysics","62","351274","0.0-9.0-0.0-0.1","575","","j","","","","","","","","","","","","","key","j","16.660833333333038","768","428","j","true","img/S_ambi40.png","方形","prac_word_first",""
"","","","","","html-keyboard-response","63","351575","0.0-9.0-0.0-1.1","null","<span style='color:GreenYellow; font-size: 70px;'>正确! </span>","null","","","","","","","","","","","","","","","","","","","","","","","feedback_test"
"","","","","","psychophysics","64","353220","0.0-9.0-0.0-0.2","493","","j","","","","","","","","","","","","","key","j","16.658969387755377","768","428","j","true","img/S_ambi40.png","方形","prac_word_first",""
"","","","","","html-keyboard-response","65","353523","0.0-9.0-0.0-1.2","null","<span style='color:GreenYellow; font-size: 70px;'>正确! </span>","null","","","","","","","","","","","","","","","","","","","","","","","feedback_test"
"","","","","","psychophysics","66","355203","0.0-9.0-0.0-0.3","529","","f","","","","","","","","","","","","","key","f","16.661849999999976","768","428","f","true","img/S_ambi40.png","三角","prac_word_first",""
"","","","","","html-keyboard-response","67","355505","0.0-9.0-0.0-1.3","null","<span style='color:GreenYellow; font-size: 70px;'>正确! </span>","null","","","","","","","","","","","","","","","","","","","","","","","feedback_test"
"","","","","","psychophysics","68","357249","0.0-9.0-0.0-0.4","592","","j","","","","","","","","","","","","","key","j","16.66010576923089","768","428","f","false","img/T_ambi40.png","圆形","prac_word_first",""
"","","","","","html-keyboard-response","69","357550","0.0-9.0-0.0-1.4","null","<span style='color:red; font-size: 70px;'>错误! </span>","null","","","","","","","","","","","","","","","","","","","","","","","feedback_test"
"","","","","","psychophysics","70","359292","0.0-9.0-0.0-0.5","590","","j","","","","","","","","","","","","","key","j","16.661970873786593","768","428","j","true","img/C_ambi40.png","圆形","prac_word_first",""
"","","","","","html-keyboard-response","71","359593","0.0-9.0-0.0-1.5","null","<span style='color:GreenYellow; font-size: 70px;'>正确! </span>","null","","","","","","","","","","","","","","","","","","","","","","","feedback_test"
"","","","","","psychophysics","72","361481","0.0-9.0-0.0-0.6","737","","f","","","","","","","","","","","","","key","f","16.661589285714268","768","428","f","true","img/C_ambi40.png","三角","prac_word_first",""
"","","","","","html-keyboard-response","73","361782","0.0-9.0-0.0-1.6","null","<span style='color:GreenYellow; font-size: 70px;'>正确! </span>","null","","","","","","","","","","","","","","","","","","","","","","","feedback_test"
"","","","","","psychophysics","74","363547","0.0-9.0-0.0-0.7","613","","f","","","","","","","","","","","","","key","f","16.660190476190543","768","428","f","true","img/C_ambi40.png","方形","prac_word_first",""
"","","","","","html-keyboard-response","75","363848","0.0-9.0-0.0-1.7","null","<span style='color:GreenYellow; font-size: 70px;'>正确! </span>","null","","","","","","","","","","","","","","","","","","","","","","","feedback_test"
"","","","","","psychophysics","76","365552","0.0-9.0-0.0-0.8","552","","f","","","","","","","","","","","","","key","f","16.66022772277189","768","428","f","true","img/T_ambi40.png","方形","prac_word_first",""
"","","","","","html-keyboard-response","77","365854","0.0-9.0-0.0-1.8","null","<span style='color:GreenYellow; font-size: 70px;'>正确! </span>","null","","","","","","","","","","","","","","","","","","","","","","","feedback_test"
"","","","","","psychophysics","78","367488","0.0-9.0-0.0-0.9","483","","j","","","","","","","","","","","","","key","j","16.660969072164963","768","428","j","true","img/T_ambi40.png","三角","prac_word_first",""
"","","","","","html-keyboard-response","79","367789","0.0-9.0-0.0-1.9","null","<span style='color:GreenYellow; font-size: 70px;'>正确! </span>","null","","","","","","","","","","","","","","","","","","","","","","","feedback_test"
"","","","","","psychophysics","80","369544","0.0-9.0-0.0-0.10","604","","f","","","","","","","","","","","","","key","f","16.66120192307706","768","428","f","true","img/S_ambi40.png","圆形","prac_word_first",""
"","","","","","html-keyboard-response","81","369845","0.0-9.0-0.0-1.10","null","<span style='color:GreenYellow; font-size: 70px;'>正确! </span>","null","","","","","","","","","","","","","","","","","","","","","","","feedback_test"
"","","","","","psychophysics","82","371594","0.0-9.0-0.0-0.11","596","","j","","","","","","","","","","","","","key","j","16.65957692307655","768","428","j","true","img/C_ambi40.png","圆形","prac_word_first",""
"","","","","","html-keyboard-response","83","371896","0.0-9.0-0.0-1.11","null","<span style='color:GreenYellow; font-size: 70px;'>正确! </span>","null","","","","","","","","","","","","","","","","","","","","","","","feedback_test"
"","","","","","psychophysics","84","373617","0.0-9.0-0.0-0.12","570","","f","","","","","","","","","","","","","key","f","16.661019607843127","768","428","f","true","img/S_ambi40.png","三角","prac_word_first",""
"","","","","","html-keyboard-response","85","373919","0.0-9.0-0.0-1.12","null","<span style='color:GreenYellow; font-size: 70px;'>正确! </span>","null","","","","","","","","","","","","","","","","","","","","","","","feedback_test"
"","","","","","psychophysics","86","375581","0.0-9.0-0.0-0.13","511","","j","","","","","","","","","","","","","key","j","16.66198989899001","768","428","j","true","img/C_ambi40.png","圆形","prac_word_first",""
"","","","","","html-keyboard-response","87","375882","0.0-9.0-0.0-1.13","null","<span style='color:GreenYellow; font-size: 70px;'>正确! </span>","null","","","","","","","","","","","","","","","","","","","","","","","feedback_test"
"","","","","","psychophysics","88","377527","0.0-9.0-0.0-0.14","493","","j","","","","","","","","","","","","","key","j","16.66044897959171","768","428","j","true","img/C_ambi40.png","圆形","prac_word_first",""
"","","","","","html-keyboard-response","89","377828","0.0-9.0-0.0-1.14","null","<span style='color:GreenYellow; font-size: 70px;'>正确! </span>","null","","","","","","","","","","","","","","","","","","","","","","","feedback_test"
"","","","","","psychophysics","90","379511","0.0-9.0-0.0-0.15","531","","f","","","","","","","","","","","","","key","f","16.66085000000021","768","428","j","false","img/S_ambi40.png","方形","prac_word_first",""
"","","","","","html-keyboard-response","91","379813","0.0-9.0-0.0-1.15","null","<span style='color:red; font-size: 70px;'>错误! </span>","null","","","","","","","","","","","","","","","","","","","","","","","feedback_test"
"","","","","","psychophysics","92","381429","0.0-9.0-0.0-0.16","465","","j","","","","","","","","","","","","","key","j","16.659666666666453","768","428","f","false","img/C_ambi40.png","三角","prac_word_first",""
"","","","","","html-keyboard-response","93","381730","0.0-9.0-0.0-1.16","null","<span style='color:red; font-size: 70px;'>错误! </span>","null","","","","","","","","","","","","","","","","","","","","","","","feedback_test"
"","","","","","psychophysics","94","383754","0.0-9.0-0.0-0.17","872","","j","","","","","","","","","","","","","key","j","16.662123966942374","768","428","j","true","img/S_ambi40.png","方形","prac_word_first",""
"","","","","","html-keyboard-response","95","384055","0.0-9.0-0.0-1.17","null","<span style='color:GreenYellow; font-size: 70px;'>正确! </span>","null","","","","","","","","","","","","","","","","","","","","","","","feedback_test"
"","","","","","psychophysics","96","385932","0.0-9.0-0.0-0.18","725","","f","","","","","","","","","","","","","key","f","16.66080180180169","768","428","f","true","img/T_ambi40.png","方形","prac_word_first",""
"","","","","","html-keyboard-response","97","386234","0.0-9.0-0.0-1.18","null","<span style='color:GreenYellow; font-size: 70px;'>正确! </span>","null","","","","","","","","","","","","","","","","","","","","","","","feedback_test"
"","","","","","psychophysics","98","387922","0.0-9.0-0.0-0.19","538","","f","","","","","","","","","","","","","key","f","16.660989999999874","768","428","f","true","img/C_ambi40.png","方形","prac_word_first",""
"","","","","","html-keyboard-response","99","388223","0.0-9.0-0.0-1.19","null","<span style='color:GreenYellow; font-size: 70px;'>正确! </span>","null","","","","","","","","","","","","","","","","","","","","","","","feedback_test"
"","","","","","psychophysics","100","389825","0.0-9.0-0.0-0.20","451","","j","","","","","","","","","","","","","key","j","16.661926315789184","768","428","f","false","img/S_ambi40.png","圆形","prac_word_first",""
"","","","","","html-keyboard-response","101","390126","0.0-9.0-0.0-1.20","null","<span style='color:red; font-size: 70px;'>错误! </span>","null","","","","","","","","","","","","","","","","","","","","","","","feedback_test"
"","","","","","psychophysics","102","391675","0.0-9.0-0.0-0.21","397","","j","","","","","","","","","","","","","key","j","16.66119565217409","768","428","j","true","img/T_ambi40.png","三角","prac_word_first",""
"","","","","","html-keyboard-response","103","391976","0.0-9.0-0.0-1.21","null","<span style='color:GreenYellow; font-size: 70px;'>正确! </span>","null","","","","","","","","","","","","","","","","","","","","","","","feedback_test"
"","","","","","psychophysics","104","393785","0.0-9.0-0.0-0.22","657","","j","","","","","","","","","","","","","key","j","16.66087037037047","768","428","j","true","img/T_ambi40.png","三角","prac_word_first",""
"","","","","","html-keyboard-response","105","394087","0.0-9.0-0.0-1.22","null","<span style='color:GreenYellow; font-size: 70px;'>正确! </span>","null","","","","","","","","","","","","","","","","","","","","","","","feedback_test"
"","","","","","psychophysics","106","395870","0.0-9.0-0.0-0.23","630","","f","","","","","","","","","","","","","key","f","16.660537735848987","768","428","f","true","img/T_ambi40.png","圆形","prac_word_first",""
"","","","","","html-keyboard-response","107","396172","0.0-9.0-0.0-1.23","null","<span style='color:GreenYellow; font-size: 70px;'>正确! </span>","null","","","","","","","","","","","","","","","","","","","","","","","feedback_test"
"","","","","","html-keyboard-response","108","398479","0.0-10.0","2304","<style>.context{color:white; font-size: 35px; line-height:40px}</style>                            <div><p class='context'>您正确回答了83% 的试次。</p><p class='context'>您的平均反应时为592毫秒。</p><p class='context'>恭喜您完成练习。按任意键进入<span style='color: yellow;'>图形和文字同时呈现条件</span>的练习。</p></div>"," ","","","","","","","","","","","","","","","","","","","","","","",""
"","","","","","psychophysics","109","400488","0.0-11.0-0.0-0.0","1004","","j","","","","","","","","","","","","","key","j","16.660806722689063","768","428","j","true","img/T_ambi40.png","三角","prac_simultaneous",""
"","","","","","html-keyboard-response","110","400790","0.0-11.0-0.0-1.0","null","<span style='color:GreenYellow; font-size: 70px;'>正确! </span>","null","","","","","","","","","","","","","","","","","","","","","","","feedback_test"
"","","","","","psychophysics","111","402498","0.0-11.0-0.0-0.1","707","","f","","","","","","","","","","","","","key","f","16.65979411764705","768","428","f","true","img/T_ambi40.png","圆形","prac_simultaneous",""
"","","","","","html-keyboard-response","112","402799","0.0-11.0-0.0-1.1","null","<span style='color:GreenYellow; font-size: 70px;'>正确! </span>","null","","","","","","","","","","","","","","","","","","","","","","","feedback_test"
"","","","","","psychophysics","113","404573","0.0-11.0-0.0-0.2","773","","f","","","","","","","","","","","","","key","f","16.661980952381246","768","428","f","true","img/S_ambi40.png","圆形","prac_simultaneous",""
"","","","","","html-keyboard-response","114","404874","0.0-11.0-0.0-1.2","null","<span style='color:GreenYellow; font-size: 70px;'>正确! </span>","null","","","","","","","","","","","","","","","","","","","","","","","feedback_test"
"","","","","","psychophysics","115","406515","0.0-11.0-0.0-0.3","639","","f","","","","","","","","","","","","","key","f","16.653783505154202","768","428","f","true","img/C_ambi40.png","三角","prac_simultaneous",""
"","","","","","html-keyboard-response","116","406816","0.0-11.0-0.0-1.3","null","<span style='color:GreenYellow; font-size: 70px;'>正确! </span>","null","","","","","","","","","","","","","","","","","","","","","","","feedback_test"
"","","","","","psychophysics","117","408530","0.0-11.0-0.0-0.4","713","","j","","","","","","","","","","","","","key","j","16.661117647058905","768","428","j","true","img/C_ambi40.png","圆形","prac_simultaneous",""
"","","","","","html-keyboard-response","118","408831","0.0-11.0-0.0-1.4","null","<span style='color:GreenYellow; font-size: 70px;'>正确! </span>","null","","","","","","","","","","","","","","","","","","","","","","","feedback_test"
"","","","","","psychophysics","119","410541","0.0-11.0-0.0-0.5","708","","j","","","","","","","","","","","","","key","j","16.660910891089472","768","428","j","true","img/S_ambi40.png","方形","prac_simultaneous",""
"","","","","","html-keyboard-response","120","410842","0.0-11.0-0.0-1.5","null","<span style='color:GreenYellow; font-size: 70px;'>正确! </span>","null","","","","","","","","","","","","","","","","","","","","","","","feedback_test"
"","","","","","psychophysics","121","412536","0.0-11.0-0.0-0.6","693","","f","","","","","","","","","","","","","key","f","16.66024000000034","768","428","f","true","img/C_ambi40.png","方形","prac_simultaneous",""
"","","","","","html-keyboard-response","122","412838","0.0-11.0-0.0-1.6","null","<span style='color:GreenYellow; font-size: 70px;'>正确! </span>","null","","","","","","","","","","","","","","","","","","","","","","","feedback_test"
"","","","","","psychophysics","123","414493","0.0-11.0-0.0-0.7","654","","j","","","","","","","","","","","","","key","j","16.66116161616178","768","428","j","true","img/S_ambi40.png","方形","prac_simultaneous",""
"","","","","","html-keyboard-response","124","414795","0.0-11.0-0.0-1.7","null","<span style='color:GreenYellow; font-size: 70px;'>正确! </span>","null","","","","","","","","","","","","","","","","","","","","","","","feedback_test"
"","","","","","psychophysics","125","416400","0.0-11.0-0.0-0.8","603","","f","","","","","","","","","","","","","key","f","16.66034736842113","768","428","f","true","img/S_ambi40.png","三角","prac_simultaneous",""
"","","","","","html-keyboard-response","126","416701","0.0-11.0-0.0-1.8","null","<span style='color:GreenYellow; font-size: 70px;'>正确! </span>","null","","","","","","","","","","","","","","","","","","","","","","","feedback_test"
"","","","","","psychophysics","127","418365","0.0-11.0-0.0-0.9","662","","j","","","","","","","","","","","","","key","j","16.66184848484835","768","428","j","true","img/T_ambi40.png","三角","prac_simultaneous",""
"","","","","","html-keyboard-response","128","418666","0.0-11.0-0.0-1.9","null","<span style='color:GreenYellow; font-size: 70px;'>正确! </span>","null","","","","","","","","","","","","","","","","","","","","","","","feedback_test"
"","","","","","psychophysics","129","420346","0.0-11.0-0.0-0.10","678","","f","","","","","","","","","","","","","key","f","16.66219999999972","768","428","f","true","img/T_ambi40.png","方形","prac_simultaneous",""
"","","","","","html-keyboard-response","130","420647","0.0-11.0-0.0-1.10","null","<span style='color:GreenYellow; font-size: 70px;'>正确! </span>","null","","","","","","","","","","","","","","","","","","","","","","","feedback_test"
"","","","","","psychophysics","131","422325","0.0-11.0-0.0-0.11","676","","f","","","","","","","","","","","","","key","f","16.659740000000458","768","428","j","false","img/C_ambi40.png","圆形","prac_simultaneous",""
"","","","","","html-keyboard-response","132","422626","0.0-11.0-0.0-1.11","null","<span style='color:red; font-size: 70px;'>错误! </span>","null","","","","","","","","","","","","","","","","","","","","","","","feedback_test"
"","","","","","psychophysics","133","424207","0.0-11.0-0.0-0.12","578","","j","","","","","","","","","","","","","key","j","16.66176595744625","768","428","j","true","img/S_ambi40.png","方形","prac_simultaneous",""
"","","","","","html-keyboard-response","134","424508","0.0-11.0-0.0-1.12","null","<span style='color:GreenYellow; font-size: 70px;'>正确! </span>","null","","","","","","","","","","","","","","","","","","","","","","","feedback_test"
"","","","","","psychophysics","135","426149","0.0-11.0-0.0-0.13","639","","f","","","","","","","","","","","","","key","f","16.66164948453601","768","428","f","true","img/T_ambi40.png","方形","prac_simultaneous",""
"","","","","","html-keyboard-response","136","426450","0.0-11.0-0.0-1.13","null","<span style='color:GreenYellow; font-size: 70px;'>正确! </span>","null","","","","","","","","","","","","","","","","","","","","","","","feedback_test"
"","","","","","psychophysics","137","428073","0.0-11.0-0.0-0.14","622","","j","","","","","","","","","","","","","key","j","16.66136082474229","768","428","j","true","img/C_ambi40.png","圆形","prac_simultaneous",""
"","","","","","html-keyboard-response","138","428375","0.0-11.0-0.0-1.14","null","<span style='color:GreenYellow; font-size: 70px;'>正确! </span>","null","","","","","","","","","","","","","","","","","","","","","","","feedback_test"
"","","","","","psychophysics","139","430010","0.0-11.0-0.0-0.15","634","","f","","","","","","","","","","","","","key","f","16.660773195876","768","428","f","true","img/S_ambi40.png","三角","prac_simultaneous",""
"","","","","","html-keyboard-response","140","430311","0.0-11.0-0.0-1.15","null","<span style='color:GreenYellow; font-size: 70px;'>正确! </span>","null","","","","","","","","","","","","","","","","","","","","","","","feedback_test"
"","","","","","psychophysics","141","431925","0.0-11.0-0.0-0.16","611","","j","","","","","","","","","","","","","key","j","16.662291666666835","768","428","j","true","img/T_ambi40.png","三角","prac_simultaneous",""
"","","","","","html-keyboard-response","142","432227","0.0-11.0-0.0-1.16","null","<span style='color:GreenYellow; font-size: 70px;'>正确! </span>","null","","","","","","","","","","","","","","","","","","","","","","","feedback_test"
"","","","","","psychophysics","143","433914","0.0-11.0-0.0-0.17","686","","f","","","","","","","","","","","","","key","f","16.660040000000155","768","428","f","true","img/T_ambi40.png","圆形","prac_simultaneous",""
"","","","","","html-keyboard-response","144","434215","0.0-11.0-0.0-1.17","null","<span style='color:GreenYellow; font-size: 70px;'>正确! </span>","null","","","","","","","","","","","","","","","","","","","","","","","feedback_test"
"","","","","","psychophysics","145","435681","0.0-11.0-0.0-0.18","465","","j","","","","","","","","","","","","","key","j","16.649302325581694","768","428","f","false","img/S_ambi40.png","圆形","prac_simultaneous",""
"","","","","","html-keyboard-response","146","435983","0.0-11.0-0.0-1.18","null","<span style='color:red; font-size: 70px;'>错误! </span>","null","","","","","","","","","","","","","","","","","","","","","","","feedback_test"
"","","","","","psychophysics","147","437545","0.0-11.0-0.0-0.19","560","","j","","","","","","","","","","","","","key","j","16.66238043478212","768","428","j","true","img/S_ambi40.png","方形","prac_simultaneous",""
"","","","","","html-keyboard-response","148","437846","0.0-11.0-0.0-1.19","null","<span style='color:GreenYellow; font-size: 70px;'>正确! </span>","null","","","","","","","","","","","","","","","","","","","","","","","feedback_test"
"","","","","","psychophysics","149","439419","0.0-11.0-0.0-0.20","573","","f","","","","","","","","","","","","","key","f","16.66148936170267","768","428","f","true","img/C_ambi40.png","方形","prac_simultaneous",""
"","","","","","html-keyboard-response","150","439720","0.0-11.0-0.0-1.20","null","<span style='color:GreenYellow; font-size: 70px;'>正确! </span>","null","","","","","","","","","","","","","","","","","","","","","","","feedback_test"
"","","","","","psychophysics","151","441296","0.0-11.0-0.0-0.21","573","","j","","","","","","","","","","","","","key","j","16.661064516128945","768","428","j","true","img/C_ambi40.png","圆形","prac_simultaneous",""
"","","","","","html-keyboard-response","152","441597","0.0-11.0-0.0-1.21","null","<span style='color:GreenYellow; font-size: 70px;'>正确! </span>","null","","","","","","","","","","","","","","","","","","","","","","","feedback_test"
"","","","","","psychophysics","153","443161","0.0-11.0-0.0-0.22","563","","f","","","","","","","","","","","","","key","f","16.661010869565477","768","428","f","true","img/C_ambi40.png","三角","prac_simultaneous",""
"","","","","","html-keyboard-response","154","443462","0.0-11.0-0.0-1.22","null","<span style='color:GreenYellow; font-size: 70px;'>正确! </span>","null","","","","","","","","","","","","","","","","","","","","","","","feedback_test"
"","","","","","psychophysics","155","445024","0.0-11.0-0.0-0.23","561","","j","","","","","","","","","","","","","key","j","16.65447826086956","768","428","j","true","img/T_ambi40.png","三角","prac_simultaneous",""
"","","","","","html-keyboard-response","156","445325","0.0-11.0-0.0-1.23","null","<span style='color:GreenYellow; font-size: 70px;'>正确! </span>","null","","","","","","","","","","","","","","","","","","","","","","","feedback_test"
"","","","","","html-keyboard-response","157","450720","0.0-12.0","5393","<style>.context{color:white; font-size: 35px; line-height:40px}</style>                            <div><p class='context'>您正确回答了92% 的试次。</p><p class='context'>您的平均反应时为656毫秒。</p><p class='context'>恭喜您完成练习。按任意键进入正式实验。</p><p class='footer' style='font-size: 35px; line-height:40px;'>请在进入正式实验实验之前将您的<span style='color: lightgreen;'>食指</span>放在电脑键盘的相应键位上进行按键。</p>"," ","","","","","","","","","","","","","","","","","","","","","","",""
"","","","","","html-keyboard-response","158","452140","0.0-13.0-1.0-0.0","1416","
    <p>请您将手指放在按键上，准备进入呈现顺序为<span style='color: yellow;'>先文字后图形条件</span>的正式匹配任务</p>
    <p> <div style = ""color: green""><按任意键进入下一阶段的匹配任务></div></p>
    "," ","","","","","","","","","","","","","","","","","","","","","","",""
"","","","","","psychophysics","159","454029","0.0-13.0-1.0-1.0-0.0-0.0","738","","f","","","","","","","","","","","","","key","f","16.66133628318558","768","428","f","true","img/S_ambi40.png","圆形","word_first",""
"","","","","","html-keyboard-response","160","454331","0.0-13.0-1.0-1.0-0.0-1.0","null","<span style='color:GreenYellow; font-size: 70px;'>正确! </span>","null","","","","","","","","","","","","","","","","","","","","","","","feedback_test"
"","","","","","psychophysics","161","456098","0.0-13.0-1.0-1.0-0.0-0.1","615","","f","","","","","","","","","","","","","key","f","16.6608476190473","768","428","f","true","img/T_ambi40.png","方形","word_first",""
"","","","","","html-keyboard-response","162","456400","0.0-13.0-1.0-1.0-0.0-1.1","null","<span style='color:GreenYellow; font-size: 70px;'>正确! </span>","null","","","","","","","","","","","","","","","","","","","","","","","feedback_test"
"","","","","","psychophysics","163","458200","0.0-13.0-1.0-1.0-0.0-0.2","646","","f","","","","","","","","","","","","","key","f","16.66307476635535","768","428","f","true","img/T_ambi40.png","圆形","word_first",""
"","","","","","html-keyboard-response","164","458501","0.0-13.0-1.0-1.0-0.0-1.2","null","<span style='color:GreenYellow; font-size: 70px;'>正确! </span>","null","","","","","","","","","","","","","","","","","","","","","","","feedback_test"
"","","","","","psychophysics","165","460140","0.0-13.0-1.0-1.0-0.0-0.3","488","","j","","","","","","","","","","","","","key","j","16.659536082473988","768","428","f","false","img/C_ambi40.png","三角","word_first",""
"","","","","","html-keyboard-response","166","460441","0.0-13.0-1.0-1.0-0.0-1.3","null","<span style='color:red; font-size: 70px;'>错误! </span>","null","","","","","","","","","","","","","","","","","","","","","","","feedback_test"
"","","","","","psychophysics","167","462179","0.0-13.0-1.0-1.0-0.0-0.4","586","","j","","","","","","","","","","","","","key","j","16.659776699029077","768","428","j","true","img/T_ambi40.png","三角","word_first",""
"","","","","","html-keyboard-response","168","462480","0.0-13.0-1.0-1.0-0.0-1.4","null","<span style='color:GreenYellow; font-size: 70px;'>正确! </span>","null","","","","","","","","","","","","","","","","","","","","","","","feedback_test"
"","","","","","psychophysics","169","464107","0.0-13.0-1.0-1.0-0.0-0.5","476","","j","","","","","","","","","","","","","key","j","16.66099999999968","768","428","j","true","img/C_ambi40.png","圆形","word_first",""
"","","","","","html-keyboard-response","170","464409","0.0-13.0-1.0-1.0-0.0-1.5","null","<span style='color:GreenYellow; font-size: 70px;'>正确! </span>","null","","","","","","","","","","","","","","","","","","","","","","","feedback_test"
"","","","","","psychophysics","171","466067","0.0-13.0-1.0-1.0-0.0-0.6","506","","j","","","","","","","","","","","","","key","j","16.66096938775534","768","428","j","true","img/T_ambi40.png","三角","word_first",""
"","","","","","html-keyboard-response","172","466369","0.0-13.0-1.0-1.0-0.0-1.6","null","<span style='color:GreenYellow; font-size: 70px;'>正确! </span>","null","","","","","","","","","","","","","","","","","","","","","","","feedback_test"
"","","","","","psychophysics","173","468157","0.0-13.0-1.0-1.0-0.0-0.7","636","","f","","","","","","","","","","","","","key","f","16.66071962616809","768","428","f","true","img/S_ambi40.png","三角","word_first",""
"","","","","","html-keyboard-response","174","468458","0.0-13.0-1.0-1.0-0.0-1.7","null","<span style='color:GreenYellow; font-size: 70px;'>正确! </span>","null","","","","","","","","","","","","","","","","","","","","","","","feedback_test"
"","","","","","psychophysics","175","470431","0.0-13.0-1.0-1.0-0.0-0.8","820","","j","","","","","","","","","","","","","key","j","16.66157264957298","768","428","j","true","img/S_ambi40.png","方形","word_first",""
"","","","","","html-keyboard-response","176","470732","0.0-13.0-1.0-1.0-0.0-1.8","null","<span style='color:GreenYellow; font-size: 70px;'>正确! </span>","null","","","","","","","","","","","","","","","","","","","","","","","feedback_test"
"","","","","","psychophysics","177","472352","0.0-13.0-1.0-1.0-0.0-0.9","469","","j","","","","","","","","","","","","","key","j","16.66116666666676","768","428","j","true","img/S_ambi40.png","方形","word_first",""
"","","","","","html-keyboard-response","178","472654","0.0-13.0-1.0-1.0-0.0-1.9","null","<span style='color:GreenYellow; font-size: 70px;'>正确! </span>","null","","","","","","","","","","","","","","","","","","","","","","","feedback_test"
"","","","","","psychophysics","179","474367","0.0-13.0-1.0-1.0-0.0-0.10","560","","j","","","","","","","","","","","","","key","j","16.66128712871324","768","428","j","true","img/C_ambi40.png","圆形","word_first",""
"","","","","","html-keyboard-response","180","474668","0.0-13.0-1.0-1.0-0.0-1.10","null","<span style='color:GreenYellow; font-size: 70px;'>正确! </span>","null","","","","","","","","","","","","","","","","","","","","","","","feedback_test"
"","","","","","psychophysics","181","476306","0.0-13.0-1.0-1.0-0.0-0.11","486","","f","","","","","","","","","","","","","key","f","16.661144329896846","768","428","f","true","img/C_ambi40.png","方形","word_first",""
"","","","","","html-keyboard-response","182","476608","0.0-13.0-1.0-1.0-0.0-1.11","null","<span style='color:GreenYellow; font-size: 70px;'>正确! </span>","null","","","","","","","","","","","","","","","","","","","","","","","feedback_test"
"","","","","","psychophysics","183","478422","0.0-13.0-1.0-1.0-0.0-0.12","663","","j","","","","","","","","","","","","","key","j","16.661259259258966","768","428","f","false","img/T_ambi40.png","圆形","word_first",""
"","","","","","html-keyboard-response","184","478723","0.0-13.0-1.0-1.0-0.0-1.12","null","<span style='color:red; font-size: 70px;'>错误! </span>","null","","","","","","","","","","","","","","","","","","","","","","","feedback_test"
"","","","","","psychophysics","185","480330","0.0-13.0-1.0-1.0-0.0-0.13","455","","j","","","","","","","","","","","","","key","j","16.661126315789787","768","428","f","false","img/S_ambi40.png","三角","word_first",""
"","","","","","html-keyboard-response","186","480632","0.0-13.0-1.0-1.0-0.0-1.13","null","<span style='color:red; font-size: 70px;'>错误! </span>","null","","","","","","","","","","","","","","","","","","","","","","","feedback_test"
"","","","","","psychophysics","187","482423","0.0-13.0-1.0-1.0-0.0-0.14","640","","j","","","","","","","","","","","","","key","j","16.66093457943899","768","428","j","true","img/S_ambi40.png","方形","word_first",""
"","","","","","html-keyboard-response","188","482724","0.0-13.0-1.0-1.0-0.0-1.14","null","<span style='color:GreenYellow; font-size: 70px;'>正确! </span>","null","","","","","","","","","","","","","","","","","","","","","","","feedback_test"
"","","","","","psychophysics","189","484386","0.0-13.0-1.0-1.0-0.0-0.15","509","","j","","","","","","","","","","","","","key","j","16.661636363636735","768","428","j","true","img/C_ambi40.png","圆形","word_first",""
"","","","","","html-keyboard-response","190","484689","0.0-13.0-1.0-1.0-0.0-1.15","null","<span style='color:GreenYellow; font-size: 70px;'>正确! </span>","null","","","","","","","","","","","","","","","","","","","","","","","feedback_test"
"","","","","","psychophysics","191","486269","0.0-13.0-1.0-1.0-0.0-0.16","428","","j","","","","","","","","","","","","","key","j","16.662021276596167","768","428","j","true","img/T_ambi40.png","三角","word_first",""
"","","","","","html-keyboard-response","192","486571","0.0-13.0-1.0-1.0-0.0-1.16","null","<span style='color:GreenYellow; font-size: 70px;'>正确! </span>","null","","","","","","","","","","","","","","","","","","","","","","","feedback_test"
"","","","","","psychophysics","193","488141","0.0-13.0-1.0-1.0-0.0-0.17","419","","j","","","","","","","","","","","","","key","j","16.66268817204306","768","428","j","true","img/T_ambi40.png","三角","word_first",""
"","","","","","html-keyboard-response","194","488442","0.0-13.0-1.0-1.0-0.0-1.17","null","<span style='color:GreenYellow; font-size: 70px;'>正确! </span>","null","","","","","","","","","","","","","","","","","","","","","","","feedback_test"
"","","","","","psychophysics","195","489991","0.0-13.0-1.0-1.0-0.0-0.18","398","","j","","","","","","","","","","","","","key","j","16.660913043478303","768","428","j","true","img/S_ambi40.png","方形","word_first",""
"","","","","","html-keyboard-response","196","490292","0.0-13.0-1.0-1.0-0.0-1.18","null","<span style='color:GreenYellow; font-size: 70px;'>正确! </span>","null","","","","","","","","","","","","","","","","","","","","","","","feedback_test"
"","","","","","psychophysics","197","491866","0.0-13.0-1.0-1.0-0.0-0.19","420","","f","","","","","","","","","","","","","key","f","16.660425531915067","768","428","f","true","img/C_ambi40.png","三角","word_first",""
"","","","","","html-keyboard-response","198","492168","0.0-13.0-1.0-1.0-0.0-1.19","null","<span style='color:GreenYellow; font-size: 70px;'>正确! </span>","null","","","","","","","","","","","","","","","","","","","","","","","feedback_test"
"","","","","","psychophysics","199","493900","0.0-13.0-1.0-1.0-0.0-0.20","582","","j","","","","","","","","","","","","","key","j","16.661883495145624","768","428","f","false","img/C_ambi40.png","方形","word_first",""
"","","","","","html-keyboard-response","200","494202","0.0-13.0-1.0-1.0-0.0-1.20","null","<span style='color:red; font-size: 70px;'>错误! </span>","null","","","","","","","","","","","","","","","","","","","","","","","feedback_test"
"","","","","","psychophysics","201","495711","0.0-13.0-1.0-1.0-0.0-0.21","356","","j","","","","","","","","","","","","","key","j","16.661943820224725","768","428","j","true","img/C_ambi40.png","圆形","word_first",""
"","","","","","html-keyboard-response","202","496012","0.0-13.0-1.0-1.0-0.0-1.21","null","<span style='color:GreenYellow; font-size: 70px;'>正确! </span>","null","","","","","","","","","","","","","","","","","","","","","","","feedback_test"
"","","","","","psychophysics","203","497896","0.0-13.0-1.0-1.0-0.0-0.22","733","","j","","","","","","","","","","","","","key","j","16.66112499999976","768","428","f","false","img/S_ambi40.png","圆形","word_first",""
"","","","","","html-keyboard-response","204","498198","0.0-13.0-1.0-1.0-0.0-1.22","null","<span style='color:red; font-size: 70px;'>错误! </span>","null","","","","","","","","","","","","","","","","","","","","","","","feedback_test"
"","","","","","psychophysics","205","500055","0.0-13.0-1.0-1.0-0.0-0.23","707","","f","","","","","","","","","","","","","key","f","16.659945454545827","768","428","f","true","img/T_ambi40.png","方形","word_first",""
"","","","","","html-keyboard-response","206","500357","0.0-13.0-1.0-1.0-0.0-1.23","null","<span style='color:GreenYellow; font-size: 70px;'>正确! </span>","null","","","","","","","","","","","","","","","","","","","","","","","feedback_test"
"","","","","","psychophysics","207","502089","0.0-13.0-1.0-1.0-0.0-0.24","581","","j","","","","","","","","","","","","","key","j","16.660844660194556","768","428","j","true","img/C_ambi40.png","圆形","word_first",""
"","","","","","html-keyboard-response","208","502391","0.0-13.0-1.0-1.0-0.0-1.24","null","<span style='color:GreenYellow; font-size: 70px;'>正确! </span>","null","","","","","","","","","","","","","","","","","","","","","","","feedback_test"
"","","","","","psychophysics","209","504123","0.0-13.0-1.0-1.0-0.0-0.25","581","","f","","","","","","","","","","","","","key","f","16.66148543689294","768","428","f","true","img/S_ambi40.png","圆形","word_first",""
"","","","","","html-keyboard-response","210","504425","0.0-13.0-1.0-1.0-0.0-1.25","null","<span style='color:GreenYellow; font-size: 70px;'>正确! </span>","null","","","","","","","","","","","","","","","","","","","","","","","feedback_test"
"","","","","","psychophysics","211","506180","0.0-13.0-1.0-1.0-0.0-0.26","604","","f","","","","","","","","","","","","","key","f","16.660086538461307","768","428","f","true","img/T_ambi40.png","方形","word_first",""
"","","","","","html-keyboard-response","212","506482","0.0-13.0-1.0-1.0-0.0-1.26","null","<span style='color:GreenYellow; font-size: 70px;'>正确! </span>","null","","","","","","","","","","","","","","","","","","","","","","","feedback_test"
"","","","","","psychophysics","213","508172","0.0-13.0-1.0-1.0-0.0-0.27","539","","j","","","","","","","","","","","","","key","j","16.66042000000016","768","428","j","true","img/T_ambi40.png","三角","word_first",""
"","","","","","html-keyboard-response","214","508474","0.0-13.0-1.0-1.0-0.0-1.27","null","<span style='color:GreenYellow; font-size: 70px;'>正确! </span>","null","","","","","","","","","","","","","","","","","","","","","","","feedback_test"
"","","","","","psychophysics","215","510316","0.0-13.0-1.0-1.0-0.0-0.28","689","","j","","","","","","","","","","","","","key","j","16.66112844036719","768","428","j","true","img/S_ambi40.png","方形","word_first",""
"","","","","","html-keyboard-response","216","510617","0.0-13.0-1.0-1.0-0.0-1.28","null","<span style='color:GreenYellow; font-size: 70px;'>正确! </span>","null","","","","","","","","","","","","","","","","","","","","","","","feedback_test"
"","","","","","psychophysics","217","512309","0.0-13.0-1.0-1.0-0.0-0.29","540","","f","","","","","","","","","","","","","key","f","16.660663366336767","768","428","f","true","img/C_ambi40.png","方形","word_first",""
"","","","","","html-keyboard-response","218","512610","0.0-13.0-1.0-1.0-0.0-1.29","null","<span style='color:GreenYellow; font-size: 70px;'>正确! </span>","null","","","","","","","","","","","","","","","","","","","","","","","feedback_test"
"","","","","","psychophysics","219","514276","0.0-13.0-1.0-1.0-0.0-0.30","514","","f","","","","","","","","","","","","","key","f","16.661131313131214","768","428","f","true","img/S_ambi40.png","三角","word_first",""
"","","","","","html-keyboard-response","220","514577","0.0-13.0-1.0-1.0-0.0-1.30","null","<span style='color:GreenYellow; font-size: 70px;'>正确! </span>","null","","","","","","","","","","","","","","","","","","","","","","","feedback_test"
"","","","","","psychophysics","221","516272","0.0-13.0-1.0-1.0-0.0-0.31","544","","f","","","","","","","","","","","","","key","f","16.663564356435252","768","428","f","true","img/T_ambi40.png","圆形","word_first",""
"","","","","","html-keyboard-response","222","516574","0.0-13.0-1.0-1.0-0.0-1.31","null","<span style='color:GreenYellow; font-size: 70px;'>正确! </span>","null","","","","","","","","","","","","","","","","","","","","","","","feedback_test"
"","","","","","psychophysics","223","518247","0.0-13.0-1.0-1.0-0.0-0.32","521","","j","","","","","","","","","","","","","key","j","16.659656565656974","768","428","j","true","img/C_ambi40.png","圆形","word_first",""
"","","","","","html-keyboard-response","224","518550","0.0-13.0-1.0-1.0-0.0-1.32","null","<span style='color:GreenYellow; font-size: 70px;'>正确! </span>","null","","","","","","","","","","","","","","","","","","","","","","","feedback_test"
"","","","","","psychophysics","225","520163","0.0-13.0-1.0-1.0-0.0-0.33","461","","f","","","","","","","","","","","","","key","f","16.661083333333107","768","428","j","false","img/S_ambi40.png","方形","word_first",""
"","","","","","html-keyboard-response","226","520464","0.0-13.0-1.0-1.0-0.0-1.33","null","<span style='color:red; font-size: 70px;'>错误! </span>","null","","","","","","","","","","","","","","","","","","","","","","","feedback_test"
"","","","","","psychophysics","227","522105","0.0-13.0-1.0-1.0-0.0-0.34","488","","f","","","","","","","","","","","","","key","f","16.660214285714297","768","428","j","false","img/T_ambi40.png","三角","word_first",""
"","","","","","html-keyboard-response","228","522407","0.0-13.0-1.0-1.0-0.0-1.34","null","<span style='color:red; font-size: 70px;'>错误! </span>","null","","","","","","","","","","","","","","","","","","","","","","","feedback_test"
"","","","","","psychophysics","229","524189","0.0-13.0-1.0-1.0-0.0-0.35","630","","f","","","","","","","","","","","","","key","f","16.66093396226423","768","428","f","true","img/C_ambi40.png","三角","word_first",""
"","","","","","html-keyboard-response","230","524490","0.0-13.0-1.0-1.0-0.0-1.35","null","<span style='color:GreenYellow; font-size: 70px;'>正确! </span>","null","","","","","","","","","","","","","","","","","","","","","","","feedback_test"
"","","","","","psychophysics","231","526188","0.0-13.0-1.0-1.0-0.0-0.36","547","","j","","","","","","","","","","","","","key","j","16.661089108911074","768","428","f","false","img/S_ambi40.png","圆形","word_first",""
"","","","","","html-keyboard-response","232","526489","0.0-13.0-1.0-1.0-0.0-1.36","null","<span style='color:red; font-size: 70px;'>错误! </span>","null","","","","","","","","","","","","","","","","","","","","","","","feedback_test"
"","","","","","psychophysics","233","528441","0.0-13.0-1.0-1.0-0.0-0.37","800","","f","","","","","","","","","","","","","key","f","16.660974137930616","768","428","j","false","img/S_ambi40.png","方形","word_first",""
"","","","","","html-keyboard-response","234","528743","0.0-13.0-1.0-1.0-0.0-1.37","null","<span style='color:red; font-size: 70px;'>错误! </span>","null","","","","","","","","","","","","","","","","","","","","","","","feedback_test"
"","","","","","psychophysics","235","530395","0.0-13.0-1.0-1.0-0.0-0.38","500","","j","","","","","","","","","","","","","key","j","16.66095918367441","768","428","j","true","img/T_ambi40.png","三角","word_first",""
"","","","","","html-keyboard-response","236","530697","0.0-13.0-1.0-1.0-0.0-1.38","null","<span style='color:GreenYellow; font-size: 70px;'>正确! </span>","null","","","","","","","","","","","","","","","","","","","","","","","feedback_test"
"","","","","","psychophysics","237","532354","0.0-13.0-1.0-1.0-0.0-0.39","506","","f","","","","","","","","","","","","","key","f","16.6613636363634","768","428","f","true","img/S_ambi40.png","三角","word_first",""
"","","","","","html-keyboard-response","238","532654","0.0-13.0-1.0-1.0-0.0-1.39","null","<span style='color:GreenYellow; font-size: 70px;'>正确! </span>","null","","","","","","","","","","","","","","","","","","","","","","","feedback_test"
"","","","","","psychophysics","239","534394","0.0-13.0-1.0-1.0-0.0-0.40","588","","j","","","","","","","","","","","","","key","j","16.660689320388133","768","428","j","true","img/C_ambi40.png","圆形","word_first",""
"","","","","","html-keyboard-response","240","534695","0.0-13.0-1.0-1.0-0.0-1.40","null","<span style='color:GreenYellow; font-size: 70px;'>正确! </span>","null","","","","","","","","","","","","","","","","","","","","","","","feedback_test"
"","","","","","psychophysics","241","536273","0.0-13.0-1.0-1.0-0.0-0.41","425","","j","","","","","","","","","","","","","key","j","16.660670212765986","768","428","j","true","img/C_ambi40.png","圆形","word_first",""
"","","","","","html-keyboard-response","242","536575","0.0-13.0-1.0-1.0-0.0-1.41","null","<span style='color:GreenYellow; font-size: 70px;'>正确! </span>","null","","","","","","","","","","","","","","","","","","","","","","","feedback_test"
"","","","","","psychophysics","243","538268","0.0-13.0-1.0-1.0-0.0-0.42","542","","f","","","","","","","","","","","","","key","f","16.660316831683556","768","428","f","true","img/C_ambi40.png","方形","word_first",""
"","","","","","html-keyboard-response","244","538570","0.0-13.0-1.0-1.0-0.0-1.42","null","<span style='color:GreenYellow; font-size: 70px;'>正确! </span>","null","","","","","","","","","","","","","","","","","","","","","","","feedback_test"
"","","","","","psychophysics","245","540249","0.0-13.0-1.0-1.0-0.0-0.43","529","","f","","","","","","","","","","","","","key","f","16.661080000000073","768","428","f","true","img/T_ambi40.png","圆形","word_first",""
"","","","","","html-keyboard-response","246","540552","0.0-13.0-1.0-1.0-0.0-1.43","null","<span style='color:GreenYellow; font-size: 70px;'>正确! </span>","null","","","","","","","","","","","","","","","","","","","","","","","feedback_test"
"","","","","","psychophysics","247","542261","0.0-13.0-1.0-1.0-0.0-0.44","559","","f","","","","","","","","","","","","","key","f","16.66091089109005","768","428","f","true","img/T_ambi40.png","方形","word_first",""
"","","","","","html-keyboard-response","248","542562","0.0-13.0-1.0-1.0-0.0-1.44","null","<span style='color:GreenYellow; font-size: 70px;'>正确! </span>","null","","","","","","","","","","","","","","","","","","","","","","","feedback_test"
"","","","","","psychophysics","249","544330","0.0-13.0-1.0-1.0-0.0-0.45","616","","j","","","","","","","","","","","","","key","j","16.661199999999788","768","428","j","true","img/T_ambi40.png","三角","word_first",""
"","","","","","html-keyboard-response","250","544633","0.0-13.0-1.0-1.0-0.0-1.45","null","<span style='color:GreenYellow; font-size: 70px;'>正确! </span>","null","","","","","","","","","","","","","","","","","","","","","","","feedback_test"
"","","","","","psychophysics","251","546267","0.0-13.0-1.0-1.0-0.0-0.46","483","","j","","","","","","","","","","","","","key","j","16.66083505154664","768","428","j","true","img/S_ambi40.png","方形","word_first",""
"","","","","","html-keyboard-response","252","546569","0.0-13.0-1.0-1.0-0.0-1.46","null","<span style='color:GreenYellow; font-size: 70px;'>正确! </span>","null","","","","","","","","","","","","","","","","","","","","","","","feedback_test"
"","","","","","psychophysics","253","548202","0.0-13.0-1.0-1.0-0.0-0.47","481","","f","","","","","","","","","","","","","key","f","16.66079381443248","768","428","f","true","img/C_ambi40.png","三角","word_first",""
"","","","","","html-keyboard-response","254","548505","0.0-13.0-1.0-1.0-0.0-1.47","null","<span style='color:GreenYellow; font-size: 70px;'>正确! </span>","null","","","","","","","","","","","","","","","","","","","","","","","feedback_test"
"","","","","","psychophysics","255","550145","0.0-13.0-1.0-1.0-0.0-0.48","489","","j","","","","","","","","","","","","","key","j","16.65972448979642","768","428","j","true","img/S_ambi40.png","方形","word_first",""
"","","","","","html-keyboard-response","256","550446","0.0-13.0-1.0-1.0-0.0-1.48","null","<span style='color:GreenYellow; font-size: 70px;'>正确! </span>","null","","","","","","","","","","","","","","","","","","","","","","","feedback_test"
"","","","","","psychophysics","257","552003","0.0-13.0-1.0-1.0-0.0-0.49","405","","j","","","","","","","","","","","","","key","j","16.661021739130575","768","428","j","true","img/T_ambi40.png","三角","word_first",""
"","","","","","html-keyboard-response","258","552305","0.0-13.0-1.0-1.0-0.0-1.49","null","<span style='color:GreenYellow; font-size: 70px;'>正确! </span>","null","","","","","","","","","","","","","","","","","","","","","","","feedback_test"
"","","","","","psychophysics","259","553890","0.0-13.0-1.0-1.0-0.0-0.50","434","","j","","","","","","","","","","","","","key","j","16.6607234042554","768","428","j","true","img/C_ambi40.png","圆形","word_first",""
"","","","","","html-keyboard-response","260","554192","0.0-13.0-1.0-1.0-0.0-1.50","null","<span style='color:GreenYellow; font-size: 70px;'>正确! </span>","null","","","","","","","","","","","","","","","","","","","","","","","feedback_test"
"","","","","","psychophysics","261","555763","0.0-13.0-1.0-1.0-0.0-0.51","420","","j","","","","","","","","","","","","","key","j","16.66090322580559","768","428","j","true","img/C_ambi40.png","圆形","word_first",""
"","","","","","html-keyboard-response","262","556065","0.0-13.0-1.0-1.0-0.0-1.51","null","<span style='color:GreenYellow; font-size: 70px;'>正确! </span>","null","","","","","","","","","","","","","","","","","","","","","","","feedback_test"
"","","","","","psychophysics","263","557842","0.0-13.0-1.0-1.0-0.0-0.52","624","","f","","","","","","","","","","","","","key","f","16.66035849056624","768","428","f","true","img/C_ambi40.png","方形","word_first",""
"","","","","","html-keyboard-response","264","558143","0.0-13.0-1.0-1.0-0.0-1.52","null","<span style='color:GreenYellow; font-size: 70px;'>正确! </span>","null","","","","","","","","","","","","","","","","","","","","","","","feedback_test"
"","","","","","psychophysics","265","559868","0.0-13.0-1.0-1.0-0.0-0.53","573","","f","","","","","","","","","","","","","key","f","16.661411764706237","768","428","f","true","img/T_ambi40.png","圆形","word_first",""
"","","","","","html-keyboard-response","266","560168","0.0-13.0-1.0-1.0-0.0-1.53","null","<span style='color:GreenYellow; font-size: 70px;'>正确! </span>","null","","","","","","","","","","","","","","","","","","","","","","","feedback_test"
"","","","","","psychophysics","267","561800","0.0-13.0-1.0-1.0-0.0-0.54","480","","j","","","","","","","","","","","","","key","j","16.659546391752826","768","428","j","true","img/T_ambi40.png","三角","word_first",""
"","","","","","html-keyboard-response","268","562101","0.0-13.0-1.0-1.0-0.0-1.54","null","<span style='color:GreenYellow; font-size: 70px;'>正确! </span>","null","","","","","","","","","","","","","","","","","","","","","","","feedback_test"
"","","","","","psychophysics","269","563733","0.0-13.0-1.0-1.0-0.0-0.55","480","","f","","","","","","","","","","","","","key","f","16.66271134020674","768","428","f","true","img/C_ambi40.png","三角","word_first",""
"","","","","","html-keyboard-response","270","564034","0.0-13.0-1.0-1.0-0.0-1.55","null","<span style='color:GreenYellow; font-size: 70px;'>正确! </span>","null","","","","","","","","","","","","","","","","","","","","","","","feedback_test"
"","","","","","psychophysics","271","565760","0.0-13.0-1.0-1.0-0.0-0.56","575","","f","","","","","","","","","","","","","key","f","16.66099029126152","768","428","f","true","img/T_ambi40.png","方形","word_first",""
"","","","","","html-keyboard-response","272","566062","0.0-13.0-1.0-1.0-0.0-1.56","null","<span style='color:GreenYellow; font-size: 70px;'>正确! </span>","null","","","","","","","","","","","","","","","","","","","","","","","feedback_test"
"","","","","","psychophysics","273","567676","0.0-13.0-1.0-1.0-0.0-0.57","462","","j","","","","","","","","","","","","","key","j","16.66162500000064","768","428","f","false","img/S_ambi40.png","三角","word_first",""
"","","","","","html-keyboard-response","274","567978","0.0-13.0-1.0-1.0-0.0-1.57","null","<span style='color:red; font-size: 70px;'>错误! </span>","null","","","","","","","","","","","","","","","","","","","","","","","feedback_test"
"","","","","","psychophysics","275","569616","0.0-13.0-1.0-1.0-0.0-0.58","486","","j","","","","","","","","","","","","","key","j","16.66079381443368","768","428","j","true","img/S_ambi40.png","方形","word_first",""
"","","","","","html-keyboard-response","276","569917","0.0-13.0-1.0-1.0-0.0-1.58","null","<span style='color:GreenYellow; font-size: 70px;'>正确! </span>","null","","","","","","","","","","","","","","","","","","","","","","","feedback_test"
"","","","","","psychophysics","277","571557","0.0-13.0-1.0-1.0-0.0-0.59","488","","f","","","","","","","","","","","","","key","f","16.66064285714184","768","428","f","true","img/S_ambi40.png","圆形","word_first",""
"","","","","","html-keyboard-response","278","571858","0.0-13.0-1.0-1.0-0.0-1.59","null","<span style='color:GreenYellow; font-size: 70px;'>正确! </span>","null","","","","","","","","","","","","","","","","","","","","","","","feedback_test"
"","","","","","html-keyboard-response","279","573862","0.0-13.0-1.0-1.0-1.0","2003","<style>.context{color:white; font-size: 35px; line-height:40px}</style>                            <div><p class='context'>您正确回答了83% 的试次。</p><p class='context'>您的平均反应时为537毫秒。</p><p class='context'>请按任意键进入休息</p></div>","j","","","","","","","","","","","","","","","","","","","","","","",""
"","","","","","html-button-response","280","599138","0.0-13.0-1.0-1.0-2.0","25273","
                    <p>您当前还剩余3组实验</p>
                    <p>现在是休息时间，当您结束休息后，您可以点击 结束休息 按钮 继续</p>
                    <p>建议休息时间还剩余<span id=""iii"">60</span>秒</p>","0","","","","","","","","","","","","","","","","","","","","","","",""
"","","","","","psychophysics","281","600922","0.0-13.0-1.0-1.0-0.1-0.60","632","","f","","","","","","","","","","","","","key","f","16.66101886792425","768","428","f","true","img/C_ambi40.png","三角","word_first",""
"","","","","","html-keyboard-response","282","601223","0.0-13.0-1.0-1.0-0.1-1.60","null","<span style='color:GreenYellow; font-size: 70px;'>正确! </span>","null","","","","","","","","","","","","","","","","","","","","","","","feedback_test"
"","","","","","psychophysics","283","602921","0.0-13.0-1.0-1.0-0.1-0.61","547","","j","","","","","","","","","","","","","key","j","16.66024752475303","768","428","j","true","img/T_ambi40.png","三角","word_first",""
"","","","","","html-keyboard-response","284","603223","0.0-13.0-1.0-1.0-0.1-1.61","null","<span style='color:GreenYellow; font-size: 70px;'>正确! </span>","null","","","","","","","","","","","","","","","","","","","","","","","feedback_test"
"","","","","","psychophysics","285","604978","0.0-13.0-1.0-1.0-0.1-0.62","603","","j","","","","","","","","","","","","","key","j","16.661000000000268","768","428","j","true","img/T_ambi40.png","三角","word_first",""
"","","","","","html-keyboard-response","286","605279","0.0-13.0-1.0-1.0-0.1-1.62","null","<span style='color:GreenYellow; font-size: 70px;'>正确! </span>","null","","","","","","","","","","","","","","","","","","","","","","","feedback_test"
"","","","","","psychophysics","287","606937","0.0-13.0-1.0-1.0-0.1-0.63","505","","j","","","","","","","","","","","","","key","j","16.660306122449786","768","428","j","true","img/S_ambi40.png","方形","word_first",""
"","","","","","html-keyboard-response","288","607237","0.0-13.0-1.0-1.0-0.1-1.63","null","<span style='color:GreenYellow; font-size: 70px;'>正确! </span>","null","","","","","","","","","","","","","","","","","","","","","","","feedback_test"
"","","","","","psychophysics","289","608773","0.0-13.0-1.0-1.0-0.1-0.64","385","","j","","","","","","","","","","","","","key","j","16.660362637362567","768","428","j","true","img/C_ambi40.png","圆形","word_first",""
"","","","","","html-keyboard-response","290","609075","0.0-13.0-1.0-1.0-0.1-1.64","null","<span style='color:GreenYellow; font-size: 70px;'>正确! </span>","null","","","","","","","","","","","","","","","","","","","","","","","feedback_test"
"","","","","","psychophysics","291","610721","0.0-13.0-1.0-1.0-0.1-0.65","494","","f","","","","","","","","","","","","","key","f","16.661216494845725","768","428","f","true","img/S_ambi40.png","三角","word_first",""
"","","","","","html-keyboard-response","292","611022","0.0-13.0-1.0-1.0-0.1-1.65","null","<span style='color:GreenYellow; font-size: 70px;'>正确! </span>","null","","","","","","","","","","","","","","","","","","","","","","","feedback_test"
"","","","","","psychophysics","293","612725","0.0-13.0-1.0-1.0-0.1-0.66","551","","f","","","","","","","","","","","","","key","f","16.661504950494237","768","428","f","true","img/T_ambi40.png","方形","word_first",""
"","","","","","html-keyboard-response","294","613026","0.0-13.0-1.0-1.0-0.1-1.66","null","<span style='color:GreenYellow; font-size: 70px;'>正确! </span>","null","","","","","","","","","","","","","","","","","","","","","","","feedback_test"
"","","","","","psychophysics","295","614764","0.0-13.0-1.0-1.0-0.1-0.67","585","","f","","","","","","","","","","","","","key","f","16.660582524272208","768","428","j","false","img/S_ambi40.png","方形","word_first",""
"","","","","","html-keyboard-response","296","615064","0.0-13.0-1.0-1.0-0.1-1.67","null","<span style='color:red; font-size: 70px;'>错误! </span>","null","","","","","","","","","","","","","","","","","","","","","","","feedback_test"
"","","","","","psychophysics","297","616815","0.0-13.0-1.0-1.0-0.1-0.68","599","","f","","","","","","","","","","","","","key","f","16.6597403846155","768","428","f","true","img/S_ambi40.png","圆形","word_first",""
"","","","","","html-keyboard-response","298","617116","0.0-13.0-1.0-1.0-0.1-1.68","null","<span style='color:GreenYellow; font-size: 70px;'>正确! </span>","null","","","","","","","","","","","","","","","","","","","","","","","feedback_test"
"","","","","","psychophysics","299","618778","0.0-13.0-1.0-1.0-0.1-0.69","511","","j","","","","","","","","","","","","","key","j","16.661424242424534","768","428","j","true","img/C_ambi40.png","圆形","word_first",""
"","","","","","html-keyboard-response","300","619080","0.0-13.0-1.0-1.0-0.1-1.69","null","<span style='color:GreenYellow; font-size: 70px;'>正确! </span>","null","","","","","","","","","","","","","","","","","","","","","","","feedback_test"
"","","","","","psychophysics","301","620671","0.0-13.0-1.0-1.0-0.1-0.70","438","","f","","","","","","","","","","","","","key","f","16.66243157894718","768","428","f","true","img/T_ambi40.png","圆形","word_first",""
"","","","","","html-keyboard-response","302","620973","0.0-13.0-1.0-1.0-0.1-1.70","null","<span style='color:GreenYellow; font-size: 70px;'>正确! </span>","null","","","","","","","","","","","","","","","","","","","","","","","feedback_test"
"","","","","","psychophysics","303","622707","0.0-13.0-1.0-1.0-0.1-0.71","582","","f","","","","","","","","","","","","","key","f","16.661660194175443","768","428","f","true","img/C_ambi40.png","方形","word_first",""
"","","","","","html-keyboard-response","304","623008","0.0-13.0-1.0-1.0-0.1-1.71","null","<span style='color:GreenYellow; font-size: 70px;'>正确! </span>","null","","","","","","","","","","","","","","","","","","","","","","","feedback_test"
"","","","","","psychophysics","305","624829","0.0-13.0-1.0-1.0-0.1-0.72","668","","j","","","","","","","","","","","","","key","j","16.65990740740758","768","428","j","true","img/S_ambi40.png","方形","word_first",""
"","","","","","html-keyboard-response","306","625130","0.0-13.0-1.0-1.0-0.1-1.72","null","<span style='color:GreenYellow; font-size: 70px;'>正确! </span>","null","","","","","","","","","","","","","","","","","","","","","","","feedback_test"
"","","","","","psychophysics","307","626795","0.0-13.0-1.0-1.0-0.1-0.73","514","","f","","","","","","","","","","","","","key","f","16.658404040404342","768","428","f","true","img/S_ambi40.png","圆形","word_first",""
"","","","","","html-keyboard-response","308","627096","0.0-13.0-1.0-1.0-0.1-1.73","null","<span style='color:GreenYellow; font-size: 70px;'>正确! </span>","null","","","","","","","","","","","","","","","","","","","","","","","feedback_test"
"","","","","","psychophysics","309","628790","0.0-13.0-1.0-1.0-0.1-0.74","541","","j","","","","","","","","","","","","","key","j","16.659871287128684","768","428","j","true","img/T_ambi40.png","三角","word_first",""
"","","","","","html-keyboard-response","310","629091","0.0-13.0-1.0-1.0-0.1-1.74","null","<span style='color:GreenYellow; font-size: 70px;'>正确! </span>","null","","","","","","","","","","","","","","","","","","","","","","","feedback_test"
"","","","","","psychophysics","311","630740","0.0-13.0-1.0-1.0-0.1-0.75","497","","f","","","","","","","","","","","","","key","f","16.66073469387852","768","428","f","true","img/S_ambi40.png","三角","word_first",""
"","","","","","html-keyboard-response","312","631041","0.0-13.0-1.0-1.0-0.1-1.75","null","<span style='color:GreenYellow; font-size: 70px;'>正确! </span>","null","","","","","","","","","","","","","","","","","","","","","","","feedback_test"
"","","","","","psychophysics","313","632782","0.0-13.0-1.0-1.0-0.1-0.76","590","","j","","","","","","","","","","","","","key","j","16.66100000000062","768","428","j","true","img/S_ambi40.png","方形","word_first",""
"","","","","","html-keyboard-response","314","633084","0.0-13.0-1.0-1.0-0.1-1.76","null","<span style='color:GreenYellow; font-size: 70px;'>正确! </span>","null","","","","","","","","","","","","","","","","","","","","","","","feedback_test"
"","","","","","psychophysics","315","634756","0.0-13.0-1.0-1.0-0.1-0.77","520","","j","","","","","","","","","","","","","key","j","16.659939393938537","768","428","j","true","img/T_ambi40.png","三角","word_first",""
"","","","","","html-keyboard-response","316","635057","0.0-13.0-1.0-1.0-0.1-1.77","null","<span style='color:GreenYellow; font-size: 70px;'>正确! </span>","null","","","","","","","","","","","","","","","","","","","","","","","feedback_test"
"","","","","","psychophysics","317","636689","0.0-13.0-1.0-1.0-0.1-0.78","481","","f","","","","","","","","","","","","","key","f","16.662061855669815","768","428","f","true","img/C_ambi40.png","方形","word_first",""
"","","","","","html-keyboard-response","318","636989","0.0-13.0-1.0-1.0-0.1-1.78","null","<span style='color:GreenYellow; font-size: 70px;'>正确! </span>","null","","","","","","","","","","","","","","","","","","","","","","","feedback_test"
"","","","","","psychophysics","319","638636","0.0-13.0-1.0-1.0-0.1-0.79","495","","j","","","","","","","","","","","","","key","j","16.660887755101964","768","428","j","true","img/C_ambi40.png","圆形","word_first",""
"","","","","","html-keyboard-response","320","638938","0.0-13.0-1.0-1.0-0.1-1.79","null","<span style='color:GreenYellow; font-size: 70px;'>正确! </span>","null","","","","","","","","","","","","","","","","","","","","","","","feedback_test"
"","","","","","psychophysics","321","640607","0.0-13.0-1.0-1.0-0.1-0.80","518","","f","","","","","","","","","","","","","key","f","16.66082828282849","768","428","f","true","img/T_ambi40.png","圆形","word_first",""
"","","","","","html-keyboard-response","322","640908","0.0-13.0-1.0-1.0-0.1-1.80","null","<span style='color:GreenYellow; font-size: 70px;'>正确! </span>","null","","","","","","","","","","","","","","","","","","","","","","","feedback_test"
"","","","","","psychophysics","323","642599","0.0-13.0-1.0-1.0-0.1-0.81","539","","j","","","","","","","","","","","","","key","j","16.660851485147788","768","428","j","true","img/C_ambi40.png","圆形","word_first",""
"","","","","","html-keyboard-response","324","642900","0.0-13.0-1.0-1.0-0.1-1.81","null","<span style='color:GreenYellow; font-size: 70px;'>正确! </span>","null","","","","","","","","","","","","","","","","","","","","","","","feedback_test"
"","","","","","psychophysics","325","644508","0.0-13.0-1.0-1.0-0.1-0.82","456","","f","","","","","","","","","","","","","key","f","16.662231578947488","768","428","f","true","img/C_ambi40.png","三角","word_first",""
"","","","","","html-keyboard-response","326","644809","0.0-13.0-1.0-1.0-0.1-1.82","null","<span style='color:GreenYellow; font-size: 70px;'>正确! </span>","null","","","","","","","","","","","","","","","","","","","","","","","feedback_test"
"","","","","","psychophysics","327","646520","0.0-13.0-1.0-1.0-0.1-0.83","560","","f","","","","","","","","","","","","","key","f","16.661549019606728","768","428","f","true","img/T_ambi40.png","方形","word_first",""
"","","","","","html-keyboard-response","328","646821","0.0-13.0-1.0-1.0-0.1-1.83","null","<span style='color:GreenYellow; font-size: 70px;'>正确! </span>","null","","","","","","","","","","","","","","","","","","","","","","","feedback_test"
"","","","","","psychophysics","329","648552","0.0-13.0-1.0-1.0-0.1-0.84","577","","f","","","","","","","","","","","","","key","f","16.661514563107346","768","428","f","true","img/T_ambi40.png","方形","word_first",""
"","","","","","html-keyboard-response","330","648854","0.0-13.0-1.0-1.0-0.1-1.84","null","<span style='color:GreenYellow; font-size: 70px;'>正确! </span>","null","","","","","","","","","","","","","","","","","","","","","","","feedback_test"
"","","","","","psychophysics","331","650629","0.0-13.0-1.0-1.0-0.1-0.85","624","","j","","","","","","","","","","","","","key","j","16.661160377358343","768","428","j","true","img/S_ambi40.png","方形","word_first",""
"","","","","","html-keyboard-response","332","650931","0.0-13.0-1.0-1.0-0.1-1.85","null","<span style='color:GreenYellow; font-size: 70px;'>正确! </span>","null","","","","","","","","","","","","","","","","","","","","","","","feedback_test"
"","","","","","psychophysics","333","652612","0.0-13.0-1.0-1.0-0.1-0.86","528","","f","","","","","","","","","","","","","key","f","16.661369999999877","768","428","f","true","img/S_ambi40.png","圆形","word_first",""
"","","","","","html-keyboard-response","334","652913","0.0-13.0-1.0-1.0-0.1-1.86","null","<span style='color:GreenYellow; font-size: 70px;'>正确! </span>","null","","","","","","","","","","","","","","","","","","","","","","","feedback_test"
"","","","","","psychophysics","335","654530","0.0-13.0-1.0-1.0-0.1-0.87","467","","j","","","","","","","","","","","","","key","j","16.661541666666988","768","428","j","true","img/C_ambi40.png","圆形","word_first",""
"","","","","","html-keyboard-response","336","654831","0.0-13.0-1.0-1.0-0.1-1.87","null","<span style='color:GreenYellow; font-size: 70px;'>正确! </span>","null","","","","","","","","","","","","","","","","","","","","","","","feedback_test"
"","","","","","psychophysics","337","656416","0.0-13.0-1.0-1.0-0.1-0.88","432","","j","","","","","","","","","","","","","key","j","16.660914893617527","768","428","j","true","img/T_ambi40.png","三角","word_first",""
"","","","","","html-keyboard-response","338","656717","0.0-13.0-1.0-1.0-0.1-1.88","null","<span style='color:GreenYellow; font-size: 70px;'>正确! </span>","null","","","","","","","","","","","","","","","","","","","","","","","feedback_test"
"","","","","","psychophysics","339","658272","0.0-13.0-1.0-1.0-0.1-0.89","403","","f","","","","","","","","","","","","","key","f","16.661293478261264","768","428","f","true","img/T_ambi40.png","圆形","word_first",""
"","","","","","html-keyboard-response","340","658573","0.0-13.0-1.0-1.0-0.1-1.89","null","<span style='color:GreenYellow; font-size: 70px;'>正确! </span>","null","","","","","","","","","","","","","","","","","","","","","","","feedback_test"
"","","","","","psychophysics","341","660186","0.0-13.0-1.0-1.0-0.1-0.90","462","","j","","","","","","","","","","","","","key","j","16.659515789473478","768","428","f","false","img/C_ambi40.png","三角","word_first",""
"","","","","","html-keyboard-response","342","660487","0.0-13.0-1.0-1.0-0.1-1.90","null","<span style='color:red; font-size: 70px;'>错误! </span>","null","","","","","","","","","","","","","","","","","","","","","","","feedback_test"
"","","","","","psychophysics","343","662183","0.0-13.0-1.0-1.0-0.1-0.91","545","","f","","","","","","","","","","","","","key","f","16.651199999999953","768","428","f","true","img/S_ambi40.png","三角","word_first",""
"","","","","","html-keyboard-response","344","662484","0.0-13.0-1.0-1.0-0.1-1.91","null","<span style='color:GreenYellow; font-size: 70px;'>正确! </span>","null","","","","","","","","","","","","","","","","","","","","","","","feedback_test"
"","","","","","psychophysics","345","664123","0.0-13.0-1.0-1.0-0.1-0.92","486","","j","","","","","","","","","","","","","key","j","16.662061224489626","768","428","j","true","img/C_ambi40.png","圆形","word_first",""
"","","","","","html-keyboard-response","346","664426","0.0-13.0-1.0-1.0-0.1-1.92","null","<span style='color:GreenYellow; font-size: 70px;'>正确! </span>","null","","","","","","","","","","","","","","","","","","","","","","","feedback_test"
"","","","","","psychophysics","347","666025","0.0-13.0-1.0-1.0-0.1-0.93","447","","j","","","","","","","","","","","","","key","j","16.661968421052503","768","428","j","true","img/S_ambi40.png","方形","word_first",""
"","","","","","html-keyboard-response","348","666327","0.0-13.0-1.0-1.0-0.1-1.93","null","<span style='color:GreenYellow; font-size: 70px;'>正确! </span>","null","","","","","","","","","","","","","","","","","","","","","","","feedback_test"
"","","","","","psychophysics","349","667916","0.0-13.0-1.0-1.0-0.1-0.94","437","","f","","","","","","","","","","","","","key","f","16.660797872340325","768","428","f","true","img/C_ambi40.png","方形","word_first",""
"","","","","","html-keyboard-response","350","668218","0.0-13.0-1.0-1.0-0.1-1.94","null","<span style='color:GreenYellow; font-size: 70px;'>正确! </span>","null","","","","","","","","","","","","","","","","","","","","","","","feedback_test"
"","","","","","psychophysics","351","669871","0.0-13.0-1.0-1.0-0.1-0.95","501","","j","","","","","","","","","","","","","key","j","16.65439795918302","768","428","j","true","img/T_ambi40.png","三角","word_first",""
"","","","","","html-keyboard-response","352","670173","0.0-13.0-1.0-1.0-0.1-1.95","null","<span style='color:GreenYellow; font-size: 70px;'>正确! </span>","null","","","","","","","","","","","","","","","","","","","","","","","feedback_test"
"","","","","","psychophysics","353","671772","0.0-13.0-1.0-1.0-0.1-0.96","446","","f","","","","","","","","","","","","","key","f","16.66217894736849","768","428","f","true","img/S_ambi40.png","圆形","word_first",""
"","","","","","html-keyboard-response","354","672072","0.0-13.0-1.0-1.0-0.1-1.96","null","<span style='color:GreenYellow; font-size: 70px;'>正确! </span>","null","","","","","","","","","","","","","","","","","","","","","","","feedback_test"
"","","","","","psychophysics","355","673738","0.0-13.0-1.0-1.0-0.1-0.97","513","","j","","","","","","","","","","","","","key","j","16.661464646464506","768","428","j","true","img/S_ambi40.png","方形","word_first",""
"","","","","","html-keyboard-response","356","674040","0.0-13.0-1.0-1.0-0.1-1.97","null","<span style='color:GreenYellow; font-size: 70px;'>正确! </span>","null","","","","","","","","","","","","","","","","","","","","","","","feedback_test"
"","","","","","psychophysics","357","675677","0.0-13.0-1.0-1.0-0.1-0.98","485","","f","","","","","","","","","","","","","key","f","16.6609793814432","768","428","f","true","img/T_ambi40.png","方形","word_first",""
"","","","","","html-keyboard-response","358","675977","0.0-13.0-1.0-1.0-0.1-1.98","null","<span style='color:GreenYellow; font-size: 70px;'>正确! </span>","null","","","","","","","","","","","","","","","","","","","","","","","feedback_test"
"","","","","","psychophysics","359","677554","0.0-13.0-1.0-1.0-0.1-0.99","426","","j","","","","","","","","","","","","","key","j","16.652893617021","768","428","f","false","img/T_ambi40.png","圆形","word_first",""
"","","","","","html-keyboard-response","360","677856","0.0-13.0-1.0-1.0-0.1-1.99","null","<span style='color:red; font-size: 70px;'>错误! </span>","null","","","","","","","","","","","","","","","","","","","","","","","feedback_test"
"","","","","","psychophysics","361","679412","0.0-13.0-1.0-1.0-0.1-0.100","405","","j","","","","","","","","","","","","","key","j","16.66092391304277","768","428","j","true","img/S_ambi40.png","方形","word_first",""
"","","","","","html-keyboard-response","362","679713","0.0-13.0-1.0-1.0-0.1-1.100","null","<span style='color:GreenYellow; font-size: 70px;'>正确! </span>","null","","","","","","","","","","","","","","","","","","","","","","","feedback_test"
"","","","","","psychophysics","363","681308","0.0-13.0-1.0-1.0-0.1-0.101","443","","f","","","","","","","","","","","","","key","f","16.66088421052616","768","428","f","true","img/C_ambi40.png","方形","word_first",""
"","","","","","html-keyboard-response","364","681609","0.0-13.0-1.0-1.0-0.1-1.101","null","<span style='color:GreenYellow; font-size: 70px;'>正确! </span>","null","","","","","","","","","","","","","","","","","","","","","","","feedback_test"
"","","","","","psychophysics","365","683309","0.0-13.0-1.0-1.0-0.1-0.102","548","","f","","","","","","","","","","","","","key","f","16.662297029702895","768","428","f","true","img/S_ambi40.png","三角","word_first",""
"","","","","","html-keyboard-response","366","683611","0.0-13.0-1.0-1.0-0.1-1.102","null","<span style='color:GreenYellow; font-size: 70px;'>正确! </span>","null","","","","","","","","","","","","","","","","","","","","","","","feedback_test"
"","","","","","psychophysics","367","685312","0.0-13.0-1.0-1.0-0.1-0.103","549","","j","","","","","","","","","","","","","key","j","16.660752475247858","768","428","j","true","img/T_ambi40.png","三角","word_first",""
"","","","","","html-keyboard-response","368","685613","0.0-13.0-1.0-1.0-0.1-1.103","null","<span style='color:GreenYellow; font-size: 70px;'>正确! </span>","null","","","","","","","","","","","","","","","","","","","","","","","feedback_test"
"","","","","","psychophysics","369","687206","0.0-13.0-1.0-1.0-0.1-0.104","442","","f","","","","","","","","","","","","","key","f","16.661648936170906","768","428","j","false","img/C_ambi40.png","圆形","word_first",""
"","","","","","html-keyboard-response","370","687509","0.0-13.0-1.0-1.0-0.1-1.104","null","<span style='color:red; font-size: 70px;'>错误! </span>","null","","","","","","","","","","","","","","","","","","","","","","","feedback_test"
"","","","","","psychophysics","371","689244","0.0-13.0-1.0-1.0-0.1-0.105","584","","f","","","","","","","","","","","","","key","f","16.661563106796713","768","428","f","true","img/C_ambi40.png","三角","word_first",""
"","","","","","html-keyboard-response","372","689546","0.0-13.0-1.0-1.0-0.1-1.105","null","<span style='color:GreenYellow; font-size: 70px;'>正确! </span>","null","","","","","","","","","","","","","","","","","","","","","","","feedback_test"
"","","","","","psychophysics","373","691198","0.0-13.0-1.0-1.0-0.1-0.106","502","","f","","","","","","","","","","","","","key","f","16.659397959184112","768","428","j","false","img/T_ambi40.png","三角","word_first",""
"","","","","","html-keyboard-response","374","691499","0.0-13.0-1.0-1.0-0.1-1.106","null","<span style='color:red; font-size: 70px;'>错误! </span>","null","","","","","","","","","","","","","","","","","","","","","","","feedback_test"
"","","","","","psychophysics","375","693332","0.0-13.0-1.0-1.0-0.1-0.107","680","","j","","","","","","","","","","","","","key","j","16.666311926605744","768","428","j","true","img/C_ambi40.png","圆形","word_first",""
"","","","","","html-keyboard-response","376","693634","0.0-13.0-1.0-1.0-0.1-1.107","null","<span style='color:GreenYellow; font-size: 70px;'>正确! </span>","null","","","","","","","","","","","","","","","","","","","","","","","feedback_test"
"","","","","","psychophysics","377","695298","0.0-13.0-1.0-1.0-0.1-0.108","512","","f","","","","","","","","","","","","","key","f","16.661898989899488","768","428","j","false","img/S_ambi40.png","方形","word_first",""
"","","","","","html-keyboard-response","378","695600","0.0-13.0-1.0-1.0-0.1-1.108","null","<span style='color:red; font-size: 70px;'>错误! </span>","null","","","","","","","","","","","","","","","","","","","","","","","feedback_test"
"","","","","","psychophysics","379","697414","0.0-13.0-1.0-1.0-0.1-0.109","662","","f","","","","","","","","","","","","","key","f","16.66073148148199","768","428","f","true","img/T_ambi40.png","方形","word_first",""
"","","","","","html-keyboard-response","380","697716","0.0-13.0-1.0-1.0-0.1-1.109","null","<span style='color:GreenYellow; font-size: 70px;'>正确! </span>","null","","","","","","","","","","","","","","","","","","","","","","","feedback_test"
"","","","","","psychophysics","381","699446","0.0-13.0-1.0-1.0-0.1-0.110","577","","j","","","","","","","","","","","","","key","j","16.66095145631048","768","428","j","true","img/S_ambi40.png","方形","word_first",""
"","","","","","html-keyboard-response","382","699747","0.0-13.0-1.0-1.0-0.1-1.110","null","<span style='color:GreenYellow; font-size: 70px;'>正确! </span>","null","","","","","","","","","","","","","","","","","","","","","","","feedback_test"
"","","","","","psychophysics","383","701512","0.0-13.0-1.0-1.0-0.1-0.111","614","","j","","","","","","","","","","","","","key","j","16.661980952381246","768","428","j","true","img/C_ambi40.png","圆形","word_first",""
"","","","","","html-keyboard-response","384","701813","0.0-13.0-1.0-1.0-0.1-1.111","null","<span style='color:GreenYellow; font-size: 70px;'>正确! </span>","null","","","","","","","","","","","","","","","","","","","","","","","feedback_test"
"","","","","","psychophysics","385","703486","0.0-13.0-1.0-1.0-0.1-0.112","522","","f","","","","","","","","","","","","","key","f","16.660848484848476","768","428","f","true","img/S_ambi40.png","三角","word_first",""
"","","","","","html-keyboard-response","386","703787","0.0-13.0-1.0-1.0-0.1-1.112","null","<span style='color:GreenYellow; font-size: 70px;'>正确! </span>","null","","","","","","","","","","","","","","","","","","","","","","","feedback_test"
"","","","","","psychophysics","387","705365","0.0-13.0-1.0-1.0-0.1-0.113","426","","j","","","","","","","","","","","","","key","j","16.66027659574459","768","428","j","true","img/C_ambi40.png","圆形","word_first",""
"","","","","","html-keyboard-response","388","705667","0.0-13.0-1.0-1.0-0.1-1.113","null","<span style='color:GreenYellow; font-size: 70px;'>正确! </span>","null","","","","","","","","","","","","","","","","","","","","","","","feedback_test"
"","","","","","psychophysics","389","707385","0.0-13.0-1.0-1.0-0.1-0.114","566","","j","","","","","","","","","","","","","key","j","16.66109803921598","768","428","j","true","img/T_ambi40.png","三角","word_first",""
"","","","","","html-keyboard-response","390","707687","0.0-13.0-1.0-1.0-0.1-1.114","null","<span style='color:GreenYellow; font-size: 70px;'>正确! </span>","null","","","","","","","","","","","","","","","","","","","","","","","feedback_test"
"","","","","","psychophysics","391","709386","0.0-13.0-1.0-1.0-0.1-0.115","548","","f","","","","","","","","","","","","","key","f","16.661702970296403","768","428","f","true","img/T_ambi40.png","圆形","word_first",""
"","","","","","html-keyboard-response","392","709687","0.0-13.0-1.0-1.0-0.1-1.115","null","<span style='color:GreenYellow; font-size: 70px;'>正确! </span>","null","","","","","","","","","","","","","","","","","","","","","","","feedback_test"
"","","","","","psychophysics","393","711430","0.0-13.0-1.0-1.0-0.1-0.116","591","","f","","","","","","","","","","","","","key","f","16.659475728155122","768","428","f","true","img/S_ambi40.png","圆形","word_first",""
"","","","","","html-keyboard-response","394","711730","0.0-13.0-1.0-1.0-0.1-1.116","null","<span style='color:GreenYellow; font-size: 70px;'>正确! </span>","null","","","","","","","","","","","","","","","","","","","","","","","feedback_test"
"","","","","","psychophysics","395","713413","0.0-13.0-1.0-1.0-0.1-0.117","530","","f","","","","","","","","","","","","","key","f","16.661459999999497","768","428","f","true","img/C_ambi40.png","方形","word_first",""
"","","","","","html-keyboard-response","396","713716","0.0-13.0-1.0-1.0-0.1-1.117","null","<span style='color:GreenYellow; font-size: 70px;'>正确! </span>","null","","","","","","","","","","","","","","","","","","","","","","","feedback_test"
"","","","","","psychophysics","397","715449","0.0-13.0-1.0-1.0-0.1-0.118","582","","j","","","","","","","","","","","","","key","j","16.660485436893474","768","428","j","true","img/T_ambi40.png","三角","word_first",""
"","","","","","html-keyboard-response","398","715750","0.0-13.0-1.0-1.0-0.1-1.118","null","<span style='color:GreenYellow; font-size: 70px;'>正确! </span>","null","","","","","","","","","","","","","","","","","","","","","","","feedback_test"
"","","","","","psychophysics","399","717485","0.0-13.0-1.0-1.0-0.1-0.119","583","","f","","","","","","","","","","","","","key","f","16.660368932039223","768","428","f","true","img/C_ambi40.png","三角","word_first",""
"","","","","","html-keyboard-response","400","717786","0.0-13.0-1.0-1.0-0.1-1.119","null","<span style='color:GreenYellow; font-size: 70px;'>正确! </span>","null","","","","","","","","","","","","","","","","","","","","","","","feedback_test"
"","","","","","html-keyboard-response","401","719232","0.0-13.0-1.0-1.0-1.1","1445","<style>.context{color:white; font-size: 35px; line-height:40px}</style>                            <div><p class='context'>您正确回答了90% 的试次。</p><p class='context'>您的平均反应时为528毫秒。</p><p class='context'>请按任意键进入休息</p></div>","j","","","","","","","","","","","","","","","","","","","","","","",""
"","","","","","html-button-response","402","729855","0.0-13.0-1.0-1.0-2.1","10619","
                    <p>您当前还剩余2组实验</p>
                    <p>现在是休息时间，当您结束休息后，您可以点击 结束休息 按钮 继续</p>
                    <p>建议休息时间还剩余<span id=""iii"">60</span>秒</p>","0","","","","","","","","","","","","","","","","","","","","","","",""
"","","","","","psychophysics","403","731512","0.0-13.0-1.0-1.0-0.2-0.120","505","","j","","","","","","","","","","","","","key","j","16.662346938775844","768","428","j","true","img/C_ambi40.png","圆形","word_first",""
"","","","","","html-keyboard-response","404","731814","0.0-13.0-1.0-1.0-0.2-1.120","null","<span style='color:GreenYellow; font-size: 70px;'>正确! </span>","null","","","","","","","","","","","","","","","","","","","","","","","feedback_test"
"","","","","","psychophysics","405","733426","0.0-13.0-1.0-1.0-0.2-0.121","461","","j","","","","","","","","","","","","","key","j","16.660547368420826","768","428","j","true","img/S_ambi40.png","方形","word_first",""
"","","","","","html-keyboard-response","406","733728","0.0-13.0-1.0-1.0-0.2-1.121","null","<span style='color:GreenYellow; font-size: 70px;'>正确! </span>","null","","","","","","","","","","","","","","","","","","","","","","","feedback_test"
"","","","","","psychophysics","407","735460","0.0-13.0-1.0-1.0-0.2-0.122","582","","j","","","","","","","","","","","","","key","j","16.662058252427563","768","428","j","true","img/C_ambi40.png","圆形","word_first",""
"","","","","","html-keyboard-response","408","735761","0.0-13.0-1.0-1.0-0.2-1.122","null","<span style='color:GreenYellow; font-size: 70px;'>正确! </span>","null","","","","","","","","","","","","","","","","","","","","","","","feedback_test"
"","","","","","psychophysics","409","737315","0.0-13.0-1.0-1.0-0.2-0.123","403","","j","","","","","","","","","","","","","key","j","16.646413043477956","768","428","f","false","img/T_ambi40.png","方形","word_first",""
"","","","","","html-keyboard-response","410","737617","0.0-13.0-1.0-1.0-0.2-1.123","null","<span style='color:red; font-size: 70px;'>错误! </span>","null","","","","","","","","","","","","","","","","","","","","","","","feedback_test"
"","","","","","psychophysics","411","739489","0.0-13.0-1.0-1.0-0.2-0.124","721","","f","","","","","","","","","","","","","key","f","16.66171171171129","768","428","f","true","img/C_ambi40.png","方形","word_first",""
"","","","","","html-keyboard-response","412","739790","0.0-13.0-1.0-1.0-0.2-1.124","null","<span style='color:GreenYellow; font-size: 70px;'>正确! </span>","null","","","","","","","","","","","","","","","","","","","","","","","feedback_test"
"","","","","","psychophysics","413","741463","0.0-13.0-1.0-1.0-0.2-0.125","521","","j","","","","","","","","","","","","","key","j","16.660899999999675","768","428","j","true","img/S_ambi40.png","方形","word_first",""
"","","","","","html-keyboard-response","414","741765","0.0-13.0-1.0-1.0-0.2-1.125","null","<span style='color:GreenYellow; font-size: 70px;'>正确! </span>","null","","","","","","","","","","","","","","","","","","","","","","","feedback_test"
"","","","","","psychophysics","415","743555","0.0-13.0-1.0-1.0-0.2-0.126","640","","f","","","","","","","","","","","","","key","f","16.659801886791477","768","428","f","true","img/S_ambi40.png","圆形","word_first",""
"","","","","","html-keyboard-response","416","743856","0.0-13.0-1.0-1.0-0.2-1.126","null","<span style='color:GreenYellow; font-size: 70px;'>正确! </span>","null","","","","","","","","","","","","","","","","","","","","","","","feedback_test"
"","","","","","psychophysics","417","745542","0.0-13.0-1.0-1.0-0.2-0.127","534","","f","","","","","","","","","","","","","key","f","16.660590000000084","768","428","f","true","img/C_ambi40.png","三角","word_first",""
"","","","","","html-keyboard-response","418","745843","0.0-13.0-1.0-1.0-0.2-1.127","null","<span style='color:GreenYellow; font-size: 70px;'>正确! </span>","null","","","","","","","","","","","","","","","","","","","","","","","feedback_test"
"","","","","","psychophysics","419","747495","0.0-13.0-1.0-1.0-0.2-0.128","500","","f","","","","","","","","","","","","","key","f","16.661102040816925","768","428","f","true","img/S_ambi40.png","三角","word_first",""
"","","","","","html-keyboard-response","420","747796","0.0-13.0-1.0-1.0-0.2-1.128","null","<span style='color:GreenYellow; font-size: 70px;'>正确! </span>","null","","","","","","","","","","","","","","","","","","","","","","","feedback_test"
"","","","","","psychophysics","421","749449","0.0-13.0-1.0-1.0-0.2-0.129","503","","j","","","","","","","","","","","","","key","j","16.660642857143028","768","428","j","true","img/T_ambi40.png","三角","word_first",""
"","","","","","html-keyboard-response","422","749751","0.0-13.0-1.0-1.0-0.2-1.129","null","<span style='color:GreenYellow; font-size: 70px;'>正确! </span>","null","","","","","","","","","","","","","","","","","","","","","","","feedback_test"
"","","","","","psychophysics","423","751361","0.0-13.0-1.0-1.0-0.2-0.130","459","","f","","","","","","","","","","","","","key","f","16.662197916666628","768","428","f","true","img/T_ambi40.png","圆形","word_first",""
"","","","","","html-keyboard-response","424","751662","0.0-13.0-1.0-1.0-0.2-1.130","null","<span style='color:GreenYellow; font-size: 70px;'>正确! </span>","null","","","","","","","","","","","","","","","","","","","","","","","feedback_test"
"","","","","","psychophysics","425","753281","0.0-13.0-1.0-1.0-0.2-0.131","467","","f","","","","","","","","","","","","","key","f","16.662604166666522","768","428","j","false","img/T_ambi40.png","三角","word_first",""
"","","","","","html-keyboard-response","426","753583","0.0-13.0-1.0-1.0-0.2-1.131","null","<span style='color:red; font-size: 70px;'>错误! </span>","null","","","","","","","","","","","","","","","","","","","","","","","feedback_test"
"","","","","","psychophysics","427","755326","0.0-13.0-1.0-1.0-0.2-0.132","591","","f","","","","","","","","","","","","","key","f","16.66013461538443","768","428","f","true","img/C_ambi40.png","方形","word_first",""
"","","","","","html-keyboard-response","428","755628","0.0-13.0-1.0-1.0-0.2-1.132","null","<span style='color:GreenYellow; font-size: 70px;'>正确! </span>","null","","","","","","","","","","","","","","","","","","","","","","","feedback_test"
"","","","","","psychophysics","429","757245","0.0-13.0-1.0-1.0-0.2-0.133","466","","j","","","","","","","","","","","","","key","j","16.661093750000873","768","428","j","true","img/T_ambi40.png","三角","word_first",""
"","","","","","html-keyboard-response","430","757545","0.0-13.0-1.0-1.0-0.2-1.133","null","<span style='color:GreenYellow; font-size: 70px;'>正确! </span>","null","","","","","","","","","","","","","","","","","","","","","","","feedback_test"
"","","","","","psychophysics","431","759217","0.0-13.0-1.0-1.0-0.2-0.134","521","","f","","","","","","","","","","","","","key","f","16.659808080808045","768","428","f","true","img/T_ambi40.png","方形","word_first",""
"","","","","","html-keyboard-response","432","759519","0.0-13.0-1.0-1.0-0.2-1.134","null","<span style='color:GreenYellow; font-size: 70px;'>正确! </span>","null","","","","","","","","","","","","","","","","","","","","","","","feedback_test"
