"success","timeout","failed_images","failed_audio","failed_video","trial_type","trial_index","time_elapsed","internal_node_id","rt","stimulus","response","value","item_width_mm","item_height_mm","item_width_px","px2mm","view_dist_mm","item_width_deg","px2deg","scale_factor","win_width_deg","win_height_deg","view_history","response_type","key_press","avg_frame_time","center_x","center_y","correct_response","correct","Image","word","condition","screen_id"
"true","false","[]","[]","[]","preload","0","599","0.0-0.0","","","","","","","","","","","","","","","","","","","","","","","","","",""
"","","","","","html-keyboard-response","1","10779","0.0-1.0","10179","
   <p>您好，欢迎参加本次实验。</p>
   <p>为充分保障您的权利，请确保您已经知晓并同意《参与实验同意书》以及《数据公开知情同意书》。</p>
   <p>如果您未见过上述内容，请咨询实验员。</p>
   <p>如果您选择继续实验，则表示您已经清楚两份知情同意书的内容并同意。</p>
   <p> <div style = ""color: green""><按任意键至下页></div> </p>
   "," ","","","","","","","","","","","","","","","","","","","","","","",""
"","","","","","html-keyboard-response","2","12038","0.0-2.0","1258","
   <p>本实验首先需要您填写一些基本个人信息。</p>
   <p> <div style = ""color: green""><按任意键至下页></div></p>
   "," ","","","","","","","","","","","","","","","","","","","","","","",""
"","","","","","call-function","3","12039","0.0-3.0-0.0","","","","","","","","","","","","","","","","","","","","","","","","","",""
"","","","","","survey-html-form","4","27652","0.0-3.0-1.0","15611","","{""Q0"":""18""}","","","","","","","","","","","","","","","","","","","","","","",""
"","","","","","html-button-response","5","29251","0.0-3.0-2.0","1597","<p style = 'color : white'>您的性别</p>","1","","","","","","","","","","","","","","","","","","","","","","",""
"","","","","","survey-html-form","6","35437","0.0-3.0-3.0","6185","","{""Q0"":""2003""}","","","","","","","","","","","","","","","","","","","","","","",""
"","","","","","survey-html-form","7","38875","0.0-3.0-4.0","3437","","{""Q0"":""5""}","","","","","","","","","","","","","","","","","","","","","","",""
"","","","","","virtual-chinrest","8","222224","0.0-4.0","183346","","","","85.6","53.98","616.6002366111437","7.208350385144562","396.17","12.332004732222874","50","0.6811544580461638","28.3","16.08","","","","","","","","","","","",""
"true","","","","","fullscreen","9","225425","0.0-5.0","","","","","","","","","","","","","","","","","","","","","","","","","",""
"","","","","","instructions","10","316023","0.0-6.0","90598","","","","","","","","","","","","","","[{""page_index"":0,""viewing_time"":30714},{""page_index"":1,""viewing_time"":28323},{""page_index"":2,""viewing_time"":28061},{""page_index"":3,""viewing_time"":3500}]","","","","","","","","","","",""
"","","","","","psychophysics","11","318687","0.0-7.0-0.0-0.0","null","","null","","","","","","","","","","","","","key","null","16.66906329113924","731.4285714285714","453.42857142857144","j","false","img/C_ambi40.png","方形","prac_image_first",""
"","","","","","html-keyboard-response","12","319004","0.0-7.0-0.0-1.0","null","<span class='add_' style='color:yellow; font-size: 70px;'> 太慢! </span>","null","","","","","","","","","","","","","","","","","","","","","","","feedback_test"
"","","","","","psychophysics","13","320996","0.0-7.0-0.0-0.1","841","","j","","","","","","","","","","","","","key","j","16.666661016949377","731.4285714285714","453.42857142857144","j","true","img/T_ambi40.png","方形","prac_image_first",""
"","","","","","html-keyboard-response","14","321315","0.0-7.0-0.0-1.1","null","<span style='color:GreenYellow; font-size: 70px;'>正确! </span>","null","","","","","","","","","","","","","","","","","","","","","","","feedback_test"
"","","","","","psychophysics","15","323298","0.0-7.0-0.0-0.2","828","","j","","","","","","","","","","","","","key","j","16.667042372881443","731.4285714285714","453.42857142857144","j","true","img/S_ambi40.png","三角","prac_image_first",""
"","","","","","html-keyboard-response","16","323615","0.0-7.0-0.0-1.2","null","<span style='color:GreenYellow; font-size: 70px;'>正确! </span>","null","","","","","","","","","","","","","","","","","","","","","","","feedback_test"
"","","","","","psychophysics","17","325395","0.0-7.0-0.0-0.3","629","","f","","","","","","","","","","","","","key","f","16.666877358490687","731.4285714285714","453.42857142857144","f","true","img/S_ambi40.png","方形","prac_image_first",""
"","","","","","html-keyboard-response","18","325703","0.0-7.0-0.0-1.3","null","<span style='color:GreenYellow; font-size: 70px;'>正确! </span>","null","","","","","","","","","","","","","","","","","","","","","","","feedback_test"
"","","","","","psychophysics","19","327840","0.0-7.0-0.0-0.4","986","","f","","","","","","","","","","","","","key","f","16.551929133858508","731.4285714285714","453.42857142857144","f","true","img/C_ambi40.png","圆形","prac_image_first",""
"","","","","","html-keyboard-response","20","328151","0.0-7.0-0.0-1.4","null","<span style='color:GreenYellow; font-size: 70px;'>正确! </span>","null","","","","","","","","","","","","","","","","","","","","","","","feedback_test"
"","","","","","psychophysics","21","330048","0.0-7.0-0.0-0.5","745","","j","","","","","","","","","","","","","key","j","16.66984955752186","731.4285714285714","453.42857142857144","j","true","img/C_ambi40.png","三角","prac_image_first",""
"","","","","","html-keyboard-response","22","330356","0.0-7.0-0.0-1.5","null","<span style='color:GreenYellow; font-size: 70px;'>正确! </span>","null","","","","","","","","","","","","","","","","","","","","","","","feedback_test"
"","","","","","psychophysics","23","332180","0.0-7.0-0.0-0.6","670","","j","","","","","","","","","","","","","key","j","16.666740740740487","731.4285714285714","453.42857142857144","j","true","img/S_ambi40.png","圆形","prac_image_first",""
"","","","","","html-keyboard-response","24","332496","0.0-7.0-0.0-1.6","null","<span style='color:GreenYellow; font-size: 70px;'>正确! </span>","null","","","","","","","","","","","","","","","","","","","","","","","feedback_test"
"","","","","","psychophysics","25","334271","0.0-7.0-0.0-0.7","617","","f","","","","","","","","","","","","","key","f","16.666358490565678","731.4285714285714","453.42857142857144","f","true","img/T_ambi40.png","三角","prac_image_first",""
"","","","","","html-keyboard-response","26","334579","0.0-7.0-0.0-1.7","null","<span style='color:GreenYellow; font-size: 70px;'>正确! </span>","null","","","","","","","","","","","","","","","","","","","","","","","feedback_test"
"","","","","","psychophysics","27","336361","0.0-7.0-0.0-0.8","627","","f","","","","","","","","","","","","","key","f","16.667301886792423","731.4285714285714","453.42857142857144","f","true","img/C_ambi40.png","圆形","prac_image_first",""
"","","","","","html-keyboard-response","28","336669","0.0-7.0-0.0-1.8","null","<span style='color:GreenYellow; font-size: 70px;'>正确! </span>","null","","","","","","","","","","","","","","","","","","","","","","","feedback_test"
"","","","","","psychophysics","29","338389","0.0-7.0-0.0-0.9","568","","f","","","","","","","","","","","","","key","f","16.543156862745118","731.4285714285714","453.42857142857144","f","true","img/S_ambi40.png","方形","prac_image_first",""
"","","","","","html-keyboard-response","30","338702","0.0-7.0-0.0-1.9","null","<span style='color:GreenYellow; font-size: 70px;'>正确! </span>","null","","","","","","","","","","","","","","","","","","","","","","","feedback_test"
"","","","","","psychophysics","31","340367","0.0-7.0-0.0-0.10","513","","f","","","","","","","","","","","","","key","f","16.53646938775533","731.4285714285714","453.42857142857144","f","true","img/T_ambi40.png","三角","prac_image_first",""
"","","","","","html-keyboard-response","32","340683","0.0-7.0-0.0-1.10","null","<span style='color:GreenYellow; font-size: 70px;'>正确! </span>","null","","","","","","","","","","","","","","","","","","","","","","","feedback_test"
"","","","","","psychophysics","33","342441","0.0-7.0-0.0-0.11","604","","j","","","","","","","","","","","","","key","j","16.67314285714279","731.4285714285714","453.42857142857144","j","true","img/T_ambi40.png","圆形","prac_image_first",""
"","","","","","html-keyboard-response","34","342763","0.0-7.0-0.0-1.11","null","<span style='color:GreenYellow; font-size: 70px;'>正确! </span>","null","","","","","","","","","","","","","","","","","","","","","","","feedback_test"
"","","","","","psychophysics","35","344427","0.0-7.0-0.0-0.12","508","","f","","","","","","","","","","","","","key","f","16.667383838383802","731.4285714285714","453.42857142857144","f","true","img/S_ambi40.png","方形","prac_image_first",""
"","","","","","html-keyboard-response","36","344748","0.0-7.0-0.0-1.12","null","<span style='color:GreenYellow; font-size: 70px;'>正确! </span>","null","","","","","","","","","","","","","","","","","","","","","","","feedback_test"
"","","","","","psychophysics","37","346355","0.0-7.0-0.0-0.13","453","","f","","","","","","","","","","","","","key","f","16.667114583333387","731.4285714285714","453.42857142857144","f","true","img/S_ambi40.png","方形","prac_image_first",""
"","","","","","html-keyboard-response","38","346671","0.0-7.0-0.0-1.13","null","<span style='color:GreenYellow; font-size: 70px;'>正确! </span>","null","","","","","","","","","","","","","","","","","","","","","","","feedback_test"
"","","","","","psychophysics","39","348347","0.0-7.0-0.0-0.14","524","","f","","","","","","","","","","","","","key","f","16.66671717171722","731.4285714285714","453.42857142857144","f","true","img/T_ambi40.png","三角","prac_image_first",""
"","","","","","html-keyboard-response","40","348659","0.0-7.0-0.0-1.14","null","<span style='color:GreenYellow; font-size: 70px;'>正确! </span>","null","","","","","","","","","","","","","","","","","","","","","","","feedback_test"
"","","","","","psychophysics","41","350574","0.0-7.0-0.0-0.15","760","","j","","","","","","","","","","","","","key","j","16.669561403508915","731.4285714285714","453.42857142857144","j","true","img/T_ambi40.png","圆形","prac_image_first",""
"","","","","","html-keyboard-response","42","350882","0.0-7.0-0.0-1.15","null","<span style='color:GreenYellow; font-size: 70px;'>正确! </span>","null","","","","","","","","","","","","","","","","","","","","","","","feedback_test"
"","","","","","psychophysics","43","352735","0.0-7.0-0.0-0.16","698","","j","","","","","","","","","","","","","key","j","16.669127272727202","731.4285714285714","453.42857142857144","j","true","img/S_ambi40.png","三角","prac_image_first",""
"","","","","","html-keyboard-response","44","353043","0.0-7.0-0.0-1.16","null","<span style='color:GreenYellow; font-size: 70px;'>正确! </span>","null","","","","","","","","","","","","","","","","","","","","","","","feedback_test"
"","","","","","psychophysics","45","354714","0.0-7.0-0.0-0.17","515","","f","","","","","","","","","","","","","key","f","16.66705050505051","731.4285714285714","453.42857142857144","f","true","img/T_ambi40.png","三角","prac_image_first",""
"","","","","","html-keyboard-response","46","355026","0.0-7.0-0.0-1.17","null","<span style='color:GreenYellow; font-size: 70px;'>正确! </span>","null","","","","","","","","","","","","","","","","","","","","","","","feedback_test"
"","","","","","psychophysics","47","356906","0.0-7.0-0.0-0.18","724","","j","","","","","","","","","","","","","key","j","16.666830357142835","731.4285714285714","453.42857142857144","j","true","img/S_ambi40.png","圆形","prac_image_first",""
"","","","","","html-keyboard-response","48","357221","0.0-7.0-0.0-1.18","null","<span style='color:GreenYellow; font-size: 70px;'>正确! </span>","null","","","","","","","","","","","","","","","","","","","","","","","feedback_test"
"","","","","","psychophysics","49","358926","0.0-7.0-0.0-0.19","550","","f","","","","","","","","","","","","","key","f","16.66591089108952","731.4285714285714","453.42857142857144","f","true","img/C_ambi40.png","圆形","prac_image_first",""
"","","","","","html-keyboard-response","50","359243","0.0-7.0-0.0-1.19","null","<span style='color:GreenYellow; font-size: 70px;'>正确! </span>","null","","","","","","","","","","","","","","","","","","","","","","","feedback_test"
"","","","","","psychophysics","51","360967","0.0-7.0-0.0-0.20","568","","j","","","","","","","","","","","","","key","j","16.66705882352978","731.4285714285714","453.42857142857144","j","true","img/C_ambi40.png","方形","prac_image_first",""
"","","","","","html-keyboard-response","52","361280","0.0-7.0-0.0-1.20","null","<span style='color:GreenYellow; font-size: 70px;'>正确! </span>","null","","","","","","","","","","","","","","","","","","","","","","","feedback_test"
"","","","","","psychophysics","53","362913","0.0-7.0-0.0-0.21","476","","f","","","","","","","","","","","","","key","f","16.66697938144375","731.4285714285714","453.42857142857144","f","true","img/C_ambi40.png","圆形","prac_image_first",""
"","","","","","html-keyboard-response","54","363218","0.0-7.0-0.0-1.21","null","<span style='color:GreenYellow; font-size: 70px;'>正确! </span>","null","","","","","","","","","","","","","","","","","","","","","","","feedback_test"
"","","","","","psychophysics","55","364981","0.0-7.0-0.0-0.22","611","","f","","","","","","","","","","","","","key","f","16.53998076923073","731.4285714285714","453.42857142857144","j","false","img/T_ambi40.png","方形","prac_image_first",""
"","","","","","html-keyboard-response","56","365289","0.0-7.0-0.0-1.22","null","<span style='color:red; font-size: 70px;'>错误! </span>","null","","","","","","","","","","","","","","","","","","","","","","","feedback_test"
"","","","","","psychophysics","57","367093","0.0-7.0-0.0-0.23","647","","j","","","","","","","","","","","","","key","j","16.666467289719403","731.4285714285714","453.42857142857144","j","true","img/C_ambi40.png","三角","prac_image_first",""
"","","","","","html-keyboard-response","58","367403","0.0-7.0-0.0-1.23","null","<span style='color:GreenYellow; font-size: 70px;'>正确! </span>","null","","","","","","","","","","","","","","","","","","","","","","","feedback_test"
"","","","","","html-keyboard-response","59","370584","0.0-8.0","3179","<style>.context{color:white; font-size: 35px; line-height:40px}</style>                            <div><p class='context'>您正确回答了92% 的试次。</p><p class='context'>您的平均反应时为639毫秒。</p><p class='context'>恭喜您完成这一阶段的练习。按任意键进入<span style='color: yellow;'>先文字后图形条件</span>的练习。</p></div>"," ","","","","","","","","","","","","","","","","","","","","","","",""
"","","","","","psychophysics","60","372861","0.0-9.0-0.0-0.0","1108","","j","","","","","","","","","","","","","key","j","16.666816176470412","731.4285714285714","453.42857142857144","f","false","img/T_ambi40.png","三角","prac_word_first",""
"","","","","","html-keyboard-response","61","373181","0.0-9.0-0.0-1.0","null","<span style='color:red; font-size: 70px;'>错误! </span>","null","","","","","","","","","","","","","","","","","","","","","","","feedback_test"
"","","","","","psychophysics","62","375031","0.0-9.0-0.0-0.1","697","","j","","","","","","","","","","","","","key","j","16.66713636363645","731.4285714285714","453.42857142857144","j","true","img/T_ambi40.png","方形","prac_word_first",""
"","","","","","html-keyboard-response","63","375344","0.0-9.0-0.0-1.1","null","<span style='color:GreenYellow; font-size: 70px;'>正确! </span>","null","","","","","","","","","","","","","","","","","","","","","","","feedback_test"
"","","","","","psychophysics","64","377163","0.0-9.0-0.0-0.2","660","","j","","","","","","","","","","","","","key","j","16.666842592592864","731.4285714285714","453.42857142857144","j","true","img/T_ambi40.png","圆形","prac_word_first",""
"","","","","","html-keyboard-response","65","377481","0.0-9.0-0.0-1.2","null","<span style='color:GreenYellow; font-size: 70px;'>正确! </span>","null","","","","","","","","","","","","","","","","","","","","","","","feedback_test"
"","","","","","psychophysics","66","379197","0.0-9.0-0.0-0.3","560","","j","","","","","","","","","","","","","key","j","16.66719607843141","731.4285714285714","453.42857142857144","f","false","img/C_ambi40.png","圆形","prac_word_first",""
"","","","","","html-keyboard-response","67","379516","0.0-9.0-0.0-1.3","null","<span style='color:red; font-size: 70px;'>错误! </span>","null","","","","","","","","","","","","","","","","","","","","","","","feedback_test"
"","","","","","psychophysics","68","381280","0.0-9.0-0.0-0.4","610","","j","","","","","","","","","","","","","key","j","16.6673523809528","731.4285714285714","453.42857142857144","j","true","img/C_ambi40.png","三角","prac_word_first",""
"","","","","","html-keyboard-response","69","381586","0.0-9.0-0.0-1.4","null","<span style='color:GreenYellow; font-size: 70px;'>正确! </span>","null","","","","","","","","","","","","","","","","","","","","","","","feedback_test"
"","","","","","psychophysics","70","383276","0.0-9.0-0.0-0.5","539","","f","","","","","","","","","","","","","key","f","16.66728999999992","731.4285714285714","453.42857142857144","j","false","img/S_ambi40.png","三角","prac_word_first",""
"","","","","","html-keyboard-response","71","383587","0.0-9.0-0.0-1.5","null","<span style='color:red; font-size: 70px;'>错误! </span>","null","","","","","","","","","","","","","","","","","","","","","","","feedback_test"
"","","","","","psychophysics","72","385608","0.0-9.0-0.0-0.6","865","","j","","","","","","","","","","","","","key","j","16.66686666666695","731.4285714285714","453.42857142857144","j","true","img/C_ambi40.png","方形","prac_word_first",""
"","","","","","html-keyboard-response","73","385912","0.0-9.0-0.0-1.6","null","<span style='color:GreenYellow; font-size: 70px;'>正确! </span>","null","","","","","","","","","","","","","","","","","","","","","","","feedback_test"
"","","","","","psychophysics","74","387657","0.0-9.0-0.0-0.7","587","","f","","","","","","","","","","","","","key","f","16.667019230769185","731.4285714285714","453.42857142857144","f","true","img/S_ambi40.png","方形","prac_word_first",""
"","","","","","html-keyboard-response","75","387960","0.0-9.0-0.0-1.7","null","<span style='color:GreenYellow; font-size: 70px;'>正确! </span>","null","","","","","","","","","","","","","","","","","","","","","","","feedback_test"
"","","","","","psychophysics","76","389717","0.0-9.0-0.0-0.8","599","","j","","","","","","","","","","","","","key","j","16.666442307692286","731.4285714285714","453.42857142857144","j","true","img/S_ambi40.png","圆形","prac_word_first",""
"","","","","","html-keyboard-response","77","390030","0.0-9.0-0.0-1.8","null","<span style='color:GreenYellow; font-size: 70px;'>正确! </span>","null","","","","","","","","","","","","","","","","","","","","","","","feedback_test"
"","","","","","psychophysics","78","391816","0.0-9.0-0.0-0.9","634","","j","","","","","","","","","","","","","key","j","16.666877358490687","731.4285714285714","453.42857142857144","f","false","img/T_ambi40.png","三角","prac_word_first",""
"","","","","","html-keyboard-response","79","392130","0.0-9.0-0.0-1.9","null","<span style='color:red; font-size: 70px;'>错误! </span>","null","","","","","","","","","","","","","","","","","","","","","","","feedback_test"
"","","","","","psychophysics","80","393916","0.0-9.0-0.0-0.10","630","","f","","","","","","","","","","","","","key","f","16.6671037735848","731.4285714285714","453.42857142857144","f","true","img/C_ambi40.png","圆形","prac_word_first",""
"","","","","","html-keyboard-response","81","394224","0.0-9.0-0.0-1.10","null","<span style='color:GreenYellow; font-size: 70px;'>正确! </span>","null","","","","","","","","","","","","","","","","","","","","","","","feedback_test"
"","","","","","psychophysics","82","395945","0.0-9.0-0.0-0.11","563","","f","","","","","","","","","","","","","key","f","16.666647058823738","731.4285714285714","453.42857142857144","f","true","img/S_ambi40.png","方形","prac_word_first",""
"","","","","","html-keyboard-response","83","396255","0.0-9.0-0.0-1.11","null","<span style='color:GreenYellow; font-size: 70px;'>正确! </span>","null","","","","","","","","","","","","","","","","","","","","","","","feedback_test"
"","","","","","psychophysics","84","398015","0.0-9.0-0.0-0.12","601","","j","","","","","","","","","","","","","key","j","16.66625961538487","731.4285714285714","453.42857142857144","j","true","img/C_ambi40.png","三角","prac_word_first",""
"","","","","","html-keyboard-response","85","398321","0.0-9.0-0.0-1.12","null","<span style='color:GreenYellow; font-size: 70px;'>正确! </span>","null","","","","","","","","","","","","","","","","","","","","","","","feedback_test"
"","","","","","psychophysics","86","400040","0.0-9.0-0.0-0.13","561","","f","","","","","","","","","","","","","key","f","16.666882352941148","731.4285714285714","453.42857142857144","f","true","img/T_ambi40.png","三角","prac_word_first",""
"","","","","","html-keyboard-response","87","400352","0.0-9.0-0.0-1.13","null","<span style='color:GreenYellow; font-size: 70px;'>正确! </span>","null","","","","","","","","","","","","","","","","","","","","","","","feedback_test"
"","","","","","psychophysics","88","402087","0.0-9.0-0.0-0.14","584","","f","","","","","","","","","","","","","key","f","16.666679611650537","731.4285714285714","453.42857142857144","f","true","img/C_ambi40.png","圆形","prac_word_first",""
"","","","","","html-keyboard-response","89","402405","0.0-9.0-0.0-1.14","null","<span style='color:GreenYellow; font-size: 70px;'>正确! </span>","null","","","","","","","","","","","","","","","","","","","","","","","feedback_test"
"","","","","","psychophysics","90","404136","0.0-9.0-0.0-0.15","578","","j","","","","","","","","","","","","","key","j","16.666372549019904","731.4285714285714","453.42857142857144","j","true","img/C_ambi40.png","方形","prac_word_first",""
"","","","","","html-keyboard-response","91","404453","0.0-9.0-0.0-1.15","null","<span style='color:GreenYellow; font-size: 70px;'>正确! </span>","null","","","","","","","","","","","","","","","","","","","","","","","feedback_test"
"","","","","","psychophysics","92","406304","0.0-9.0-0.0-0.16","700","","f","","","","","","","","","","","","","key","f","16.666545454545517","731.4285714285714","453.42857142857144","f","true","img/T_ambi40.png","三角","prac_word_first",""
"","","","","","html-keyboard-response","93","406613","0.0-9.0-0.0-1.16","null","<span style='color:GreenYellow; font-size: 70px;'>正确! </span>","null","","","","","","","","","","","","","","","","","","","","","","","feedback_test"
"","","","","","psychophysics","94","408371","0.0-9.0-0.0-0.17","605","","j","","","","","","","","","","","","","key","j","16.66670476190491","731.4285714285714","453.42857142857144","j","true","img/S_ambi40.png","三角","prac_word_first",""
"","","","","","html-keyboard-response","95","408681","0.0-9.0-0.0-1.17","null","<span style='color:GreenYellow; font-size: 70px;'>正确! </span>","null","","","","","","","","","","","","","","","","","","","","","","","feedback_test"
"","","","","","psychophysics","96","410539","0.0-9.0-0.0-0.18","702","","j","","","","","","","","","","","","","key","j","16.669333333333615","731.4285714285714","453.42857142857144","j","true","img/T_ambi40.png","方形","prac_word_first",""
"","","","","","html-keyboard-response","97","410862","0.0-9.0-0.0-1.18","null","<span style='color:GreenYellow; font-size: 70px;'>正确! </span>","null","","","","","","","","","","","","","","","","","","","","","","","feedback_test"
"","","","","","psychophysics","98","412543","0.0-9.0-0.0-0.19","529","","f","","","","","","","","","","","","","key","f","16.664259999999775","731.4285714285714","453.42857142857144","f","true","img/S_ambi40.png","方形","prac_word_first",""
"","","","","","html-keyboard-response","99","412850","0.0-9.0-0.0-1.19","null","<span style='color:GreenYellow; font-size: 70px;'>正确! </span>","null","","","","","","","","","","","","","","","","","","","","","","","feedback_test"
"","","","","","psychophysics","100","415216","0.0-9.0-0.0-0.20","1213","","j","","","","","","","","","","","","","key","j","16.668099290780074","731.4285714285714","453.42857142857144","j","true","img/T_ambi40.png","圆形","prac_word_first",""
"","","","","","html-keyboard-response","101","415523","0.0-9.0-0.0-1.20","null","<span style='color:GreenYellow; font-size: 70px;'>正确! </span>","null","","","","","","","","","","","","","","","","","","","","","","","feedback_test"
"","","","","","psychophysics","102","417243","0.0-9.0-0.0-0.21","564","","j","","","","","","","","","","","","","key","j","16.666980392156926","731.4285714285714","453.42857142857144","f","false","img/C_ambi40.png","圆形","prac_word_first",""
"","","","","","html-keyboard-response","103","417553","0.0-9.0-0.0-1.21","null","<span style='color:red; font-size: 70px;'>错误! </span>","null","","","","","","","","","","","","","","","","","","","","","","","feedback_test"
"","","","","","psychophysics","104","419240","0.0-9.0-0.0-0.22","536","","f","","","","","","","","","","","","","key","f","16.666620000000112","731.4285714285714","453.42857142857144","f","true","img/S_ambi40.png","方形","prac_word_first",""
"","","","","","html-keyboard-response","105","419545","0.0-9.0-0.0-1.22","null","<span style='color:GreenYellow; font-size: 70px;'>正确! </span>","null","","","","","","","","","","","","","","","","","","","","","","","feedback_test"
"","","","","","psychophysics","106","421480","0.0-9.0-0.0-0.23","778","","j","","","","","","","","","","","","","key","j","16.66692173913091","731.4285714285714","453.42857142857144","j","true","img/S_ambi40.png","圆形","prac_word_first",""
"","","","","","html-keyboard-response","107","421783","0.0-9.0-0.0-1.23","null","<span style='color:GreenYellow; font-size: 70px;'>正确! </span>","null","","","","","","","","","","","","","","","","","","","","","","","feedback_test"
"","","","","","html-keyboard-response","108","427486","0.0-10.0","5702","<style>.context{color:white; font-size: 35px; line-height:40px}</style>                            <div><p class='context'>您正确回答了79% 的试次。</p><p class='context'>您的平均反应时为663毫秒。</p><p class='context'>恭喜您完成练习。按任意键进入<span style='color: yellow;'>图形和文字同时呈现条件</span>的练习。</p></div>"," ","","","","","","","","","","","","","","","","","","","","","","",""
"","","","","","psychophysics","109","429631","0.0-11.0-0.0-0.0","1136","","f","","","","","","","","","","","","","key","f","16.666543307086254","731.4285714285714","453.42857142857144","f","true","img/T_ambi40.png","三角","prac_simultaneous",""
"","","","","","html-keyboard-response","110","429939","0.0-11.0-0.0-1.0","null","<span style='color:GreenYellow; font-size: 70px;'>正确! </span>","null","","","","","","","","","","","","","","","","","","","","","","","feedback_test"
"","","","","","psychophysics","111","431635","0.0-11.0-0.0-0.1","693","","j","","","","","","","","","","","","","key","j","16.666879999999654","731.4285714285714","453.42857142857144","j","true","img/S_ambi40.png","三角","prac_simultaneous",""
"","","","","","html-keyboard-response","112","431956","0.0-11.0-0.0-1.1","null","<span style='color:GreenYellow; font-size: 70px;'>正确! </span>","null","","","","","","","","","","","","","","","","","","","","","","","feedback_test"
"","","","","","psychophysics","113","433658","0.0-11.0-0.0-0.2","699","","f","","","","","","","","","","","","","key","f","16.666336633663253","731.4285714285714","453.42857142857144","f","true","img/T_ambi40.png","三角","prac_simultaneous",""
"","","","","","html-keyboard-response","114","433973","0.0-11.0-0.0-1.2","null","<span style='color:GreenYellow; font-size: 70px;'>正确! </span>","null","","","","","","","","","","","","","","","","","","","","","","","feedback_test"
"","","","","","psychophysics","115","435583","0.0-11.0-0.0-0.3","609","","f","","","","","","","","","","","","","key","f","16.66686315789488","731.4285714285714","453.42857142857144","f","true","img/S_ambi40.png","方形","prac_simultaneous",""
"","","","","","html-keyboard-response","116","435902","0.0-11.0-0.0-1.3","null","<span style='color:GreenYellow; font-size: 70px;'>正确! </span>","null","","","","","","","","","","","","","","","","","","","","","","","feedback_test"
"","","","","","psychophysics","117","437525","0.0-11.0-0.0-0.4","622","","j","","","","","","","","","","","","","key","j","16.66570833333329","731.4285714285714","453.42857142857144","j","true","img/C_ambi40.png","三角","prac_simultaneous",""
"","","","","","html-keyboard-response","118","437840","0.0-11.0-0.0-1.4","null","<span style='color:GreenYellow; font-size: 70px;'>正确! </span>","null","","","","","","","","","","","","","","","","","","","","","","","feedback_test"
"","","","","","psychophysics","119","439699","0.0-11.0-0.0-0.5","853","","f","","","","","","","","","","","","","key","f","16.66684545454548","731.4285714285714","453.42857142857144","f","true","img/C_ambi40.png","圆形","prac_simultaneous",""
"","","","","","html-keyboard-response","120","440013","0.0-11.0-0.0-1.5","null","<span style='color:GreenYellow; font-size: 70px;'>正确! </span>","null","","","","","","","","","","","","","","","","","","","","","","","feedback_test"
"","","","","","psychophysics","121","441650","0.0-11.0-0.0-0.6","636","","f","","","","","","","","","","","","","key","f","16.667371134021074","731.4285714285714","453.42857142857144","f","true","img/S_ambi40.png","方形","prac_simultaneous",""
"","","","","","html-keyboard-response","122","441964","0.0-11.0-0.0-1.6","null","<span style='color:GreenYellow; font-size: 70px;'>正确! </span>","null","","","","","","","","","","","","","","","","","","","","","","","feedback_test"
"","","","","","psychophysics","123","443702","0.0-11.0-0.0-0.7","736","","j","","","","","","","","","","","","","key","j","16.666796116504788","731.4285714285714","453.42857142857144","j","true","img/S_ambi40.png","圆形","prac_simultaneous",""
"","","","","","html-keyboard-response","124","444009","0.0-11.0-0.0-1.7","null","<span style='color:GreenYellow; font-size: 70px;'>正确! </span>","null","","","","","","","","","","","","","","","","","","","","","","","feedback_test"
"","","","","","psychophysics","125","445646","0.0-11.0-0.0-0.8","631","","f","","","","","","","","","","","","","key","f","16.66707216494851","731.4285714285714","453.42857142857144","f","true","img/C_ambi40.png","圆形","prac_simultaneous",""
"","","","","","html-keyboard-response","126","445952","0.0-11.0-0.0-1.8","null","<span style='color:GreenYellow; font-size: 70px;'>正确! </span>","null","","","","","","","","","","","","","","","","","","","","","","","feedback_test"
"","","","","","psychophysics","127","447689","0.0-11.0-0.0-0.9","736","","j","","","","","","","","","","","","","key","j","16.666009708738308","731.4285714285714","453.42857142857144","j","true","img/T_ambi40.png","方形","prac_simultaneous",""
"","","","","","html-keyboard-response","128","448007","0.0-11.0-0.0-1.9","null","<span style='color:GreenYellow; font-size: 70px;'>正确! </span>","null","","","","","","","","","","","","","","","","","","","","","","","feedback_test"
"","","","","","psychophysics","129","449651","0.0-11.0-0.0-0.10","636","","j","","","","","","","","","","","","","key","j","16.666711340205907","731.4285714285714","453.42857142857144","j","true","img/T_ambi40.png","圆形","prac_simultaneous",""
"","","","","","html-keyboard-response","130","449959","0.0-11.0-0.0-1.10","null","<span style='color:GreenYellow; font-size: 70px;'>正确! </span>","null","","","","","","","","","","","","","","","","","","","","","","","feedback_test"
"","","","","","psychophysics","131","451860","0.0-11.0-0.0-0.11","894","","j","","","","","","","","","","","","","key","j","16.666345132743544","731.4285714285714","453.42857142857144","j","true","img/C_ambi40.png","方形","prac_simultaneous",""
"","","","","","html-keyboard-response","132","452180","0.0-11.0-0.0-1.11","null","<span style='color:GreenYellow; font-size: 70px;'>正确! </span>","null","","","","","","","","","","","","","","","","","","","","","","","feedback_test"
"","","","","","psychophysics","133","453908","0.0-11.0-0.0-0.12","725","","f","","","","","","","","","","","","","key","f","16.667155339805866","731.4285714285714","453.42857142857144","j","false","img/S_ambi40.png","三角","prac_simultaneous",""
"","","","","","html-keyboard-response","134","454222","0.0-11.0-0.0-1.12","null","<span style='color:red; font-size: 70px;'>错误! </span>","null","","","","","","","","","","","","","","","","","","","","","","","feedback_test"
"","","","","","psychophysics","135","455871","0.0-11.0-0.0-0.13","640","","j","","","","","","","","","","","","","key","j","16.666469387754642","731.4285714285714","453.42857142857144","j","true","img/S_ambi40.png","圆形","prac_simultaneous",""
"","","","","","html-keyboard-response","136","456175","0.0-11.0-0.0-1.13","null","<span style='color:GreenYellow; font-size: 70px;'>正确! </span>","null","","","","","","","","","","","","","","","","","","","","","","","feedback_test"
"","","","","","psychophysics","137","458033","0.0-11.0-0.0-0.14","851","","j","","","","","","","","","","","","","key","j","16.666554545454513","731.4285714285714","453.42857142857144","j","true","img/C_ambi40.png","方形","prac_simultaneous",""
"","","","","","html-keyboard-response","138","458338","0.0-11.0-0.0-1.14","null","<span style='color:GreenYellow; font-size: 70px;'>正确! </span>","null","","","","","","","","","","","","","","","","","","","","","","","feedback_test"
"","","","","","psychophysics","139","460062","0.0-11.0-0.0-0.15","719","","j","","","","","","","","","","","","","key","j","16.666715686274557","731.4285714285714","453.42857142857144","j","true","img/T_ambi40.png","方形","prac_simultaneous",""
"","","","","","html-keyboard-response","140","460382","0.0-11.0-0.0-1.15","null","<span style='color:GreenYellow; font-size: 70px;'>正确! </span>","null","","","","","","","","","","","","","","","","","","","","","","","feedback_test"
"","","","","","psychophysics","141","462121","0.0-11.0-0.0-0.16","735","","f","","","","","","","","","","","","","key","f","16.66814423076945","731.4285714285714","453.42857142857144","f","true","img/C_ambi40.png","圆形","prac_simultaneous",""
"","","","","","html-keyboard-response","142","462428","0.0-11.0-0.0-1.16","null","<span style='color:GreenYellow; font-size: 70px;'>正确! </span>","null","","","","","","","","","","","","","","","","","","","","","","","feedback_test"
"","","","","","psychophysics","143","464099","0.0-11.0-0.0-0.17","668","","j","","","","","","","","","","","","","key","j","16.664830000000073","731.4285714285714","453.42857142857144","f","false","img/S_ambi40.png","方形","prac_simultaneous",""
"","","","","","html-keyboard-response","144","464418","0.0-11.0-0.0-1.17","null","<span style='color:red; font-size: 70px;'>错误! </span>","null","","","","","","","","","","","","","","","","","","","","","","","feedback_test"
"","","","","","psychophysics","145","466126","0.0-11.0-0.0-0.18","706","","j","","","","","","","","","","","","","key","j","16.666524752474846","731.4285714285714","453.42857142857144","f","false","img/C_ambi40.png","圆形","prac_simultaneous",""
"","","","","","html-keyboard-response","146","466435","0.0-11.0-0.0-1.18","null","<span style='color:red; font-size: 70px;'>错误! </span>","null","","","","","","","","","","","","","","","","","","","","","","","feedback_test"
"","","","","","psychophysics","147","468498","0.0-11.0-0.0-0.19","1062","","j","","","","","","","","","","","","","key","j","16.666631147541207","731.4285714285714","453.42857142857144","j","true","img/C_ambi40.png","三角","prac_simultaneous",""
"","","","","","html-keyboard-response","148","468816","0.0-11.0-0.0-1.19","null","<span style='color:GreenYellow; font-size: 70px;'>正确! </span>","null","","","","","","","","","","","","","","","","","","","","","","","feedback_test"
"","","","","","psychophysics","149","471178","0.0-11.0-0.0-0.20","1358","","j","","","","","","","","","","","","","key","j","16.666879432624313","731.4285714285714","453.42857142857144","j","true","img/T_ambi40.png","圆形","prac_simultaneous",""
"","","","","","html-keyboard-response","150","471486","0.0-11.0-0.0-1.20","null","<span style='color:GreenYellow; font-size: 70px;'>正确! </span>","null","","","","","","","","","","","","","","","","","","","","","","","feedback_test"
"","","","","","psychophysics","151","473234","0.0-11.0-0.0-0.21","740","","f","","","","","","","","","","","","","key","f","16.660504854368995","731.4285714285714","453.42857142857144","f","true","img/T_ambi40.png","三角","prac_simultaneous",""
"","","","","","html-keyboard-response","152","473545","0.0-11.0-0.0-1.21","null","<span style='color:GreenYellow; font-size: 70px;'>正确! </span>","null","","","","","","","","","","","","","","","","","","","","","","","feedback_test"
"","","","","","psychophysics","153","475198","0.0-11.0-0.0-0.22","647","","f","","","","","","","","","","","","","key","f","16.666918367347016","731.4285714285714","453.42857142857144","f","true","img/T_ambi40.png","三角","prac_simultaneous",""
"","","","","","html-keyboard-response","154","475504","0.0-11.0-0.0-1.22","null","<span style='color:GreenYellow; font-size: 70px;'>正确! </span>","null","","","","","","","","","","","","","","","","","","","","","","","feedback_test"
"","","","","","psychophysics","155","477329","0.0-11.0-0.0-0.23","819","","f","","","","","","","","","","","","","key","f","16.66642592592581","731.4285714285714","453.42857142857144","f","true","img/S_ambi40.png","方形","prac_simultaneous",""
"","","","","","html-keyboard-response","156","477631","0.0-11.0-0.0-1.23","null","<span style='color:GreenYellow; font-size: 70px;'>正确! </span>","null","","","","","","","","","","","","","","","","","","","","","","","feedback_test"
"","","","","","html-keyboard-response","157","500699","0.0-12.0","23067","<style>.context{color:white; font-size: 35px; line-height:40px}</style>                            <div><p class='context'>您正确回答了88% 的试次。</p><p class='context'>您的平均反应时为783毫秒。</p><p class='context'>恭喜您完成练习。按任意键进入正式实验。</p><p class='footer' style='font-size: 35px; line-height:40px;'>请在进入正式实验实验之前将您的<span style='color: lightgreen;'>食指</span>放在电脑键盘的相应键位上进行按键。</p>"," ","","","","","","","","","","","","","","","","","","","","","","",""
"","","","","","html-keyboard-response","158","508091","0.0-13.0-2.0-0.0","7388","
    <p>请您将手指放在按键上，准备进入呈现顺序为<span style='color: yellow;'>图形和文字同时呈现条件</span>的正式匹配任务</p>
    <p> <div style = ""color: green""><按任意键进入下一阶段的匹配任务></div></p>
    "," ","","","","","","","","","","","","","","","","","","","","","","",""
"","","","","","psychophysics","159","510045","0.0-13.0-2.0-1.0-0.0-0.0","951","","j","","","","","","","","","","","","","key","j","16.666629310344558","731.4285714285714","453.42857142857144","j","true","img/C_ambi40.png","方形","simultaneous",""
"","","","","","html-keyboard-response","160","510358","0.0-13.0-2.0-1.0-0.0-1.0","null","<span style='color:GreenYellow; font-size: 70px;'>正确! </span>","null","","","","","","","","","","","","","","","","","","","","","","","feedback_test"
"","","","","","psychophysics","161","512201","0.0-13.0-2.0-1.0-0.0-0.1","834","","j","","","","","","","","","","","","","key","j","16.666963302751963","731.4285714285714","453.42857142857144","j","true","img/T_ambi40.png","方形","simultaneous",""
"","","","","","html-keyboard-response","162","512510","0.0-13.0-2.0-1.0-0.0-1.1","null","<span style='color:GreenYellow; font-size: 70px;'>正确! </span>","null","","","","","","","","","","","","","","","","","","","","","","","feedback_test"
"","","","","","psychophysics","163","514249","0.0-13.0-2.0-1.0-0.0-0.2","732","","f","","","","","","","","","","","","","key","f","16.667242718446836","731.4285714285714","453.42857142857144","f","true","img/C_ambi40.png","圆形","simultaneous",""
"","","","","","html-keyboard-response","164","514570","0.0-13.0-2.0-1.0-0.0-1.2","null","<span style='color:GreenYellow; font-size: 70px;'>正确! </span>","null","","","","","","","","","","","","","","","","","","","","","","","feedback_test"
"","","","","","psychophysics","165","516028","0.0-13.0-2.0-1.0-0.0-0.3","454","","f","","","","","","","","","","","","","key","f","16.666988372093414","731.4285714285714","453.42857142857144","f","true","img/T_ambi40.png","三角","simultaneous",""
"","","","","","html-keyboard-response","166","516348","0.0-13.0-2.0-1.0-0.0-1.3","null","<span style='color:GreenYellow; font-size: 70px;'>正确! </span>","null","","","","","","","","","","","","","","","","","","","","","","","feedback_test"
"","","","","","psychophysics","167","517907","0.0-13.0-2.0-1.0-0.0-0.4","557","","f","","","","","","","","","","","","","key","f","16.666903225806422","731.4285714285714","453.42857142857144","f","true","img/T_ambi40.png","三角","simultaneous",""
"","","","","","html-keyboard-response","168","518221","0.0-13.0-2.0-1.0-0.0-1.4","null","<span style='color:GreenYellow; font-size: 70px;'>正确! </span>","null","","","","","","","","","","","","","","","","","","","","","","","feedback_test"
"","","","","","psychophysics","169","519999","0.0-13.0-2.0-1.0-0.0-0.5","776","","j","","","","","","","","","","","","","key","j","16.66660000000016","731.4285714285714","453.42857142857144","f","false","img/C_ambi40.png","圆形","simultaneous",""
"","","","","","html-keyboard-response","170","520307","0.0-13.0-2.0-1.0-0.0-1.5","null","<span style='color:red; font-size: 70px;'>错误! </span>","null","","","","","","","","","","","","","","","","","","","","","","","feedback_test"
"","","","","","psychophysics","171","522389","0.0-13.0-2.0-1.0-0.0-0.6","1079","","j","","","","","","","","","","","","","key","j","16.666500000000063","731.4285714285714","453.42857142857144","j","true","img/C_ambi40.png","三角","simultaneous",""
"","","","","","html-keyboard-response","172","522706","0.0-13.0-2.0-1.0-0.0-1.6","null","<span style='color:GreenYellow; font-size: 70px;'>正确! </span>","null","","","","","","","","","","","","","","","","","","","","","","","feedback_test"
"","","","","","psychophysics","173","524340","0.0-13.0-2.0-1.0-0.0-0.7","630","","f","","","","","","","","","","","","","key","f","16.664731958762804","731.4285714285714","453.42857142857144","j","false","img/S_ambi40.png","圆形","simultaneous",""
"","","","","","html-keyboard-response","174","524650","0.0-13.0-2.0-1.0-0.0-1.7","null","<span style='color:red; font-size: 70px;'>错误! </span>","null","","","","","","","","","","","","","","","","","","","","","","","feedback_test"
"","","","","","psychophysics","175","526879","0.0-13.0-2.0-1.0-0.0-0.8","1227","","j","","","","","","","","","","","","","key","j","16.57505303030308","731.4285714285714","453.42857142857144","j","true","img/T_ambi40.png","圆形","simultaneous",""
"","","","","","html-keyboard-response","176","527197","0.0-13.0-2.0-1.0-0.0-1.8","null","<span style='color:GreenYellow; font-size: 70px;'>正确! </span>","null","","","","","","","","","","","","","","","","","","","","","","","feedback_test"
"","","","","","psychophysics","177","528849","0.0-13.0-2.0-1.0-0.0-0.9","647","","f","","","","","","","","","","","","","key","f","16.666795918367548","731.4285714285714","453.42857142857144","f","true","img/S_ambi40.png","方形","simultaneous",""
"","","","","","html-keyboard-response","178","529168","0.0-13.0-2.0-1.0-0.0-1.9","null","<span style='color:GreenYellow; font-size: 70px;'>正确! </span>","null","","","","","","","","","","","","","","","","","","","","","","","feedback_test"
"","","","","","psychophysics","179","530707","0.0-13.0-2.0-1.0-0.0-0.10","538","","f","","","","","","","","","","","","","key","f","16.672736263736713","731.4285714285714","453.42857142857144","f","true","img/S_ambi40.png","方形","simultaneous",""
"","","","","","html-keyboard-response","180","531026","0.0-13.0-2.0-1.0-0.0-1.10","null","<span style='color:GreenYellow; font-size: 70px;'>正确! </span>","null","","","","","","","","","","","","","","","","","","","","","","","feedback_test"
"","","","","","psychophysics","181","532626","0.0-13.0-2.0-1.0-0.0-0.11","594","","j","","","","","","","","","","","","","key","j","16.667357894736586","731.4285714285714","453.42857142857144","j","true","img/S_ambi40.png","三角","simultaneous",""
"","","","","","html-keyboard-response","182","532939","0.0-13.0-2.0-1.0-0.0-1.11","null","<span style='color:GreenYellow; font-size: 70px;'>正确! </span>","null","","","","","","","","","","","","","","","","","","","","","","","feedback_test"
"","","","","","psychophysics","183","534696","0.0-13.0-2.0-1.0-0.0-0.12","754","","j","","","","","","","","","","","","","key","j","16.666730769231574","731.4285714285714","453.42857142857144","j","true","img/S_ambi40.png","三角","simultaneous",""
"","","","","","html-keyboard-response","184","535003","0.0-13.0-2.0-1.0-0.0-1.12","null","<span style='color:GreenYellow; font-size: 70px;'>正确! </span>","null","","","","","","","","","","","","","","","","","","","","","","","feedback_test"
"","","","","","psychophysics","185","536744","0.0-13.0-2.0-1.0-0.0-0.13","737","","f","","","","","","","","","","","","","key","f","16.670669902912884","731.4285714285714","453.42857142857144","f","true","img/C_ambi40.png","圆形","simultaneous",""
"","","","","","html-keyboard-response","186","537047","0.0-13.0-2.0-1.0-0.0-1.13","null","<span style='color:GreenYellow; font-size: 70px;'>正确! </span>","null","","","","","","","","","","","","","","","","","","","","","","","feedback_test"
"","","","","","psychophysics","187","538888","0.0-13.0-2.0-1.0-0.0-0.14","836","","j","","","","","","","","","","","","","key","j","16.66674545454602","731.4285714285714","453.42857142857144","j","true","img/T_ambi40.png","圆形","simultaneous",""
"","","","","","html-keyboard-response","188","539195","0.0-13.0-2.0-1.0-0.0-1.14","null","<span style='color:GreenYellow; font-size: 70px;'>正确! </span>","null","","","","","","","","","","","","","","","","","","","","","","","feedback_test"
"","","","","","psychophysics","189","541113","0.0-13.0-2.0-1.0-0.0-0.15","916","","f","","","","","","","","","","","","","key","f","16.666798245614157","731.4285714285714","453.42857142857144","f","true","img/T_ambi40.png","三角","simultaneous",""
"","","","","","html-keyboard-response","190","541434","0.0-13.0-2.0-1.0-0.0-1.15","null","<span style='color:GreenYellow; font-size: 70px;'>正确! </span>","null","","","","","","","","","","","","","","","","","","","","","","","feedback_test"
"","","","","","psychophysics","191","543090","0.0-13.0-2.0-1.0-0.0-0.16","654","","f","","","","","","","","","","","","","key","f","16.66633673469365","731.4285714285714","453.42857142857144","f","true","img/S_ambi40.png","方形","simultaneous",""
"","","","","","html-keyboard-response","192","543406","0.0-13.0-2.0-1.0-0.0-1.16","null","<span style='color:GreenYellow; font-size: 70px;'>正确! </span>","null","","","","","","","","","","","","","","","","","","","","","","","feedback_test"
"","","","","","psychophysics","193","545159","0.0-13.0-2.0-1.0-0.0-0.17","745","","f","","","","","","","","","","","","","key","f","16.665932692307532","731.4285714285714","453.42857142857144","f","true","img/S_ambi40.png","方形","simultaneous",""
"","","","","","html-keyboard-response","194","545476","0.0-13.0-2.0-1.0-0.0-1.17","null","<span style='color:GreenYellow; font-size: 70px;'>正确! </span>","null","","","","","","","","","","","","","","","","","","","","","","","feedback_test"
"","","","","","psychophysics","195","547255","0.0-13.0-2.0-1.0-0.0-0.18","777","","f","","","","","","","","","","","","","key","f","16.66889622641446","731.4285714285714","453.42857142857144","f","true","img/T_ambi40.png","三角","simultaneous",""
"","","","","","html-keyboard-response","196","547573","0.0-13.0-2.0-1.0-0.0-1.18","null","<span style='color:GreenYellow; font-size: 70px;'>正确! </span>","null","","","","","","","","","","","","","","","","","","","","","","","feedback_test"
"","","","","","psychophysics","197","549225","0.0-13.0-2.0-1.0-0.0-0.19","650","","j","","","","","","","","","","","","","key","j","16.667316326530585","731.4285714285714","453.42857142857144","j","true","img/C_ambi40.png","方形","simultaneous",""
"","","","","","html-keyboard-response","198","549547","0.0-13.0-2.0-1.0-0.0-1.19","null","<span style='color:GreenYellow; font-size: 70px;'>正确! </span>","null","","","","","","","","","","","","","","","","","","","","","","","feedback_test"
"","","","","","psychophysics","199","551517","0.0-13.0-2.0-1.0-0.0-0.20","966","","j","","","","","","","","","","","","","key","j","16.666692307691534","731.4285714285714","453.42857142857144","j","true","img/C_ambi40.png","三角","simultaneous",""
"","","","","","html-keyboard-response","200","551831","0.0-13.0-2.0-1.0-0.0-1.20","null","<span style='color:GreenYellow; font-size: 70px;'>正确! </span>","null","","","","","","","","","","","","","","","","","","","","","","","feedback_test"
"","","","","","psychophysics","201","553779","0.0-13.0-2.0-1.0-0.0-0.21","944","","f","","","","","","","","","","","","","key","f","16.666991379310716","731.4285714285714","453.42857142857144","f","true","img/C_ambi40.png","圆形","simultaneous",""
"","","","","","html-keyboard-response","202","554094","0.0-13.0-2.0-1.0-0.0-1.21","null","<span style='color:GreenYellow; font-size: 70px;'>正确! </span>","null","","","","","","","","","","","","","","","","","","","","","","","feedback_test"
"","","","","","psychophysics","203","556049","0.0-13.0-2.0-1.0-0.0-0.22","948","","j","","","","","","","","","","","","","key","j","16.666586206896746","731.4285714285714","453.42857142857144","j","true","img/S_ambi40.png","圆形","simultaneous",""
"","","","","","html-keyboard-response","204","556367","0.0-13.0-2.0-1.0-0.0-1.22","null","<span style='color:GreenYellow; font-size: 70px;'>正确! </span>","null","","","","","","","","","","","","","","","","","","","","","","","feedback_test"
"","","","","","psychophysics","205","558194","0.0-13.0-2.0-1.0-0.0-0.23","826","","j","","","","","","","","","","","","","key","j","16.66633333333259","731.4285714285714","453.42857142857144","j","true","img/T_ambi40.png","方形","simultaneous",""
"","","","","","html-keyboard-response","206","558507","0.0-13.0-2.0-1.0-0.0-1.23","null","<span style='color:GreenYellow; font-size: 70px;'>正确! </span>","null","","","","","","","","","","","","","","","","","","","","","","","feedback_test"
"","","","","","psychophysics","207","560098","0.0-13.0-2.0-1.0-0.0-0.24","588","","j","","","","","","","","","","","","","key","j","16.66725531914841","731.4285714285714","453.42857142857144","j","true","img/C_ambi40.png","方形","simultaneous",""
"","","","","","html-keyboard-response","208","560409","0.0-13.0-2.0-1.0-0.0-1.24","null","<span style='color:GreenYellow; font-size: 70px;'>正确! </span>","null","","","","","","","","","","","","","","","","","","","","","","","feedback_test"
"","","","","","psychophysics","209","562134","0.0-13.0-2.0-1.0-0.0-0.25","720","","f","","","","","","","","","","","","","key","f","16.66689215686204","731.4285714285714","453.42857142857144","f","true","img/C_ambi40.png","圆形","simultaneous",""
"","","","","","html-keyboard-response","210","562438","0.0-13.0-2.0-1.0-0.0-1.25","null","<span style='color:GreenYellow; font-size: 70px;'>正确! </span>","null","","","","","","","","","","","","","","","","","","","","","","","feedback_test"
"","","","","","psychophysics","211","564199","0.0-13.0-2.0-1.0-0.0-0.26","754","","j","","","","","","","","","","","","","key","j","16.666278846154455","731.4285714285714","453.42857142857144","j","true","img/S_ambi40.png","三角","simultaneous",""
"","","","","","html-keyboard-response","212","564517","0.0-13.0-2.0-1.0-0.0-1.26","null","<span style='color:GreenYellow; font-size: 70px;'>正确! </span>","null","","","","","","","","","","","","","","","","","","","","","","","feedback_test"
"","","","","","psychophysics","213","566416","0.0-13.0-2.0-1.0-0.0-0.27","899","","j","","","","","","","","","","","","","key","j","16.666517857143067","731.4285714285714","453.42857142857144","j","true","img/T_ambi40.png","圆形","simultaneous",""
"","","","","","html-keyboard-response","214","566731","0.0-13.0-2.0-1.0-0.0-1.27","null","<span style='color:GreenYellow; font-size: 70px;'>正确! </span>","null","","","","","","","","","","","","","","","","","","","","","","","feedback_test"
"","","","","","psychophysics","215","568560","0.0-13.0-2.0-1.0-0.0-0.28","826","","f","","","","","","","","","","","","","key","f","16.6671467889912","731.4285714285714","453.42857142857144","f","true","img/S_ambi40.png","方形","simultaneous",""
"","","","","","html-keyboard-response","216","568876","0.0-13.0-2.0-1.0-0.0-1.28","null","<span style='color:GreenYellow; font-size: 70px;'>正确! </span>","null","","","","","","","","","","","","","","","","","","","","","","","feedback_test"
"","","","","","psychophysics","217","570570","0.0-13.0-2.0-1.0-0.0-0.29","692","","j","","","","","","","","","","","","","key","j","16.66693069306917","731.4285714285714","453.42857142857144","j","true","img/T_ambi40.png","方形","simultaneous",""
"","","","","","html-keyboard-response","218","570892","0.0-13.0-2.0-1.0-0.0-1.29","null","<span style='color:GreenYellow; font-size: 70px;'>正确! </span>","null","","","","","","","","","","","","","","","","","","","","","","","feedback_test"
"","","","","","psychophysics","219","572478","0.0-13.0-2.0-1.0-0.0-0.30","585","","f","","","","","","","","","","","","","key","f","16.67074468085156","731.4285714285714","453.42857142857144","f","true","img/S_ambi40.png","方形","simultaneous",""
"","","","","","html-keyboard-response","220","572797","0.0-13.0-2.0-1.0-0.0-1.30","null","<span style='color:GreenYellow; font-size: 70px;'>正确! </span>","null","","","","","","","","","","","","","","","","","","","","","","","feedback_test"
"","","","","","psychophysics","221","574525","0.0-13.0-2.0-1.0-0.0-0.31","724","","j","","","","","","","","","","","","","key","j","16.666970873786163","731.4285714285714","453.42857142857144","f","false","img/T_ambi40.png","三角","simultaneous",""
"","","","","","html-keyboard-response","222","574838","0.0-13.0-2.0-1.0-0.0-1.31","null","<span style='color:red; font-size: 70px;'>错误! </span>","null","","","","","","","","","","","","","","","","","","","","","","","feedback_test"
"","","","","","psychophysics","223","576636","0.0-13.0-2.0-1.0-0.0-0.32","790","","f","","","","","","","","","","","","","key","f","16.66653271028054","731.4285714285714","453.42857142857144","f","true","img/T_ambi40.png","三角","simultaneous",""
"","","","","","html-keyboard-response","224","576954","0.0-13.0-2.0-1.0-0.0-1.32","null","<span style='color:GreenYellow; font-size: 70px;'>正确! </span>","null","","","","","","","","","","","","","","","","","","","","","","","feedback_test"
"","","","","","psychophysics","225","578616","0.0-13.0-2.0-1.0-0.0-0.33","657","","j","","","","","","","","","","","","","key","j","16.66727551020449","731.4285714285714","453.42857142857144","j","true","img/C_ambi40.png","三角","simultaneous",""
"","","","","","html-keyboard-response","226","578926","0.0-13.0-2.0-1.0-0.0-1.33","null","<span style='color:GreenYellow; font-size: 70px;'>正确! </span>","null","","","","","","","","","","","","","","","","","","","","","","","feedback_test"
"","","","","","psychophysics","227","580465","0.0-13.0-2.0-1.0-0.0-0.34","532","","j","","","","","","","","","","","","","key","j","16.666780219780495","731.4285714285714","453.42857142857144","f","false","img/C_ambi40.png","圆形","simultaneous",""
"","","","","","html-keyboard-response","228","580784","0.0-13.0-2.0-1.0-0.0-1.34","null","<span style='color:red; font-size: 70px;'>错误! </span>","null","","","","","","","","","","","","","","","","","","","","","","","feedback_test"
"","","","","","psychophysics","229","582683","0.0-13.0-2.0-1.0-0.0-0.35","899","","j","","","","","","","","","","","","","key","j","16.666526785713877","731.4285714285714","453.42857142857144","j","true","img/S_ambi40.png","圆形","simultaneous",""
"","","","","","html-keyboard-response","230","582992","0.0-13.0-2.0-1.0-0.0-1.35","null","<span style='color:GreenYellow; font-size: 70px;'>正确! </span>","null","","","","","","","","","","","","","","","","","","","","","","","feedback_test"
"","","","","","psychophysics","231","584711","0.0-13.0-2.0-1.0-0.0-0.36","713","","j","","","","","","","","","","","","","key","j","16.666823529411225","731.4285714285714","453.42857142857144","j","true","img/T_ambi40.png","圆形","simultaneous",""
"","","","","","html-keyboard-response","232","585026","0.0-13.0-2.0-1.0-0.0-1.36","null","<span style='color:GreenYellow; font-size: 70px;'>正确! </span>","null","","","","","","","","","","","","","","","","","","","","","","","feedback_test"
"","","","","","psychophysics","233","586737","0.0-13.0-2.0-1.0-0.0-0.37","706","","f","","","","","","","","","","","","","key","f","16.66700980392189","731.4285714285714","453.42857142857144","f","true","img/C_ambi40.png","圆形","simultaneous",""
"","","","","","html-keyboard-response","234","587053","0.0-13.0-2.0-1.0-0.0-1.37","null","<span style='color:GreenYellow; font-size: 70px;'>正确! </span>","null","","","","","","","","","","","","","","","","","","","","","","","feedback_test"
"","","","","","psychophysics","235","588860","0.0-13.0-2.0-1.0-0.0-0.38","798","","f","","","","","","","","","","","","","key","f","16.668579439251797","731.4285714285714","453.42857142857144","f","true","img/S_ambi40.png","方形","simultaneous",""
"","","","","","html-keyboard-response","236","589168","0.0-13.0-2.0-1.0-0.0-1.38","null","<span style='color:GreenYellow; font-size: 70px;'>正确! </span>","null","","","","","","","","","","","","","","","","","","","","","","","feedback_test"
"","","","","","psychophysics","237","591035","0.0-13.0-2.0-1.0-0.0-0.39","866","","f","","","","","","","","","","","","","key","f","16.6660720720711","731.4285714285714","453.42857142857144","f","true","img/T_ambi40.png","三角","simultaneous",""
"","","","","","html-keyboard-response","238","591352","0.0-13.0-2.0-1.0-0.0-1.39","null","<span style='color:GreenYellow; font-size: 70px;'>正确! </span>","null","","","","","","","","","","","","","","","","","","","","","","","feedback_test"
"","","","","","psychophysics","239","593107","0.0-13.0-2.0-1.0-0.0-0.40","750","","j","","","","","","","","","","","","","key","j","16.66716346153855","731.4285714285714","453.42857142857144","j","true","img/T_ambi40.png","方形","simultaneous",""
"","","","","","html-keyboard-response","240","593419","0.0-13.0-2.0-1.0-0.0-1.40","null","<span style='color:GreenYellow; font-size: 70px;'>正确! </span>","null","","","","","","","","","","","","","","","","","","","","","","","feedback_test"
"","","","","","psychophysics","241","595244","0.0-13.0-2.0-1.0-0.0-0.41","821","","f","","","","","","","","","","","","","key","f","16.666620370370328","731.4285714285714","453.42857142857144","j","false","img/S_ambi40.png","三角","simultaneous",""
"","","","","","html-keyboard-response","242","595556","0.0-13.0-2.0-1.0-0.0-1.41","null","<span style='color:red; font-size: 70px;'>错误! </span>","null","","","","","","","","","","","","","","","","","","","","","","","feedback_test"
"","","","","","psychophysics","243","597381","0.0-13.0-2.0-1.0-0.0-0.42","822","","j","","","","","","","","","","","","","key","j","16.666629629630027","731.4285714285714","453.42857142857144","j","true","img/C_ambi40.png","三角","simultaneous",""
"","","","","","html-keyboard-response","244","597700","0.0-13.0-2.0-1.0-0.0-1.42","null","<span style='color:GreenYellow; font-size: 70px;'>正确! </span>","null","","","","","","","","","","","","","","","","","","","","","","","feedback_test"
"","","","","","psychophysics","245","599634","0.0-13.0-2.0-1.0-0.0-0.43","933","","f","","","","","","","","","","","","","key","f","16.667008771929734","731.4285714285714","453.42857142857144","f","true","img/S_ambi40.png","方形","simultaneous",""
"","","","","","html-keyboard-response","246","599956","0.0-13.0-2.0-1.0-0.0-1.43","null","<span style='color:GreenYellow; font-size: 70px;'>正确! </span>","null","","","","","","","","","","","","","","","","","","","","","","","feedback_test"
"","","","","","psychophysics","247","601853","0.0-13.0-2.0-1.0-0.0-0.44","895","","f","","","","","","","","","","","","","key","f","16.667035398230087","731.4285714285714","453.42857142857144","f","true","img/T_ambi40.png","三角","simultaneous",""
"","","","","","html-keyboard-response","248","602162","0.0-13.0-2.0-1.0-0.0-1.44","null","<span style='color:GreenYellow; font-size: 70px;'>正确! </span>","null","","","","","","","","","","","","","","","","","","","","","","","feedback_test"
"","","","","","psychophysics","249","604023","0.0-13.0-2.0-1.0-0.0-0.45","857","","f","","","","","","","","","","","","","key","f","16.670639639639564","731.4285714285714","453.42857142857144","f","true","img/C_ambi40.png","圆形","simultaneous",""
"","","","","","html-keyboard-response","250","604337","0.0-13.0-2.0-1.0-0.0-1.45","null","<span style='color:GreenYellow; font-size: 70px;'>正确! </span>","null","","","","","","","","","","","","","","","","","","","","","","","feedback_test"
"","","","","","psychophysics","251","605956","0.0-13.0-2.0-1.0-0.0-0.46","615","","j","","","","","","","","","","","","","key","j","16.667302083333198","731.4285714285714","453.42857142857144","j","true","img/C_ambi40.png","方形","simultaneous",""
"","","","","","html-keyboard-response","252","606270","0.0-13.0-2.0-1.0-0.0-1.46","null","<span style='color:GreenYellow; font-size: 70px;'>正确! </span>","null","","","","","","","","","","","","","","","","","","","","","","","feedback_test"
"","","","","","psychophysics","253","607964","0.0-13.0-2.0-1.0-0.0-0.47","686","","f","","","","","","","","","","","","","key","f","16.666613861387088","731.4285714285714","453.42857142857144","j","false","img/S_ambi40.png","圆形","simultaneous",""
"","","","","","html-keyboard-response","254","608276","0.0-13.0-2.0-1.0-0.0-1.47","null","<span style='color:red; font-size: 70px;'>错误! </span>","null","","","","","","","","","","","","","","","","","","","","","","","feedback_test"
"","","","","","psychophysics","255","610214","0.0-13.0-2.0-1.0-0.0-0.48","930","","f","","","","","","","","","","","","","key","f","16.66703478260796","731.4285714285714","453.42857142857144","f","true","img/T_ambi40.png","三角","simultaneous",""
"","","","","","html-keyboard-response","256","610520","0.0-13.0-2.0-1.0-0.0-1.48","null","<span style='color:GreenYellow; font-size: 70px;'>正确! </span>","null","","","","","","","","","","","","","","","","","","","","","","","feedback_test"
"","","","","","psychophysics","257","612412","0.0-13.0-2.0-1.0-0.0-0.49","886","","f","","","","","","","","","","","","","key","f","16.666571428571064","731.4285714285714","453.42857142857144","f","true","img/C_ambi40.png","圆形","simultaneous",""
"","","","","","html-keyboard-response","258","612718","0.0-13.0-2.0-1.0-0.0-1.49","null","<span style='color:GreenYellow; font-size: 70px;'>正确! </span>","null","","","","","","","","","","","","","","","","","","","","","","","feedback_test"
"","","","","","psychophysics","259","614429","0.0-13.0-2.0-1.0-0.0-0.50","711","","j","","","","","","","","","","","","","key","j","16.666336633662674","731.4285714285714","453.42857142857144","j","true","img/S_ambi40.png","三角","simultaneous",""
"","","","","","html-keyboard-response","260","614742","0.0-13.0-2.0-1.0-0.0-1.50","null","<span style='color:GreenYellow; font-size: 70px;'>正确! </span>","null","","","","","","","","","","","","","","","","","","","","","","","feedback_test"
"","","","","","psychophysics","261","616541","0.0-13.0-2.0-1.0-0.0-0.51","790","","f","","","","","","","","","","","","","key","f","16.666841121496","731.4285714285714","453.42857142857144","f","true","img/C_ambi40.png","圆形","simultaneous",""
"","","","","","html-keyboard-response","262","616851","0.0-13.0-2.0-1.0-0.0-1.51","null","<span style='color:GreenYellow; font-size: 70px;'>正确! </span>","null","","","","","","","","","","","","","","","","","","","","","","","feedback_test"
"","","","","","psychophysics","263","618461","0.0-13.0-2.0-1.0-0.0-0.52","609","","f","","","","","","","","","","","","","key","f","16.666484210526228","731.4285714285714","453.42857142857144","f","true","img/S_ambi40.png","方形","simultaneous",""
"","","","","","html-keyboard-response","264","618762","0.0-13.0-2.0-1.0-0.0-1.52","null","<span style='color:GreenYellow; font-size: 70px;'>正确! </span>","null","","","","","","","","","","","","","","","","","","","","","","","feedback_test"
"","","","","","psychophysics","265","620371","0.0-13.0-2.0-1.0-0.0-0.53","605","","j","","","","","","","","","","","","","key","j","16.667552083332946","731.4285714285714","453.42857142857144","j","true","img/S_ambi40.png","圆形","simultaneous",""
"","","","","","html-keyboard-response","266","620686","0.0-13.0-2.0-1.0-0.0-1.53","null","<span style='color:GreenYellow; font-size: 70px;'>正确! </span>","null","","","","","","","","","","","","","","","","","","","","","","","feedback_test"
"","","","","","psychophysics","267","622386","0.0-13.0-2.0-1.0-0.0-0.54","691","","j","","","","","","","","","","","","","key","j","16.666693069307033","731.4285714285714","453.42857142857144","j","true","img/T_ambi40.png","圆形","simultaneous",""
"","","","","","html-keyboard-response","268","622699","0.0-13.0-2.0-1.0-0.0-1.54","null","<span style='color:GreenYellow; font-size: 70px;'>正确! </span>","null","","","","","","","","","","","","","","","","","","","","","","","feedback_test"
"","","","","","psychophysics","269","624606","0.0-13.0-2.0-1.0-0.0-0.55","904","","j","","","","","","","","","","","","","key","j","16.666999999999494","731.4285714285714","453.42857142857144","j","true","img/T_ambi40.png","方形","simultaneous",""
"","","","","","html-keyboard-response","270","624912","0.0-13.0-2.0-1.0-0.0-1.55","null","<span style='color:GreenYellow; font-size: 70px;'>正确! </span>","null","","","","","","","","","","","","","","","","","","","","","","","feedback_test"
"","","","","","psychophysics","271","626557","0.0-13.0-2.0-1.0-0.0-0.56","639","","f","","","","","","","","","","","","","key","f","16.667183673470188","731.4285714285714","453.42857142857144","j","false","img/C_ambi40.png","三角","simultaneous",""
"","","","","","html-keyboard-response","272","626863","0.0-13.0-2.0-1.0-0.0-1.56","null","<span style='color:red; font-size: 70px;'>错误! </span>","null","","","","","","","","","","","","","","","","","","","","","","","feedback_test"
"","","","","","psychophysics","273","628461","0.0-13.0-2.0-1.0-0.0-0.57","593","","f","","","","","","","","","","","","","key","f","16.666894736841908","731.4285714285714","453.42857142857144","f","true","img/T_ambi40.png","三角","simultaneous",""
"","","","","","html-keyboard-response","274","628780","0.0-13.0-2.0-1.0-0.0-1.57","null","<span style='color:GreenYellow; font-size: 70px;'>正确! </span>","null","","","","","","","","","","","","","","","","","","","","","","","feedback_test"
"","","","","","psychophysics","275","630422","0.0-13.0-2.0-1.0-0.0-0.58","638","","f","","","","","","","","","","","","","key","f","16.666373737373934","731.4285714285714","453.42857142857144","f","true","img/S_ambi40.png","方形","simultaneous",""
"","","","","","html-keyboard-response","276","630740","0.0-13.0-2.0-1.0-0.0-1.58","null","<span style='color:GreenYellow; font-size: 70px;'>正确! </span>","null","","","","","","","","","","","","","","","","","","","","","","","feedback_test"
"","","","","","psychophysics","277","632445","0.0-13.0-2.0-1.0-0.0-0.59","703","","j","","","","","","","","","","","","","key","j","16.66701980197968","731.4285714285714","453.42857142857144","j","true","img/C_ambi40.png","方形","simultaneous",""
"","","","","","html-keyboard-response","278","632752","0.0-13.0-2.0-1.0-0.0-1.59","null","<span style='color:GreenYellow; font-size: 70px;'>正确! </span>","null","","","","","","","","","","","","","","","","","","","","","","","feedback_test"
"","","","","","html-keyboard-response","279","634849","0.0-13.0-2.0-1.0-1.0","2096","<style>.context{color:white; font-size: 35px; line-height:40px}</style>                            <div><p class='context'>您正确回答了88% 的试次。</p><p class='context'>您的平均反应时为770毫秒。</p><p class='context'>请按任意键进入休息</p></div>"," ","","","","","","","","","","","","","","","","","","","","","","",""
"","","","","","html-button-response","280","680018","0.0-13.0-2.0-1.0-2.0","45166","
                    <p>您当前还剩余3组实验</p>
                    <p>现在是休息时间，当您结束休息后，您可以点击 结束休息 按钮 继续</p>
                    <p>建议休息时间还剩余<span id=""iii"">60</span>秒</p>","0","","","","","","","","","","","","","","","","","","","","","","",""
"","","","","","psychophysics","281","682527","0.0-13.0-2.0-1.0-0.1-0.60","null","","null","","","","","","","","","","","","","key","null","16.666570469798778","731.4285714285714","453.42857142857144","j","false","img/T_ambi40.png","圆形","simultaneous",""
"","","","","","html-keyboard-response","282","682835","0.0-13.0-2.0-1.0-0.1-1.60","null","<span class='add_' style='color:yellow; font-size: 70px;'> 太慢! </span>","null","","","","","","","","","","","","","","","","","","","","","","","feedback_test"
"","","","","","psychophysics","283","684647","0.0-13.0-2.0-1.0-0.1-0.61","808","","f","","","","","","","","","","","","","key","f","16.666768518517966","731.4285714285714","453.42857142857144","f","true","img/S_ambi40.png","方形","simultaneous",""
"","","","","","html-keyboard-response","284","684961","0.0-13.0-2.0-1.0-0.1-1.61","null","<span style='color:GreenYellow; font-size: 70px;'>正确! </span>","null","","","","","","","","","","","","","","","","","","","","","","","feedback_test"
"","","","","","psychophysics","285","686648","0.0-13.0-2.0-1.0-0.1-0.62","681","","j","","","","","","","","","","","","","key","j","16.666959999999964","731.4285714285714","453.42857142857144","j","true","img/S_ambi40.png","三角","simultaneous",""
"","","","","","html-keyboard-response","286","686958","0.0-13.0-2.0-1.0-0.1-1.62","null","<span style='color:GreenYellow; font-size: 70px;'>正确! </span>","null","","","","","","","","","","","","","","","","","","","","","","","feedback_test"
"","","","","","psychophysics","287","688755","0.0-13.0-2.0-1.0-0.1-0.63","790","","j","","","","","","","","","","","","","key","j","16.667775700933944","731.4285714285714","453.42857142857144","j","true","img/C_ambi40.png","三角","simultaneous",""
"","","","","","html-keyboard-response","288","689072","0.0-13.0-2.0-1.0-0.1-1.63","null","<span style='color:GreenYellow; font-size: 70px;'>正确! </span>","null","","","","","","","","","","","","","","","","","","","","","","","feedback_test"
"","","","","","psychophysics","289","690947","0.0-13.0-2.0-1.0-0.1-0.64","869","","f","","","","","","","","","","","","","key","f","16.666747747748452","731.4285714285714","453.42857142857144","f","true","img/T_ambi40.png","三角","simultaneous",""
"","","","","","html-keyboard-response","290","691260","0.0-13.0-2.0-1.0-0.1-1.64","null","<span style='color:GreenYellow; font-size: 70px;'>正确! </span>","null","","","","","","","","","","","","","","","","","","","","","","","feedback_test"
"","","","","","psychophysics","291","692957","0.0-13.0-2.0-1.0-0.1-0.65","696","","j","","","","","","","","","","","","","key","j","16.66676237623756","731.4285714285714","453.42857142857144","j","true","img/C_ambi40.png","方形","simultaneous",""
"","","","","","html-keyboard-response","292","693266","0.0-13.0-2.0-1.0-0.1-1.65","null","<span style='color:GreenYellow; font-size: 70px;'>正确! </span>","null","","","","","","","","","","","","","","","","","","","","","","","feedback_test"
"","","","","","psychophysics","293","695045","0.0-13.0-2.0-1.0-0.1-0.66","778","","f","","","","","","","","","","","","","key","f","16.666476190476015","731.4285714285714","453.42857142857144","f","true","img/S_ambi40.png","方形","simultaneous",""
"","","","","","html-keyboard-response","294","695360","0.0-13.0-2.0-1.0-0.1-1.66","null","<span style='color:GreenYellow; font-size: 70px;'>正确! </span>","null","","","","","","","","","","","","","","","","","","","","","","","feedback_test"
"","","","","","psychophysics","295","696997","0.0-13.0-2.0-1.0-0.1-0.67","631","","j","","","","","","","","","","","","","key","j","16.666680412370585","731.4285714285714","453.42857142857144","f","false","img/C_ambi40.png","圆形","simultaneous",""
"","","","","","html-keyboard-response","296","697316","0.0-13.0-2.0-1.0-0.1-1.67","null","<span style='color:red; font-size: 70px;'>错误! </span>","null","","","","","","","","","","","","","","","","","","","","","","","feedback_test"
"","","","","","psychophysics","297","699068","0.0-13.0-2.0-1.0-0.1-0.68","751","","f","","","","","","","","","","","","","key","f","16.666653846154357","731.4285714285714","453.42857142857144","f","true","img/T_ambi40.png","三角","simultaneous",""
"","","","","","html-keyboard-response","298","699377","0.0-13.0-2.0-1.0-0.1-1.68","null","<span style='color:GreenYellow; font-size: 70px;'>正确! </span>","null","","","","","","","","","","","","","","","","","","","","","","","feedback_test"
"","","","","","psychophysics","299","701011","0.0-13.0-2.0-1.0-0.1-0.69","629","","j","","","","","","","","","","","","","key","j","16.66721649484507","731.4285714285714","453.42857142857144","j","true","img/S_ambi40.png","圆形","simultaneous",""
"","","","","","html-keyboard-response","300","701320","0.0-13.0-2.0-1.0-0.1-1.69","null","<span style='color:GreenYellow; font-size: 70px;'>正确! </span>","null","","","","","","","","","","","","","","","","","","","","","","","feedback_test"
"","","","","","psychophysics","301","703016","0.0-13.0-2.0-1.0-0.1-0.70","683","","f","","","","","","","","","","","","","key","f","16.666559999999592","731.4285714285714","453.42857142857144","j","false","img/T_ambi40.png","方形","simultaneous",""
"","","","","","html-keyboard-response","302","703326","0.0-13.0-2.0-1.0-0.1-1.70","null","<span style='color:red; font-size: 70px;'>错误! </span>","null","","","","","","","","","","","","","","","","","","","","","","","feedback_test"
"","","","","","psychophysics","303","705214","0.0-13.0-2.0-1.0-0.1-0.71","881","","f","","","","","","","","","","","","","key","f","16.66692857142854","731.4285714285714","453.42857142857144","f","true","img/C_ambi40.png","圆形","simultaneous",""
"","","","","","html-keyboard-response","304","705518","0.0-13.0-2.0-1.0-0.1-1.71","null","<span style='color:GreenYellow; font-size: 70px;'>正确! </span>","null","","","","","","","","","","","","","","","","","","","","","","","feedback_test"
"","","","","","psychophysics","305","707003","0.0-13.0-2.0-1.0-0.1-0.72","478","","f","","","","","","","","","","","","","key","f","16.666795454544957","731.4285714285714","453.42857142857144","f","true","img/C_ambi40.png","圆形","simultaneous",""
"","","","","","html-keyboard-response","306","707321","0.0-13.0-2.0-1.0-0.1-1.72","null","<span style='color:GreenYellow; font-size: 70px;'>正确! </span>","null","","","","","","","","","","","","","","","","","","","","","","","feedback_test"
"","","","","","psychophysics","307","708998","0.0-13.0-2.0-1.0-0.1-0.73","672","","j","","","","","","","","","","","","","key","j","16.666838383838307","731.4285714285714","453.42857142857144","j","true","img/C_ambi40.png","三角","simultaneous",""
"","","","","","html-keyboard-response","308","709314","0.0-13.0-2.0-1.0-0.1-1.73","null","<span style='color:GreenYellow; font-size: 70px;'>正确! </span>","null","","","","","","","","","","","","","","","","","","","","","","","feedback_test"
"","","","","","psychophysics","309","711005","0.0-13.0-2.0-1.0-0.1-0.74","688","","f","","","","","","","","","","","","","key","f","16.66715841584189","731.4285714285714","453.42857142857144","f","true","img/S_ambi40.png","方形","simultaneous",""
"","","","","","html-keyboard-response","310","711314","0.0-13.0-2.0-1.0-0.1-1.74","null","<span style='color:GreenYellow; font-size: 70px;'>正确! </span>","null","","","","","","","","","","","","","","","","","","","","","","","feedback_test"
"","","","","","psychophysics","311","713214","0.0-13.0-2.0-1.0-0.1-0.75","897","","f","","","","","","","","","","","","","key","f","16.66677876106212","731.4285714285714","453.42857142857144","f","true","img/T_ambi40.png","三角","simultaneous",""
"","","","","","html-keyboard-response","312","713519","0.0-13.0-2.0-1.0-0.1-1.75","null","<span style='color:GreenYellow; font-size: 70px;'>正确! </span>","null","","","","","","","","","","","","","","","","","","","","","","","feedback_test"
"","","","","","psychophysics","313","715154","0.0-13.0-2.0-1.0-0.1-0.76","628","","j","","","","","","","","","","","","","key","j","16.666505154638706","731.4285714285714","453.42857142857144","j","true","img/T_ambi40.png","圆形","simultaneous",""
"","","","","","html-keyboard-response","314","715473","0.0-13.0-2.0-1.0-0.1-1.76","null","<span style='color:GreenYellow; font-size: 70px;'>正确! </span>","null","","","","","","","","","","","","","","","","","","","","","","","feedback_test"
"","","","","","psychophysics","315","717127","0.0-13.0-2.0-1.0-0.1-0.77","650","","f","","","","","","","","","","","","","key","f","16.66667346938808","731.4285714285714","453.42857142857144","f","true","img/S_ambi40.png","方形","simultaneous",""
"","","","","","html-keyboard-response","316","717430","0.0-13.0-2.0-1.0-0.1-1.77","null","<span style='color:GreenYellow; font-size: 70px;'>正确! </span>","null","","","","","","","","","","","","","","","","","","","","","","","feedback_test"
"","","","","","psychophysics","317","719131","0.0-13.0-2.0-1.0-0.1-0.78","698","","j","","","","","","","","","","","","","key","j","16.666910891089184","731.4285714285714","453.42857142857144","j","true","img/S_ambi40.png","圆形","simultaneous",""
"","","","","","html-keyboard-response","318","719452","0.0-13.0-2.0-1.0-0.1-1.78","null","<span style='color:GreenYellow; font-size: 70px;'>正确! </span>","null","","","","","","","","","","","","","","","","","","","","","","","feedback_test"
"","","","","","psychophysics","319","721180","0.0-13.0-2.0-1.0-0.1-0.79","726","","j","","","","","","","","","","","","","key","j","16.666627450980812","731.4285714285714","453.42857142857144","j","true","img/C_ambi40.png","方形","simultaneous",""
"","","","","","html-keyboard-response","320","721497","0.0-13.0-2.0-1.0-0.1-1.79","null","<span style='color:GreenYellow; font-size: 70px;'>正确! </span>","null","","","","","","","","","","","","","","","","","","","","","","","feedback_test"
"","","","","","psychophysics","321","723164","0.0-13.0-2.0-1.0-0.1-0.80","665","","j","","","","","","","","","","","","","key","j","16.667101010100474","731.4285714285714","453.42857142857144","j","true","img/T_ambi40.png","方形","simultaneous",""
"","","","","","html-keyboard-response","322","723473","0.0-13.0-2.0-1.0-0.1-1.80","null","<span style='color:GreenYellow; font-size: 70px;'>正确! </span>","null","","","","","","","","","","","","","","","","","","","","","","","feedback_test"
"","","","","","psychophysics","323","725288","0.0-13.0-2.0-1.0-0.1-0.81","810","","f","","","","","","","","","","","","","key","f","16.666712962963008","731.4285714285714","453.42857142857144","f","true","img/T_ambi40.png","三角","simultaneous",""
"","","","","","html-keyboard-response","324","725590","0.0-13.0-2.0-1.0-0.1-1.81","null","<span style='color:GreenYellow; font-size: 70px;'>正确! </span>","null","","","","","","","","","","","","","","","","","","","","","","","feedback_test"
"","","","","","psychophysics","325","727585","0.0-13.0-2.0-1.0-0.1-0.82","988","","f","","","","","","","","","","","","","key","f","16.66632773109297","731.4285714285714","453.42857142857144","f","true","img/C_ambi40.png","圆形","simultaneous",""
"","","","","","html-keyboard-response","326","727901","0.0-13.0-2.0-1.0-0.1-1.82","null","<span style='color:GreenYellow; font-size: 70px;'>正确! </span>","null","","","","","","","","","","","","","","","","","","","","","","","feedback_test"
"","","","","","psychophysics","327","729671","0.0-13.0-2.0-1.0-0.1-0.83","761","","j","","","","","","","","","","","","","key","j","16.661000000000268","731.4285714285714","453.42857142857144","j","true","img/S_ambi40.png","三角","simultaneous",""
"","","","","","html-keyboard-response","328","729979","0.0-13.0-2.0-1.0-0.1-1.83","null","<span style='color:GreenYellow; font-size: 70px;'>正确! </span>","null","","","","","","","","","","","","","","","","","","","","","","","feedback_test"
"","","","","","psychophysics","329","732371","0.0-13.0-2.0-1.0-0.1-0.84","1388","","j","","","","","","","","","","","","","key","j","16.66666433566504","731.4285714285714","453.42857142857144","j","true","img/T_ambi40.png","方形","simultaneous",""
"","","","","","html-keyboard-response","330","732692","0.0-13.0-2.0-1.0-0.1-1.84","null","<span style='color:GreenYellow; font-size: 70px;'>正确! </span>","null","","","","","","","","","","","","","","","","","","","","","","","feedback_test"
"","","","","","psychophysics","331","734357","0.0-13.0-2.0-1.0-0.1-0.85","663","","f","","","","","","","","","","","","","key","f","16.667535353535456","731.4285714285714","453.42857142857144","f","true","img/T_ambi40.png","三角","simultaneous",""
"","","","","","html-keyboard-response","332","734667","0.0-13.0-2.0-1.0-0.1-1.85","null","<span style='color:GreenYellow; font-size: 70px;'>正确! </span>","null","","","","","","","","","","","","","","","","","","","","","","","feedback_test"
"","","","","","psychophysics","333","736423","0.0-13.0-2.0-1.0-0.1-0.86","756","","j","","","","","","","","","","","","","key","j","16.66662500000026","731.4285714285714","453.42857142857144","j","true","img/C_ambi40.png","三角","simultaneous",""
"","","","","","html-keyboard-response","334","736736","0.0-13.0-2.0-1.0-0.1-1.86","null","<span style='color:GreenYellow; font-size: 70px;'>正确! </span>","null","","","","","","","","","","","","","","","","","","","","","","","feedback_test"
"","","","","","psychophysics","335","738540","0.0-13.0-2.0-1.0-0.1-0.87","798","","f","","","","","","","","","","","","","key","f","16.666747663550897","731.4285714285714","453.42857142857144","f","true","img/S_ambi40.png","方形","simultaneous",""
"","","","","","html-keyboard-response","336","738851","0.0-13.0-2.0-1.0-0.1-1.87","null","<span style='color:GreenYellow; font-size: 70px;'>正确! </span>","null","","","","","","","","","","","","","","","","","","","","","","","feedback_test"
"","","","","","psychophysics","337","740672","0.0-13.0-2.0-1.0-0.1-0.88","817","","f","","","","","","","","","","","","","key","f","16.666814814814305","731.4285714285714","453.42857142857144","f","true","img/S_ambi40.png","方形","simultaneous",""
"","","","","","html-keyboard-response","338","740980","0.0-13.0-2.0-1.0-0.1-1.88","null","<span style='color:GreenYellow; font-size: 70px;'>正确! </span>","null","","","","","","","","","","","","","","","","","","","","","","","feedback_test"
"","","","","","psychophysics","339","742802","0.0-13.0-2.0-1.0-0.1-0.89","818","","j","","","","","","","","","","","","","key","j","16.667394495413237","731.4285714285714","453.42857142857144","j","true","img/S_ambi40.png","三角","simultaneous",""
"","","","","","html-keyboard-response","340","743117","0.0-13.0-2.0-1.0-0.1-1.89","null","<span style='color:GreenYellow; font-size: 70px;'>正确! </span>","null","","","","","","","","","","","","","","","","","","","","","","","feedback_test"
"","","","","","psychophysics","341","744904","0.0-13.0-2.0-1.0-0.1-0.90","777","","j","","","","","","","","","","","","","key","j","16.666386792452716","731.4285714285714","453.42857142857144","j","true","img/C_ambi40.png","方形","simultaneous",""
"","","","","","html-keyboard-response","342","745218","0.0-13.0-2.0-1.0-0.1-1.90","null","<span style='color:GreenYellow; font-size: 70px;'>正确! </span>","null","","","","","","","","","","","","","","","","","","","","","","","feedback_test"
"","","","","","psychophysics","343","747207","0.0-13.0-2.0-1.0-0.1-0.91","984","","f","","","","","","","","","","","","","key","f","16.66521186440674","731.4285714285714","453.42857142857144","f","true","img/T_ambi40.png","三角","simultaneous",""
"","","","","","html-keyboard-response","344","747511","0.0-13.0-2.0-1.0-0.1-1.91","null","<span style='color:GreenYellow; font-size: 70px;'>正确! </span>","null","","","","","","","","","","","","","","","","","","","","","","","feedback_test"
"","","","","","psychophysics","345","749203","0.0-13.0-2.0-1.0-0.1-0.92","686","","f","","","","","","","","","","","","","key","f","16.666891089109196","731.4285714285714","453.42857142857144","f","true","img/C_ambi40.png","圆形","simultaneous",""
"","","","","","html-keyboard-response","346","749512","0.0-13.0-2.0-1.0-0.1-1.92","null","<span style='color:GreenYellow; font-size: 70px;'>正确! </span>","null","","","","","","","","","","","","","","","","","","","","","","","feedback_test"
"","","","","","psychophysics","347","751207","0.0-13.0-2.0-1.0-0.1-0.93","690","","j","","","","","","","","","","","","","key","j","16.666910891089184","731.4285714285714","453.42857142857144","j","true","img/S_ambi40.png","圆形","simultaneous",""
"","","","","","html-keyboard-response","348","751521","0.0-13.0-2.0-1.0-0.1-1.93","null","<span style='color:GreenYellow; font-size: 70px;'>正确! </span>","null","","","","","","","","","","","","","","","","","","","","","","","feedback_test"
"","","","","","psychophysics","349","753281","0.0-13.0-2.0-1.0-0.1-0.94","754","","f","","","","","","","","","","","","","key","f","16.667295238095157","731.4285714285714","453.42857142857144","j","false","img/T_ambi40.png","圆形","simultaneous",""
"","","","","","html-keyboard-response","350","753588","0.0-13.0-2.0-1.0-0.1-1.94","null","<span style='color:red; font-size: 70px;'>错误! </span>","null","","","","","","","","","","","","","","","","","","","","","","","feedback_test"
"","","","","","psychophysics","351","755252","0.0-13.0-2.0-1.0-0.1-0.95","662","","f","","","","","","","","","","","","","key","f","16.66643434343389","731.4285714285714","453.42857142857144","f","true","img/C_ambi40.png","圆形","simultaneous",""
"","","","","","html-keyboard-response","352","755565","0.0-13.0-2.0-1.0-0.1-1.95","null","<span style='color:GreenYellow; font-size: 70px;'>正确! </span>","null","","","","","","","","","","","","","","","","","","","","","","","feedback_test"
"","","","","","psychophysics","353","757329","0.0-13.0-2.0-1.0-0.1-0.96","762","","j","","","","","","","","","","","","","key","j","16.539798076922754","731.4285714285714","453.42857142857144","j","true","img/C_ambi40.png","三角","simultaneous",""
"","","","","","html-keyboard-response","354","757644","0.0-13.0-2.0-1.0-0.1-1.96","null","<span style='color:GreenYellow; font-size: 70px;'>正确! </span>","null","","","","","","","","","","","","","","","","","","","","","","","feedback_test"
"","","","","","psychophysics","355","759219","0.0-13.0-2.0-1.0-0.1-0.97","572","","f","","","","","","","","","","","","","key","f","16.667234042552895","731.4285714285714","453.42857142857144","f","true","img/S_ambi40.png","方形","simultaneous",""
"","","","","","html-keyboard-response","356","759530","0.0-13.0-2.0-1.0-0.1-1.97","null","<span style='color:GreenYellow; font-size: 70px;'>正确! </span>","null","","","","","","","","","","","","","","","","","","","","","","","feedback_test"
"","","","","","psychophysics","357","761169","0.0-13.0-2.0-1.0-0.1-0.98","636","","f","","","","","","","","","","","","","key","f","16.666632653061985","731.4285714285714","453.42857142857144","f","true","img/C_ambi40.png","圆形","simultaneous",""
"","","","","","html-keyboard-response","358","761488","0.0-13.0-2.0-1.0-0.1-1.98","null","<span style='color:GreenYellow; font-size: 70px;'>正确! </span>","null","","","","","","","","","","","","","","","","","","","","","","","feedback_test"
"","","","","","psychophysics","359","763089","0.0-13.0-2.0-1.0-0.1-0.99","595","","j","","","","","","","","","","","","","key","j","16.666621052631864","731.4285714285714","453.42857142857144","j","true","img/T_ambi40.png","圆形","simultaneous",""
"","","","","","html-keyboard-response","360","763398","0.0-13.0-2.0-1.0-0.1-1.99","null","<span style='color:GreenYellow; font-size: 70px;'>正确! </span>","null","","","","","","","","","","","","","","","","","","","","","","","feedback_test"
"","","","","","psychophysics","361","764979","0.0-13.0-2.0-1.0-0.1-0.100","580","","j","","","","","","","","","","","","","key","j","16.528086021504997","731.4285714285714","453.42857142857144","f","false","img/T_ambi40.png","三角","simultaneous",""
"","","","","","html-keyboard-response","362","765301","0.0-13.0-2.0-1.0-0.1-1.100","null","<span style='color:red; font-size: 70px;'>错误! </span>","null","","","","","","","","","","","","","","","","","","","","","","","feedback_test"
"","","","","","psychophysics","363","766962","0.0-13.0-2.0-1.0-0.1-0.101","660","","f","","","","","","","","","","","","","key","f","16.664795918367584","731.4285714285714","453.42857142857144","j","false","img/T_ambi40.png","方形","simultaneous",""
"","","","","","html-keyboard-response","364","767283","0.0-13.0-2.0-1.0-0.1-1.101","null","<span style='color:red; font-size: 70px;'>错误! </span>","null","","","","","","","","","","","","","","","","","","","","","","","feedback_test"
"","","","","","psychophysics","365","768948","0.0-13.0-2.0-1.0-0.1-0.102","664","","f","","","","","","","","","","","","","key","f","16.66593877551008","731.4285714285714","453.42857142857144","f","true","img/C_ambi40.png","圆形","simultaneous",""
"","","","","","html-keyboard-response","366","769256","0.0-13.0-2.0-1.0-0.1-1.102","null","<span style='color:GreenYellow; font-size: 70px;'>正确! </span>","null","","","","","","","","","","","","","","","","","","","","","","","feedback_test"
"","","","","","psychophysics","367","770876","0.0-13.0-2.0-1.0-0.1-0.103","614","","j","","","","","","","","","","","","","key","j","16.666833333333972","731.4285714285714","453.42857142857144","j","true","img/S_ambi40.png","圆形","simultaneous",""
"","","","","","html-keyboard-response","368","771195","0.0-13.0-2.0-1.0-0.1-1.103","null","<span style='color:GreenYellow; font-size: 70px;'>正确! </span>","null","","","","","","","","","","","","","","","","","","","","","","","feedback_test"
"","","","","","psychophysics","369","772977","0.0-13.0-2.0-1.0-0.1-0.104","779","","j","","","","","","","","","","","","","key","j","16.66647169811383","731.4285714285714","453.42857142857144","j","true","img/S_ambi40.png","三角","simultaneous",""
"","","","","","html-keyboard-response","370","773296","0.0-13.0-2.0-1.0-0.1-1.104","null","<span style='color:GreenYellow; font-size: 70px;'>正确! </span>","null","","","","","","","","","","","","","","","","","","","","","","","feedback_test"
"","","","","","psychophysics","371","775079","0.0-13.0-2.0-1.0-0.1-0.105","779","","f","","","","","","","","","","","","","key","f","16.666726415093883","731.4285714285714","453.42857142857144","f","true","img/S_ambi40.png","方形","simultaneous",""
"","","","","","html-keyboard-response","372","775396","0.0-13.0-2.0-1.0-0.1-1.105","null","<span style='color:GreenYellow; font-size: 70px;'>正确! </span>","null","","","","","","","","","","","","","","","","","","","","","","","feedback_test"
"","","","","","psychophysics","373","777042","0.0-13.0-2.0-1.0-0.1-0.106","642","","j","","","","","","","","","","","","","key","j","16.666918367347016","731.4285714285714","453.42857142857144","j","true","img/C_ambi40.png","方形","simultaneous",""
"","","","","","html-keyboard-response","374","777351","0.0-13.0-2.0-1.0-0.1-1.106","null","<span style='color:GreenYellow; font-size: 70px;'>正确! </span>","null","","","","","","","","","","","","","","","","","","","","","","","feedback_test"
"","","","","","psychophysics","375","778910","0.0-13.0-2.0-1.0-0.1-0.107","552","","f","","","","","","","","","","","","","key","f","16.66684782608797","731.4285714285714","453.42857142857144","f","true","img/T_ambi40.png","三角","simultaneous",""
"","","","","","html-keyboard-response","376","779214","0.0-13.0-2.0-1.0-0.1-1.107","null","<span style='color:GreenYellow; font-size: 70px;'>正确! </span>","null","","","","","","","","","","","","","","","","","","","","","","","feedback_test"
"","","","","","psychophysics","377","780882","0.0-13.0-2.0-1.0-0.1-0.108","666","","j","","","","","","","","","","","","","key","j","16.530673469388287","731.4285714285714","453.42857142857144","j","true","img/C_ambi40.png","三角","simultaneous",""
"","","","","","html-keyboard-response","378","781205","0.0-13.0-2.0-1.0-0.1-1.108","null","<span style='color:GreenYellow; font-size: 70px;'>正确! </span>","null","","","","","","","","","","","","","","","","","","","","","","","feedback_test"
"","","","","","psychophysics","379","783220","0.0-13.0-2.0-1.0-0.1-0.109","1013","","j","","","","","","","","","","","","","key","j","16.666341666666753","731.4285714285714","453.42857142857144","j","true","img/T_ambi40.png","圆形","simultaneous",""
"","","","","","html-keyboard-response","380","783534","0.0-13.0-2.0-1.0-0.1-1.109","null","<span style='color:GreenYellow; font-size: 70px;'>正确! </span>","null","","","","","","","","","","","","","","","","","","","","","","","feedback_test"
"","","","","","psychophysics","381","785074","0.0-13.0-2.0-1.0-0.1-0.110","532","","f","","","","","","","","","","","","","key","f","16.664417582418217","731.4285714285714","453.42857142857144","f","true","img/S_ambi40.png","方形","simultaneous",""
"","","","","","html-keyboard-response","382","785389","0.0-13.0-2.0-1.0-0.1-1.110","null","<span style='color:GreenYellow; font-size: 70px;'>正确! </span>","null","","","","","","","","","","","","","","","","","","","","","","","feedback_test"
"","","","","","psychophysics","383","786999","0.0-13.0-2.0-1.0-0.1-0.111","600","","j","","","","","","","","","","","","","key","j","16.666789473683917","731.4285714285714","453.42857142857144","j","true","img/T_ambi40.png","方形","simultaneous",""
"","","","","","html-keyboard-response","384","787314","0.0-13.0-2.0-1.0-0.1-1.111","null","<span style='color:GreenYellow; font-size: 70px;'>正确! </span>","null","","","","","","","","","","","","","","","","","","","","","","","feedback_test"
"","","","","","psychophysics","385","789135","0.0-13.0-2.0-1.0-0.1-0.112","819","","j","","","","","","","","","","","","","key","j","16.66656880734014","731.4285714285714","453.42857142857144","j","true","img/S_ambi40.png","三角","simultaneous",""
"","","","","","html-keyboard-response","386","789452","0.0-13.0-2.0-1.0-0.1-1.112","null","<span style='color:GreenYellow; font-size: 70px;'>正确! </span>","null","","","","","","","","","","","","","","","","","","","","","","","feedback_test"
"","","","","","psychophysics","387","791206","0.0-13.0-2.0-1.0-0.1-0.113","744","","j","","","","","","","","","","","","","key","j","16.666884615384895","731.4285714285714","453.42857142857144","j","true","img/C_ambi40.png","方形","simultaneous",""
"","","","","","html-keyboard-response","388","791515","0.0-13.0-2.0-1.0-0.1-1.113","null","<span style='color:GreenYellow; font-size: 70px;'>正确! </span>","null","","","","","","","","","","","","","","","","","","","","","","","feedback_test"
"","","","","","psychophysics","389","793191","0.0-13.0-2.0-1.0-0.1-0.114","674","","f","","","","","","","","","","","","","key","f","16.533101010101028","731.4285714285714","453.42857142857144","f","true","img/T_ambi40.png","三角","simultaneous",""
"","","","","","html-keyboard-response","390","793505","0.0-13.0-2.0-1.0-0.1-1.114","null","<span style='color:GreenYellow; font-size: 70px;'>正确! </span>","null","","","","","","","","","","","","","","","","","","","","","","","feedback_test"
"","","","","","psychophysics","391","795122","0.0-13.0-2.0-1.0-0.1-0.115","610","","j","","","","","","","","","","","","","key","j","16.665989583332703","731.4285714285714","453.42857142857144","j","true","img/S_ambi40.png","圆形","simultaneous",""
"","","","","","html-keyboard-response","392","795442","0.0-13.0-2.0-1.0-0.1-1.115","null","<span style='color:GreenYellow; font-size: 70px;'>正确! </span>","null","","","","","","","","","","","","","","","","","","","","","","","feedback_test"
"","","","","","psychophysics","393","797232","0.0-13.0-2.0-1.0-0.1-0.116","786","","f","","","","","","","","","","","","","key","f","16.666839622642037","731.4285714285714","453.42857142857144","f","true","img/C_ambi40.png","圆形","simultaneous",""
"","","","","","html-keyboard-response","394","797556","0.0-13.0-2.0-1.0-0.1-1.116","null","<span style='color:GreenYellow; font-size: 70px;'>正确! </span>","null","","","","","","","","","","","","","","","","","","","","","","","feedback_test"
"","","","","","psychophysics","395","799455","0.0-13.0-2.0-1.0-0.1-0.117","897","","f","","","","","","","","","","","","","key","f","16.66652212389415","731.4285714285714","453.42857142857144","f","true","img/T_ambi40.png","三角","simultaneous",""
"","","","","","html-keyboard-response","396","799766","0.0-13.0-2.0-1.0-0.1-1.117","null","<span style='color:GreenYellow; font-size: 70px;'>正确! </span>","null","","","","","","","","","","","","","","","","","","","","","","","feedback_test"
"","","","","","psychophysics","397","801309","0.0-13.0-2.0-1.0-0.1-0.118","542","","f","","","","","","","","","","","","","key","f","16.667142857143727","731.4285714285714","453.42857142857144","f","true","img/S_ambi40.png","方形","simultaneous",""
"","","","","","html-keyboard-response","398","801614","0.0-13.0-2.0-1.0-0.1-1.118","null","<span style='color:GreenYellow; font-size: 70px;'>正确! </span>","null","","","","","","","","","","","","","","","","","","","","","","","feedback_test"
"","","","","","psychophysics","399","803166","0.0-13.0-2.0-1.0-0.1-0.119","550","","f","","","","","","","","","","","","","key","f","16.667097826085925","731.4285714285714","453.42857142857144","f","true","img/C_ambi40.png","圆形","simultaneous",""
"","","","","","html-keyboard-response","400","803484","0.0-13.0-2.0-1.0-0.1-1.119","null","<span style='color:GreenYellow; font-size: 70px;'>正确! </span>","null","","","","","","","","","","","","","","","","","","","","","","","feedback_test"
"","","","","","html-keyboard-response","401","805201","0.0-13.0-2.0-1.0-1.1","1715","<style>.context{color:white; font-size: 35px; line-height:40px}</style>                            <div><p class='context'>您正确回答了90% 的试次。</p><p class='context'>您的平均反应时为734毫秒。</p><p class='context'>请按任意键进入休息</p></div>"," ","","","","","","","","","","","","","","","","","","","","","","",""
"","","","","","html-button-response","402","834119","0.0-13.0-2.0-1.0-2.1","28915","
                    <p>您当前还剩余2组实验</p>
                    <p>现在是休息时间，当您结束休息后，您可以点击 结束休息 按钮 继续</p>
                    <p>建议休息时间还剩余<span id=""iii"">60</span>秒</p>","0","","","","","","","","","","","","","","","","","","","","","","",""
"","","","","","psychophysics","403","835715","0.0-13.0-2.0-1.0-0.2-0.120","589","","f","","","","","","","","","","","","","key","f","16.66645744680848","731.4285714285714","453.42857142857144","f","true","img/S_ambi40.png","方形","simultaneous",""
"","","","","","html-keyboard-response","404","836022","0.0-13.0-2.0-1.0-0.2-1.120","null","<span style='color:GreenYellow; font-size: 70px;'>正确! </span>","null","","","","","","","","","","","","","","","","","","","","","","","feedback_test"
"","","","","","psychophysics","405","837670","0.0-13.0-2.0-1.0-0.2-0.121","640","","j","","","","","","","","","","","","","key","j","16.666571428571658","731.4285714285714","453.42857142857144","j","true","img/T_ambi40.png","方形","simultaneous",""
"","","","","","html-keyboard-response","406","837979","0.0-13.0-2.0-1.0-0.2-1.121","null","<span style='color:GreenYellow; font-size: 70px;'>正确! </span>","null","","","","","","","","","","","","","","","","","","","","","","","feedback_test"
"","","","","","psychophysics","407","839669","0.0-13.0-2.0-1.0-0.2-0.122","686","","j","","","","","","","","","","","","","key","j","16.666722772276433","731.4285714285714","453.42857142857144","j","true","img/S_ambi40.png","三角","simultaneous",""
