"success","timeout","failed_images","failed_audio","failed_video","trial_type","trial_index","time_elapsed","internal_node_id","rt","stimulus","response","value","item_width_mm","item_height_mm","item_width_px","px2mm","view_dist_mm","item_width_deg","px2deg","scale_factor","win_width_deg","win_height_deg","view_history","response_type","key_press","avg_frame_time","center_x","center_y","correct_response","correct","Image","word","condition","screen_id"
"true","false","[]","[]","[]","preload","0","4099","0.0-0.0","","","","","","","","","","","","","","","","","","","","","","","","","",""
"","","","","","html-keyboard-response","1","9955","0.0-1.0","5856","
   <p>您好，欢迎参加本次实验。</p>
   <p>为充分保障您的权利，请确保您已经知晓并同意《参与实验同意书》以及《数据公开知情同意书》。</p>
   <p>如果您未见过上述内容，请咨询实验员。</p>
   <p>如果您选择继续实验，则表示您已经清楚两份知情同意书的内容并同意。</p>
   <p> <div style = ""color: green""><按任意键至下页></div> </p>
   "," ","","","","","","","","","","","","","","","","","","","","","","",""
"","","","","","html-keyboard-response","2","12159","0.0-2.0","2204","
   <p>本实验首先需要您填写一些基本个人信息。</p>
   <p> <div style = ""color: green""><按任意键至下页></div></p>
   "," ","","","","","","","","","","","","","","","","","","","","","","",""
"","","","","","call-function","3","12160","0.0-3.0-0.0","","","","","","","","","","","","","","","","","","","","","","","","","",""
"","","","","","survey-html-form","4","33813","0.0-3.0-1.0","21650","","{""Q0"":""20""}","","","","","","","","","","","","","","","","","","","","","","",""
"","","","","","html-button-response","5","35148","0.0-3.0-2.0","1333","<p style = 'color : white'>您的性别</p>","1","","","","","","","","","","","","","","","","","","","","","","",""
"","","","","","survey-html-form","6","39224","0.0-3.0-3.0","4075","","{""Q0"":""2001""}","","","","","","","","","","","","","","","","","","","","","","",""
"","","","","","survey-html-form","7","43734","0.0-3.0-4.0","4509","","{""Q0"":""5""}","","","","","","","","","","","","","","","","","","","","","","",""
"","","","","","virtual-chinrest","8","191974","0.0-4.0","148238","","","","85.6","53.98","380.02054084812744","4.440136371049364","644.35","7.600410816962549","50","1.0157345682907761","29.8","15.08","","","","","","","","","","","",""
"true","","","","","fullscreen","9","196136","0.0-5.0","","","","","","","","","","","","","","","","","","","","","","","","","",""
"","","","","","instructions","10","263350","0.0-6.0","67213","","","","","","","","","","","","","","[{""page_index"":0,""viewing_time"":8119},{""page_index"":1,""viewing_time"":37911},{""page_index"":2,""viewing_time"":14362},{""page_index"":3,""viewing_time"":6821}]","","","","","","","","","","",""
"","","","","","psychophysics","11","266014","0.0-7.0-0.0-0.0","null","","null","","","","","","","","","","","","","key","null","16.65068354430355","768","428","f","false","img/S_ambi40.png","方形","prac_image_first",""
"","","","","","html-keyboard-response","12","266333","0.0-7.0-0.0-1.0","null","<span class='add_' style='color:yellow; font-size: 70px;'> 太慢! </span>","null","","","","","","","","","","","","","","","","","","","","","","","feedback_test"
"","","","","","psychophysics","13","268990","0.0-7.0-0.0-0.1","null","","null","","","","","","","","","","","","","key","null","16.64922151898728","768","428","f","false","img/C_ambi40.png","圆形","prac_image_first",""
"","","","","","html-keyboard-response","14","269304","0.0-7.0-0.0-1.1","null","<span class='add_' style='color:yellow; font-size: 70px;'> 太慢! </span>","null","","","","","","","","","","","","","","","","","","","","","","","feedback_test"
"","","","","","psychophysics","15","271198","0.0-7.0-0.0-0.2","738","","j","","","","","","","","","","","","","key","j","16.6499115044248","768","428","f","false","img/C_ambi40.png","圆形","prac_image_first",""
"","","","","","html-keyboard-response","16","271513","0.0-7.0-0.0-1.2","null","<span style='color:red; font-size: 70px;'>错误! </span>","null","","","","","","","","","","","","","","","","","","","","","","","feedback_test"
"","","","","","psychophysics","17","274167","0.0-7.0-0.0-0.3","null","","null","","","","","","","","","","","","","key","null","16.647550632911543","768","428","f","false","img/T_ambi40.png","三角","prac_image_first",""
"","","","","","html-keyboard-response","18","274483","0.0-7.0-0.0-1.3","null","<span class='add_' style='color:yellow; font-size: 70px;'> 太慢! </span>","null","","","","","","","","","","","","","","","","","","","","","","","feedback_test"
"","","","","","psychophysics","19","277135","0.0-7.0-0.0-0.4","null","","null","","","","","","","","","","","","","key","null","16.649188679245405","768","428","f","false","img/T_ambi40.png","三角","prac_image_first",""
"","","","","","html-keyboard-response","20","277440","0.0-7.0-0.0-1.4","null","<span class='add_' style='color:yellow; font-size: 70px;'> 太慢! </span>","null","","","","","","","","","","","","","","","","","","","","","","","feedback_test"
"","","","","","psychophysics","21","279595","0.0-7.0-0.0-0.5","996","","j","","","","","","","","","","","","","key","j","16.6488671875004","768","428","j","true","img/C_ambi40.png","三角","prac_image_first",""
"","","","","","html-keyboard-response","22","279909","0.0-7.0-0.0-1.5","null","<span style='color:GreenYellow; font-size: 70px;'>正确! </span>","null","","","","","","","","","","","","","","","","","","","","","","","feedback_test"
"","","","","","psychophysics","23","282336","0.0-7.0-0.0-0.6","1273","","f","","","","","","","","","","","","","key","f","16.650427586207133","768","428","f","true","img/S_ambi40.png","方形","prac_image_first",""
"","","","","","html-keyboard-response","24","282649","0.0-7.0-0.0-1.6","null","<span style='color:GreenYellow; font-size: 70px;'>正确! </span>","null","","","","","","","","","","","","","","","","","","","","","","","feedback_test"
"","","","","","psychophysics","25","285203","0.0-7.0-0.0-0.7","1397","","j","","","","","","","","","","","","","key","j","16.648638157894695","768","428","j","true","img/S_ambi40.png","三角","prac_image_first",""
"","","","","","html-keyboard-response","26","285523","0.0-7.0-0.0-1.7","null","<span style='color:GreenYellow; font-size: 70px;'>正确! </span>","null","","","","","","","","","","","","","","","","","","","","","","","feedback_test"
"","","","","","psychophysics","27","287789","0.0-7.0-0.0-0.8","1115","","f","","","","","","","","","","","","","key","f","16.64925925925943","768","428","j","false","img/T_ambi40.png","圆形","prac_image_first",""
"","","","","","html-keyboard-response","28","288097","0.0-7.0-0.0-1.8","null","<span style='color:red; font-size: 70px;'>错误! </span>","null","","","","","","","","","","","","","","","","","","","","","","","feedback_test"
"","","","","","psychophysics","29","290750","0.0-7.0-0.0-0.9","null","","null","","","","","","","","","","","","","key","null","16.647377358490687","768","428","j","false","img/S_ambi40.png","圆形","prac_image_first",""
"","","","","","html-keyboard-response","30","291058","0.0-7.0-0.0-1.9","null","<span class='add_' style='color:yellow; font-size: 70px;'> 太慢! </span>","null","","","","","","","","","","","","","","","","","","","","","","","feedback_test"
"","","","","","psychophysics","31","293308","0.0-7.0-0.0-0.10","1094","","j","","","","","","","","","","","","","key","j","16.647599999999834","768","428","j","true","img/T_ambi40.png","方形","prac_image_first",""
"","","","","","html-keyboard-response","32","293616","0.0-7.0-0.0-1.10","null","<span style='color:GreenYellow; font-size: 70px;'>正确! </span>","null","","","","","","","","","","","","","","","","","","","","","","","feedback_test"
"","","","","","psychophysics","33","295564","0.0-7.0-0.0-0.11","796","","j","","","","","","","","","","","","","key","j","16.53331304347831","768","428","j","true","img/C_ambi40.png","方形","prac_image_first",""
"","","","","","html-keyboard-response","34","295875","0.0-7.0-0.0-1.11","null","<span style='color:GreenYellow; font-size: 70px;'>正确! </span>","null","","","","","","","","","","","","","","","","","","","","","","","feedback_test"
"","","","","","psychophysics","35","297626","0.0-7.0-0.0-0.12","595","","j","","","","","","","","","","","","","key","j","16.648721153846193","768","428","j","true","img/T_ambi40.png","圆形","prac_image_first",""
"","","","","","html-keyboard-response","36","297949","0.0-7.0-0.0-1.12","null","<span style='color:GreenYellow; font-size: 70px;'>正确! </span>","null","","","","","","","","","","","","","","","","","","","","","","","feedback_test"
"","","","","","psychophysics","37","299818","0.0-7.0-0.0-0.13","715","","j","","","","","","","","","","","","","key","j","16.64954054054095","768","428","j","true","img/S_ambi40.png","圆形","prac_image_first",""
"","","","","","html-keyboard-response","38","300141","0.0-7.0-0.0-1.13","null","<span style='color:GreenYellow; font-size: 70px;'>正确! </span>","null","","","","","","","","","","","","","","","","","","","","","","","feedback_test"
"","","","","","psychophysics","39","302173","0.0-7.0-0.0-0.14","881","","f","","","","","","","","","","","","","key","f","16.64920661157028","768","428","f","true","img/T_ambi40.png","三角","prac_image_first",""
"","","","","","html-keyboard-response","40","302483","0.0-7.0-0.0-1.14","null","<span style='color:GreenYellow; font-size: 70px;'>正确! </span>","null","","","","","","","","","","","","","","","","","","","","","","","feedback_test"
"","","","","","psychophysics","41","304918","0.0-7.0-0.0-0.15","1278","","f","","","","","","","","","","","","","key","f","16.648944827586266","768","428","f","true","img/T_ambi40.png","三角","prac_image_first",""
"","","","","","html-keyboard-response","42","305223","0.0-7.0-0.0-1.15","null","<span style='color:GreenYellow; font-size: 70px;'>正确! </span>","null","","","","","","","","","","","","","","","","","","","","","","","feedback_test"
"","","","","","psychophysics","43","307143","0.0-7.0-0.0-0.16","768","","j","","","","","","","","","","","","","key","j","16.648929824561428","768","428","j","true","img/C_ambi40.png","方形","prac_image_first",""
"","","","","","html-keyboard-response","44","307461","0.0-7.0-0.0-1.16","null","<span style='color:GreenYellow; font-size: 70px;'>正确! </span>","null","","","","","","","","","","","","","","","","","","","","","","","feedback_test"
"","","","","","psychophysics","45","310117","0.0-7.0-0.0-0.17","null","","null","","","","","","","","","","","","","key","null","16.65018867924531","768","428","j","false","img/C_ambi40.png","三角","prac_image_first",""
"","","","","","html-keyboard-response","46","310432","0.0-7.0-0.0-1.17","null","<span class='add_' style='color:yellow; font-size: 70px;'> 太慢! </span>","null","","","","","","","","","","","","","","","","","","","","","","","feedback_test"
"","","","","","psychophysics","47","312526","0.0-7.0-0.0-0.18","942","","f","","","","","","","","","","","","","key","f","16.537516129032273","768","428","f","true","img/C_ambi40.png","圆形","prac_image_first",""
"","","","","","html-keyboard-response","48","312841","0.0-7.0-0.0-1.18","null","<span style='color:GreenYellow; font-size: 70px;'>正确! </span>","null","","","","","","","","","","","","","","","","","","","","","","","feedback_test"
"","","","","","psychophysics","49","315371","0.0-7.0-0.0-0.19","1375","","f","","","","","","","","","","","","","key","f","16.650615894039845","768","428","f","true","img/S_ambi40.png","方形","prac_image_first",""
"","","","","","html-keyboard-response","50","315693","0.0-7.0-0.0-1.19","null","<span style='color:GreenYellow; font-size: 70px;'>正确! </span>","null","","","","","","","","","","","","","","","","","","","","","","","feedback_test"
"","","","","","psychophysics","51","317730","0.0-7.0-0.0-0.20","886","","j","","","","","","","","","","","","","key","j","16.650735537190094","768","428","j","true","img/T_ambi40.png","方形","prac_image_first",""
"","","","","","html-keyboard-response","52","318043","0.0-7.0-0.0-1.20","null","<span style='color:GreenYellow; font-size: 70px;'>正确! </span>","null","","","","","","","","","","","","","","","","","","","","","","","feedback_test"
"","","","","","psychophysics","53","320514","0.0-7.0-0.0-0.21","1315","","f","","","","","","","","","","","","","key","f","16.64890476190493","768","428","f","true","img/S_ambi40.png","方形","prac_image_first",""
"","","","","","html-keyboard-response","54","320824","0.0-7.0-0.0-1.21","null","<span style='color:GreenYellow; font-size: 70px;'>正确! </span>","null","","","","","","","","","","","","","","","","","","","","","","","feedback_test"
"","","","","","psychophysics","55","322756","0.0-7.0-0.0-0.22","773","","f","","","","","","","","","","","","","key","f","16.65006956521766","768","428","f","true","img/C_ambi40.png","圆形","prac_image_first",""
"","","","","","html-keyboard-response","56","323077","0.0-7.0-0.0-1.22","null","<span style='color:GreenYellow; font-size: 70px;'>正确! </span>","null","","","","","","","","","","","","","","","","","","","","","","","feedback_test"
"","","","","","psychophysics","57","325075","0.0-7.0-0.0-0.23","843","","j","","","","","","","","","","","","","key","j","16.64897478991599","768","428","j","true","img/S_ambi40.png","三角","prac_image_first",""
"","","","","","html-keyboard-response","58","325390","0.0-7.0-0.0-1.23","null","<span style='color:GreenYellow; font-size: 70px;'>正确! </span>","null","","","","","","","","","","","","","","","","","","","","","","","feedback_test"
"","","","","","html-keyboard-response","59","331687","0.0-8.0","6295","<style>.context{color:white; font-size: 35px; line-height:40px}</style>                            <div><p class='context'>您正确回答了67% 的试次。</p><p class='context'>您的平均反应时为995毫秒。</p><p class='context'>恭喜您完成这一阶段的练习。按任意键进入<span style='color: yellow;'>先文字后图形条件</span>的练习。</p></div>","j","","","","","","","","","","","","","","","","","","","","","","",""
"","","","","","psychophysics","60","333953","0.0-9.0-0.0-0.0","1108","","j","","","","","","","","","","","","","key","j","16.649540740740484","768","428","j","true","img/S_ambi40.png","三角","prac_word_first",""
"","","","","","html-keyboard-response","61","334260","0.0-9.0-0.0-1.0","null","<span style='color:GreenYellow; font-size: 70px;'>正确! </span>","null","","","","","","","","","","","","","","","","","","","","","","","feedback_test"
"","","","","","psychophysics","62","336920","0.0-9.0-0.0-0.1","null","","null","","","","","","","","","","","","","key","null","16.649063291139033","768","428","f","false","img/C_ambi40.png","圆形","prac_word_first",""
"","","","","","html-keyboard-response","63","337231","0.0-9.0-0.0-1.1","null","<span class='add_' style='color:yellow; font-size: 70px;'> 太慢! </span>","null","","","","","","","","","","","","","","","","","","","","","","","feedback_test"
"","","","","","psychophysics","64","339268","0.0-9.0-0.0-0.2","885","","j","","","","","","","","","","","","","key","j","16.649099173553456","768","428","j","true","img/S_ambi40.png","圆形","prac_word_first",""
"","","","","","html-keyboard-response","65","339577","0.0-9.0-0.0-1.2","null","<span style='color:GreenYellow; font-size: 70px;'>正确! </span>","null","","","","","","","","","","","","","","","","","","","","","","","feedback_test"
"","","","","","psychophysics","66","342232","0.0-9.0-0.0-0.3","null","","null","","","","","","","","","","","","","key","null","16.648930379746943","768","428","j","false","img/T_ambi40.png","圆形","prac_word_first",""
"","","","","","html-keyboard-response","67","342541","0.0-9.0-0.0-1.3","null","<span class='add_' style='color:yellow; font-size: 70px;'> 太慢! </span>","null","","","","","","","","","","","","","","","","","","","","","","","feedback_test"
"","","","","","psychophysics","68","345193","0.0-9.0-0.0-0.4","1498","","j","","","","","","","","","","","","","key","j","16.649544303797263","768","428","j","true","img/C_ambi40.png","三角","prac_word_first",""
"","","","","","html-keyboard-response","69","345499","0.0-9.0-0.0-1.4","null","<span style='color:GreenYellow; font-size: 70px;'>正确! </span>","null","","","","","","","","","","","","","","","","","","","","","","","feedback_test"
"","","","","","psychophysics","70","347235","0.0-9.0-0.0-0.5","579","","j","","","","","","","","","","","","","key","j","16.64977669902937","768","428","j","true","img/C_ambi40.png","方形","prac_word_first",""
"","","","","","html-keyboard-response","71","347556","0.0-9.0-0.0-1.5","null","<span style='color:GreenYellow; font-size: 70px;'>正确! </span>","null","","","","","","","","","","","","","","","","","","","","","","","feedback_test"
"","","","","","psychophysics","72","349512","0.0-9.0-0.0-0.6","801","","f","","","","","","","","","","","","","key","f","16.648940170940477","768","428","f","true","img/S_ambi40.png","方形","prac_word_first",""
"","","","","","html-keyboard-response","73","349827","0.0-9.0-0.0-1.6","null","<span style='color:GreenYellow; font-size: 70px;'>正确! </span>","null","","","","","","","","","","","","","","","","","","","","","","","feedback_test"
"","","","","","psychophysics","74","351995","0.0-9.0-0.0-0.7","1011","","f","","","","","","","","","","","","","key","f","16.649527131782865","768","428","f","true","img/T_ambi40.png","三角","prac_word_first",""
"","","","","","html-keyboard-response","75","352312","0.0-9.0-0.0-1.7","null","<span style='color:GreenYellow; font-size: 70px;'>正确! </span>","null","","","","","","","","","","","","","","","","","","","","","","","feedback_test"
"","","","","","psychophysics","76","354276","0.0-9.0-0.0-0.8","804","","f","","","","","","","","","","","","","key","f","16.64963247863283","768","428","j","false","img/T_ambi40.png","方形","prac_word_first",""
"","","","","","html-keyboard-response","77","354583","0.0-9.0-0.0-1.8","null","<span style='color:red; font-size: 70px;'>错误! </span>","null","","","","","","","","","","","","","","","","","","","","","","","feedback_test"
"","","","","","psychophysics","78","356561","0.0-9.0-0.0-0.9","825","","f","","","","","","","","","","","","","key","f","16.650830508474165","768","428","f","true","img/C_ambi40.png","圆形","prac_word_first",""
"","","","","","html-keyboard-response","79","356864","0.0-9.0-0.0-1.9","null","<span style='color:GreenYellow; font-size: 70px;'>正确! </span>","null","","","","","","","","","","","","","","","","","","","","","","","feedback_test"
"","","","","","psychophysics","80","359178","0.0-9.0-0.0-0.10","1160","","f","","","","","","","","","","","","","key","f","16.64941304347788","768","428","f","true","img/T_ambi40.png","三角","prac_word_first",""
"","","","","","html-keyboard-response","81","359491","0.0-9.0-0.0-1.10","null","<span style='color:GreenYellow; font-size: 70px;'>正确! </span>","null","","","","","","","","","","","","","","","","","","","","","","","feedback_test"
"","","","","","psychophysics","82","361642","0.0-9.0-0.0-0.11","995","","f","","","","","","","","","","","","","key","f","16.648898437500065","768","428","f","true","img/S_ambi40.png","方形","prac_word_first",""
"","","","","","html-keyboard-response","83","361946","0.0-9.0-0.0-1.11","null","<span style='color:GreenYellow; font-size: 70px;'>正确! </span>","null","","","","","","","","","","","","","","","","","","","","","","","feedback_test"
"","","","","","psychophysics","84","363745","0.0-9.0-0.0-0.12","641","","j","","","","","","","","","","","","","key","j","16.651252336448678","768","428","j","true","img/T_ambi40.png","圆形","prac_word_first",""
"","","","","","html-keyboard-response","85","364051","0.0-9.0-0.0-1.12","null","<span style='color:GreenYellow; font-size: 70px;'>正确! </span>","null","","","","","","","","","","","","","","","","","","","","","","","feedback_test"
"","","","","","psychophysics","86","365892","0.0-9.0-0.0-0.13","685","","f","","","","","","","","","","","","","key","f","16.649100000000114","768","428","f","true","img/C_ambi40.png","圆形","prac_word_first",""
"","","","","","html-keyboard-response","87","366206","0.0-9.0-0.0-1.13","null","<span style='color:GreenYellow; font-size: 70px;'>正确! </span>","null","","","","","","","","","","","","","","","","","","","","","","","feedback_test"
"","","","","","psychophysics","88","368328","0.0-9.0-0.0-0.14","971","","j","","","","","","","","","","","","","key","j","16.780007874015645","768","428","j","true","img/C_ambi40.png","方形","prac_word_first",""
"","","","","","html-keyboard-response","89","368645","0.0-9.0-0.0-1.14","null","<span style='color:GreenYellow; font-size: 70px;'>正确! </span>","null","","","","","","","","","","","","","","","","","","","","","","","feedback_test"
"","","","","","psychophysics","90","370507","0.0-9.0-0.0-0.15","708","","f","","","","","","","","","","","","","key","f","16.648720720720473","768","428","j","false","img/S_ambi40.png","圆形","prac_word_first",""
"","","","","","html-keyboard-response","91","370819","0.0-9.0-0.0-1.15","null","<span style='color:red; font-size: 70px;'>错误! </span>","null","","","","","","","","","","","","","","","","","","","","","","","feedback_test"
"","","","","","psychophysics","92","373121","0.0-9.0-0.0-0.16","1151","","j","","","","","","","","","","","","","key","j","16.555248175182612","768","428","j","true","img/C_ambi40.png","三角","prac_word_first",""
"","","","","","html-keyboard-response","93","373434","0.0-9.0-0.0-1.16","null","<span style='color:GreenYellow; font-size: 70px;'>正确! </span>","null","","","","","","","","","","","","","","","","","","","","","","","feedback_test"
"","","","","","psychophysics","94","375496","0.0-9.0-0.0-0.17","906","","f","","","","","","","","","","","","","key","f","16.649196721311394","768","428","f","true","img/S_ambi40.png","方形","prac_word_first",""
"","","","","","html-keyboard-response","95","375807","0.0-9.0-0.0-1.17","null","<span style='color:GreenYellow; font-size: 70px;'>正确! </span>","null","","","","","","","","","","","","","","","","","","","","","","","feedback_test"
"","","","","","psychophysics","96","377680","0.0-9.0-0.0-0.18","721","","j","","","","","","","","","","","","","key","j","16.649357142857166","768","428","j","true","img/T_ambi40.png","方形","prac_word_first",""
"","","","","","html-keyboard-response","97","377988","0.0-9.0-0.0-1.18","null","<span style='color:GreenYellow; font-size: 70px;'>正确! </span>","null","","","","","","","","","","","","","","","","","","","","","","","feedback_test"
"","","","","","psychophysics","98","380189","0.0-9.0-0.0-0.19","1045","","j","","","","","","","","","","","","","key","j","16.65127480916016","768","428","j","true","img/S_ambi40.png","三角","prac_word_first",""
"","","","","","html-keyboard-response","99","380500","0.0-9.0-0.0-1.19","null","<span style='color:GreenYellow; font-size: 70px;'>正确! </span>","null","","","","","","","","","","","","","","","","","","","","","","","feedback_test"
"","","","","","psychophysics","100","382486","0.0-9.0-0.0-0.20","831","","f","","","","","","","","","","","","","key","f","16.648669491525467","768","428","f","true","img/T_ambi40.png","三角","prac_word_first",""
"","","","","","html-keyboard-response","101","382793","0.0-9.0-0.0-1.20","null","<span style='color:GreenYellow; font-size: 70px;'>正确! </span>","null","","","","","","","","","","","","","","","","","","","","","","","feedback_test"
"","","","","","psychophysics","102","385050","0.0-9.0-0.0-0.21","1098","","f","","","","","","","","","","","","","key","f","16.649216417910413","768","428","f","true","img/T_ambi40.png","三角","prac_word_first",""
"","","","","","html-keyboard-response","103","385370","0.0-9.0-0.0-1.21","null","<span style='color:GreenYellow; font-size: 70px;'>正确! </span>","null","","","","","","","","","","","","","","","","","","","","","","","feedback_test"
"","","","","","psychophysics","104","387361","0.0-9.0-0.0-0.22","841","","f","","","","","","","","","","","","","key","f","16.530474576271352","768","428","f","true","img/S_ambi40.png","方形","prac_word_first",""
"","","","","","html-keyboard-response","105","387664","0.0-9.0-0.0-1.22","null","<span style='color:GreenYellow; font-size: 70px;'>正确! </span>","null","","","","","","","","","","","","","","","","","","","","","","","feedback_test"
"","","","","","psychophysics","106","389449","0.0-9.0-0.0-0.23","632","","f","","","","","","","","","","","","","key","f","16.649575471698487","768","428","f","true","img/C_ambi40.png","圆形","prac_word_first",""
"","","","","","html-keyboard-response","107","389762","0.0-9.0-0.0-1.23","null","<span style='color:GreenYellow; font-size: 70px;'>正确! </span>","null","","","","","","","","","","","","","","","","","","","","","","","feedback_test"
"","","","","","html-keyboard-response","108","393512","0.0-10.0","3749","<style>.context{color:white; font-size: 35px; line-height:40px}</style>                            <div><p class='context'>您正确回答了83% 的试次。</p><p class='context'>您的平均反应时为919毫秒。</p><p class='context'>恭喜您完成练习。按任意键进入<span style='color: yellow;'>图形和文字同时呈现条件</span>的练习。</p></div>","j","","","","","","","","","","","","","","","","","","","","","","",""
"","","","","","psychophysics","109","395962","0.0-11.0-0.0-0.0","1443","","f","","","","","","","","","","","","","key","f","16.649123287671213","768","428","f","true","img/S_ambi40.png","方形","prac_simultaneous",""
"","","","","","html-keyboard-response","110","396271","0.0-11.0-0.0-1.0","null","<span style='color:GreenYellow; font-size: 70px;'>正确! </span>","null","","","","","","","","","","","","","","","","","","","","","","","feedback_test"
"","","","","","psychophysics","111","398096","0.0-11.0-0.0-0.1","820","","f","","","","","","","","","","","","","key","f","16.64868807339445","768","428","f","true","img/S_ambi40.png","方形","prac_simultaneous",""
"","","","","","html-keyboard-response","112","398414","0.0-11.0-0.0-1.1","null","<span style='color:GreenYellow; font-size: 70px;'>正确! </span>","null","","","","","","","","","","","","","","","","","","","","","","","feedback_test"
"","","","","","psychophysics","113","400514","0.0-11.0-0.0-0.2","1091","","j","","","","","","","","","","","","","key","j","16.648992000000085","768","428","j","true","img/S_ambi40.png","三角","prac_simultaneous",""
"","","","","","html-keyboard-response","114","400836","0.0-11.0-0.0-1.2","null","<span style='color:GreenYellow; font-size: 70px;'>正确! </span>","null","","","","","","","","","","","","","","","","","","","","","","","feedback_test"
"","","","","","psychophysics","115","403276","0.0-11.0-0.0-0.3","1439","","f","","","","","","","","","","","","","key","f","16.649363013698835","768","428","f","true","img/T_ambi40.png","三角","prac_simultaneous",""
"","","","","","html-keyboard-response","116","403593","0.0-11.0-0.0-1.3","null","<span style='color:GreenYellow; font-size: 70px;'>正确! </span>","null","","","","","","","","","","","","","","","","","","","","","","","feedback_test"
"","","","","","psychophysics","117","405714","0.0-11.0-0.0-0.4","1115","","j","","","","","","","","","","","","","key","j","16.646817460317084","768","428","j","true","img/C_ambi40.png","三角","prac_simultaneous",""
"","","","","","html-keyboard-response","118","406023","0.0-11.0-0.0-1.4","null","<span style='color:GreenYellow; font-size: 70px;'>正确! </span>","null","","","","","","","","","","","","","","","","","","","","","","","feedback_test"
"","","","","","psychophysics","119","408478","0.0-11.0-0.0-0.5","1446","","j","","","","","","","","","","","","","key","j","16.649428571428672","768","428","j","true","img/C_ambi40.png","方形","prac_simultaneous",""
"","","","","","html-keyboard-response","120","408790","0.0-11.0-0.0-1.5","null","<span style='color:GreenYellow; font-size: 70px;'>正确! </span>","null","","","","","","","","","","","","","","","","","","","","","","","feedback_test"
"","","","","","psychophysics","121","411025","0.0-11.0-0.0-0.6","1230","","j","","","","","","","","","","","","","key","j","16.649511278195558","768","428","j","true","img/T_ambi40.png","方形","prac_simultaneous",""
"","","","","","html-keyboard-response","122","411328","0.0-11.0-0.0-1.6","null","<span style='color:GreenYellow; font-size: 70px;'>正确! </span>","null","","","","","","","","","","","","","","","","","","","","","","","feedback_test"
"","","","","","psychophysics","123","413290","0.0-11.0-0.0-0.7","956","","f","","","","","","","","","","","","","key","f","16.647620689655266","768","428","f","true","img/C_ambi40.png","圆形","prac_simultaneous",""
"","","","","","html-keyboard-response","124","413605","0.0-11.0-0.0-1.7","null","<span style='color:GreenYellow; font-size: 70px;'>正确! </span>","null","","","","","","","","","","","","","","","","","","","","","","","feedback_test"
"","","","","","psychophysics","125","416118","0.0-11.0-0.0-0.8","null","","null","","","","","","","","","","","","","key","null","16.64963333333338","768","428","f","false","img/C_ambi40.png","圆形","prac_simultaneous",""
"","","","","","html-keyboard-response","126","416427","0.0-11.0-0.0-1.8","null","<span class='add_' style='color:yellow; font-size: 70px;'> 太慢! </span>","null","","","","","","","","","","","","","","","","","","","","","","","feedback_test"
"","","","","","psychophysics","127","418353","0.0-11.0-0.0-0.9","922","","j","","","","","","","","","","","","","key","j","16.64993043478234","768","428","j","true","img/T_ambi40.png","圆形","prac_simultaneous",""
"","","","","","html-keyboard-response","128","418667","0.0-11.0-0.0-1.9","null","<span style='color:GreenYellow; font-size: 70px;'>正确! </span>","null","","","","","","","","","","","","","","","","","","","","","","","feedback_test"
"","","","","","psychophysics","129","420492","0.0-11.0-0.0-0.10","824","","j","","","","","","","","","","","","","key","j","16.649275229357873","768","428","j","true","img/S_ambi40.png","圆形","prac_simultaneous",""
"","","","","","html-keyboard-response","130","420804","0.0-11.0-0.0-1.10","null","<span style='color:GreenYellow; font-size: 70px;'>正确! </span>","null","","","","","","","","","","","","","","","","","","","","","","","feedback_test"
"","","","","","psychophysics","131","422639","0.0-11.0-0.0-0.11","832","","j","","","","","","","","","","","","","key","j","16.649481818182075","768","428","f","false","img/T_ambi40.png","三角","prac_simultaneous",""
"","","","","","html-keyboard-response","132","422942","0.0-11.0-0.0-1.11","null","<span style='color:red; font-size: 70px;'>错误! </span>","null","","","","","","","","","","","","","","","","","","","","","","","feedback_test"
"","","","","","psychophysics","133","424694","0.0-11.0-0.0-0.12","746","","j","","","","","","","","","","","","","key","j","16.649221153845875","768","428","f","false","img/T_ambi40.png","三角","prac_simultaneous",""
"","","","","","html-keyboard-response","134","425012","0.0-11.0-0.0-1.12","null","<span style='color:red; font-size: 70px;'>错误! </span>","null","","","","","","","","","","","","","","","","","","","","","","","feedback_test"
"","","","","","psychophysics","135","427075","0.0-11.0-0.0-0.13","1062","","j","","","","","","","","","","","","","key","j","16.532385245901647","768","428","j","true","img/C_ambi40.png","方形","prac_simultaneous",""
"","","","","","html-keyboard-response","136","427395","0.0-11.0-0.0-1.13","null","<span style='color:GreenYellow; font-size: 70px;'>正确! </span>","null","","","","","","","","","","","","","","","","","","","","","","","feedback_test"
"","","","","","psychophysics","137","429616","0.0-11.0-0.0-0.14","1218","","f","","","","","","","","","","","","","key","f","16.648751879699137","768","428","f","true","img/C_ambi40.png","圆形","prac_simultaneous",""
"","","","","","html-keyboard-response","138","429921","0.0-11.0-0.0-1.14","null","<span style='color:GreenYellow; font-size: 70px;'>正确! </span>","null","","","","","","","","","","","","","","","","","","","","","","","feedback_test"
"","","","","","psychophysics","139","431929","0.0-11.0-0.0-0.15","1006","","j","","","","","","","","","","","","","key","j","16.649325000000438","768","428","j","true","img/T_ambi40.png","圆形","prac_simultaneous",""
"","","","","","html-keyboard-response","140","432235","0.0-11.0-0.0-1.15","null","<span style='color:GreenYellow; font-size: 70px;'>正确! </span>","null","","","","","","","","","","","","","","","","","","","","","","","feedback_test"
"","","","","","psychophysics","141","434718","0.0-11.0-0.0-0.16","1480","","j","","","","","","","","","","","","","key","j","16.64876351351346","768","428","j","true","img/C_ambi40.png","三角","prac_simultaneous",""
"","","","","","html-keyboard-response","142","435036","0.0-11.0-0.0-1.16","null","<span style='color:GreenYellow; font-size: 70px;'>正确! </span>","null","","","","","","","","","","","","","","","","","","","","","","","feedback_test"
"","","","","","psychophysics","143","436889","0.0-11.0-0.0-0.17","849","","f","","","","","","","","","","","","","key","f","16.64938181818209","768","428","f","true","img/S_ambi40.png","方形","prac_simultaneous",""
"","","","","","html-keyboard-response","144","437200","0.0-11.0-0.0-1.17","null","<span style='color:GreenYellow; font-size: 70px;'>正确! </span>","null","","","","","","","","","","","","","","","","","","","","","","","feedback_test"
"","","","","","psychophysics","145","439252","0.0-11.0-0.0-0.18","1045","","f","","","","","","","","","","","","","key","f","16.648655737704907","768","428","f","true","img/T_ambi40.png","三角","prac_simultaneous",""
"","","","","","html-keyboard-response","146","439563","0.0-11.0-0.0-1.18","null","<span style='color:GreenYellow; font-size: 70px;'>正确! </span>","null","","","","","","","","","","","","","","","","","","","","","","","feedback_test"
"","","","","","psychophysics","147","441483","0.0-11.0-0.0-0.19","920","","f","","","","","","","","","","","","","key","f","16.649298245614197","768","428","f","true","img/S_ambi40.png","方形","prac_simultaneous",""
"","","","","","html-keyboard-response","148","441799","0.0-11.0-0.0-1.19","null","<span style='color:GreenYellow; font-size: 70px;'>正确! </span>","null","","","","","","","","","","","","","","","","","","","","","","","feedback_test"
"","","","","","psychophysics","149","443522","0.0-11.0-0.0-0.20","715","","f","","","","","","","","","","","","","key","f","16.651000000000018","768","428","f","true","img/C_ambi40.png","圆形","prac_simultaneous",""
"","","","","","html-keyboard-response","150","443838","0.0-11.0-0.0-1.20","null","<span style='color:GreenYellow; font-size: 70px;'>正确! </span>","null","","","","","","","","","","","","","","","","","","","","","","","feedback_test"
"","","","","","psychophysics","151","445754","0.0-11.0-0.0-0.21","912","","j","","","","","","","","","","","","","key","j","16.64959999999973","768","428","j","true","img/S_ambi40.png","圆形","prac_simultaneous",""
"","","","","","html-keyboard-response","152","446065","0.0-11.0-0.0-1.21","null","<span style='color:GreenYellow; font-size: 70px;'>正确! </span>","null","","","","","","","","","","","","","","","","","","","","","","","feedback_test"
"","","","","","psychophysics","153","447828","0.0-11.0-0.0-0.22","757","","j","","","","","","","","","","","","","key","j","16.6494952380951","768","428","j","true","img/S_ambi40.png","三角","prac_simultaneous",""
"","","","","","html-keyboard-response","154","448137","0.0-11.0-0.0-1.22","null","<span style='color:GreenYellow; font-size: 70px;'>正确! </span>","null","","","","","","","","","","","","","","","","","","","","","","","feedback_test"
"","","","","","psychophysics","155","449991","0.0-11.0-0.0-0.23","853","","j","","","","","","","","","","","","","key","j","16.525963636363898","768","428","j","true","img/T_ambi40.png","方形","prac_simultaneous",""
"","","","","","html-keyboard-response","156","450309","0.0-11.0-0.0-1.23","null","<span style='color:GreenYellow; font-size: 70px;'>正确! </span>","null","","","","","","","","","","","","","","","","","","","","","","","feedback_test"
"","","","","","html-keyboard-response","157","454798","0.0-12.0","4487","<style>.context{color:white; font-size: 35px; line-height:40px}</style>                            <div><p class='context'>您正确回答了88% 的试次。</p><p class='context'>您的平均反应时为1053毫秒。</p><p class='context'>恭喜您完成练习。按任意键进入正式实验。</p><p class='footer' style='font-size: 35px; line-height:40px;'>请在进入正式实验实验之前将您的<span style='color: lightgreen;'>食指</span>放在电脑键盘的相应键位上进行按键。</p>","j","","","","","","","","","","","","","","","","","","","","","","",""
"","","","","","html-keyboard-response","158","459847","0.0-13.0-2.0-0.0","5045","
    <p>请您将手指放在按键上，准备进入呈现顺序为<span style='color: yellow;'>图形和文字同时呈现条件</span>的正式匹配任务</p>
    <p> <div style = ""color: green""><按任意键进入下一阶段的匹配任务></div></p>
    ","j","","","","","","","","","","","","","","","","","","","","","","",""
"","","","","","psychophysics","159","461922","0.0-13.0-2.0-1.0-0.0-0.0","1067","","f","","","","","","","","","","","","","key","f","16.651073170731667","768","428","f","true","img/C_ambi40.png","圆形","simultaneous",""
"","","","","","html-keyboard-response","160","462237","0.0-13.0-2.0-1.0-0.0-1.0","null","<span style='color:GreenYellow; font-size: 70px;'>正确! </span>","null","","","","","","","","","","","","","","","","","","","","","","","feedback_test"
"","","","","","psychophysics","161","463952","0.0-13.0-2.0-1.0-0.0-0.1","712","","j","","","","","","","","","","","","","key","j","16.651960784313726","768","428","j","true","img/S_ambi40.png","三角","simultaneous",""
"","","","","","html-keyboard-response","162","464258","0.0-13.0-2.0-1.0-0.0-1.1","null","<span style='color:GreenYellow; font-size: 70px;'>正确! </span>","null","","","","","","","","","","","","","","","","","","","","","","","feedback_test"
"","","","","","psychophysics","163","466386","0.0-13.0-2.0-1.0-0.0-0.2","1123","","j","","","","","","","","","","","","","key","j","16.64764285714288","768","428","j","true","img/T_ambi40.png","圆形","simultaneous",""
"","","","","","html-keyboard-response","164","466689","0.0-13.0-2.0-1.0-0.0-1.2","null","<span style='color:GreenYellow; font-size: 70px;'>正确! </span>","null","","","","","","","","","","","","","","","","","","","","","","","feedback_test"
"","","","","","psychophysics","165","468921","0.0-13.0-2.0-1.0-0.0-0.3","1225","","f","","","","","","","","","","","","","key","f","16.649789473683928","768","428","f","true","img/S_ambi40.png","方形","simultaneous",""
"","","","","","html-keyboard-response","166","469230","0.0-13.0-2.0-1.0-0.0-1.3","null","<span style='color:GreenYellow; font-size: 70px;'>正确! </span>","null","","","","","","","","","","","","","","","","","","","","","","","feedback_test"
"","","","","","psychophysics","167","471263","0.0-13.0-2.0-1.0-0.0-0.4","1032","","f","","","","","","","","","","","","","key","f","16.649752066115663","768","428","f","true","img/C_ambi40.png","圆形","simultaneous",""
"","","","","","html-keyboard-response","168","471576","0.0-13.0-2.0-1.0-0.0-1.4","null","<span style='color:GreenYellow; font-size: 70px;'>正确! </span>","null","","","","","","","","","","","","","","","","","","","","","","","feedback_test"
"","","","","","psychophysics","169","473405","0.0-13.0-2.0-1.0-0.0-0.5","824","","f","","","","","","","","","","","","","key","f","16.64918348623852","768","428","f","true","img/S_ambi40.png","方形","simultaneous",""
"","","","","","html-keyboard-response","170","473721","0.0-13.0-2.0-1.0-0.0-1.5","null","<span style='color:GreenYellow; font-size: 70px;'>正确! </span>","null","","","","","","","","","","","","","","","","","","","","","","","feedback_test"
"","","","","","psychophysics","171","475396","0.0-13.0-2.0-1.0-0.0-0.6","669","","f","","","","","","","","","","","","","key","f","16.64899000000034","768","428","f","true","img/T_ambi40.png","三角","simultaneous",""
"","","","","","html-keyboard-response","172","475715","0.0-13.0-2.0-1.0-0.0-1.6","null","<span style='color:GreenYellow; font-size: 70px;'>正确! </span>","null","","","","","","","","","","","","","","","","","","","","","","","feedback_test"
"","","","","","psychophysics","173","477467","0.0-13.0-2.0-1.0-0.0-0.7","746","","j","","","","","","","","","","","","","key","j","16.649201923076852","768","428","j","true","img/C_ambi40.png","方形","simultaneous",""
"","","","","","html-keyboard-response","174","477781","0.0-13.0-2.0-1.0-0.0-1.7","null","<span style='color:GreenYellow; font-size: 70px;'>正确! </span>","null","","","","","","","","","","","","","","","","","","","","","","","feedback_test"
"","","","","","psychophysics","175","479741","0.0-13.0-2.0-1.0-0.0-0.8","957","","f","","","","","","","","","","","","","key","f","16.650735042735032","768","428","f","true","img/T_ambi40.png","三角","simultaneous",""
"","","","","","html-keyboard-response","176","480055","0.0-13.0-2.0-1.0-0.0-1.8","null","<span style='color:GreenYellow; font-size: 70px;'>正确! </span>","null","","","","","","","","","","","","","","","","","","","","","","","feedback_test"
"","","","","","psychophysics","177","481850","0.0-13.0-2.0-1.0-0.0-0.9","787","","j","","","","","","","","","","","","","key","j","16.648981132075622","768","428","j","true","img/T_ambi40.png","方形","simultaneous",""
"","","","","","html-keyboard-response","178","482161","0.0-13.0-2.0-1.0-0.0-1.9","null","<span style='color:GreenYellow; font-size: 70px;'>正确! </span>","null","","","","","","","","","","","","","","","","","","","","","","","feedback_test"
"","","","","","psychophysics","179","484086","0.0-13.0-2.0-1.0-0.0-0.10","918","","f","","","","","","","","","","","","","key","f","16.64851304347799","768","428","j","false","img/S_ambi40.png","圆形","simultaneous",""
"","","","","","html-keyboard-response","180","484405","0.0-13.0-2.0-1.0-0.0-1.10","null","<span style='color:red; font-size: 70px;'>错误! </span>","null","","","","","","","","","","","","","","","","","","","","","","","feedback_test"
"","","","","","psychophysics","181","486344","0.0-13.0-2.0-1.0-0.0-0.11","938","","f","","","","","","","","","","","","","key","f","16.649869565217777","768","428","j","false","img/C_ambi40.png","三角","simultaneous",""
"","","","","","html-keyboard-response","182","486648","0.0-13.0-2.0-1.0-0.0-1.11","null","<span style='color:red; font-size: 70px;'>错误! </span>","null","","","","","","","","","","","","","","","","","","","","","","","feedback_test"
"","","","","","psychophysics","183","488821","0.0-13.0-2.0-1.0-0.0-0.12","1165","","j","","","","","","","","","","","","","key","j","16.64909302325542","768","428","j","true","img/C_ambi40.png","三角","simultaneous",""
"","","","","","html-keyboard-response","184","489129","0.0-13.0-2.0-1.0-0.0-1.12","null","<span style='color:GreenYellow; font-size: 70px;'>正确! </span>","null","","","","","","","","","","","","","","","","","","","","","","","feedback_test"
"","","","","","psychophysics","185","491137","0.0-13.0-2.0-1.0-0.0-0.13","1007","","f","","","","","","","","","","","","","key","f","16.649025210084496","768","428","f","true","img/C_ambi40.png","圆形","simultaneous",""
"","","","","","html-keyboard-response","186","491447","0.0-13.0-2.0-1.0-0.0-1.13","null","<span style='color:GreenYellow; font-size: 70px;'>正确! </span>","null","","","","","","","","","","","","","","","","","","","","","","","feedback_test"
"","","","","","psychophysics","187","493548","0.0-13.0-2.0-1.0-0.0-0.14","1093","","f","","","","","","","","","","","","","key","f","16.649071428571396","768","428","f","true","img/S_ambi40.png","方形","simultaneous",""
"","","","","","html-keyboard-response","188","493865","0.0-13.0-2.0-1.0-0.0-1.14","null","<span style='color:GreenYellow; font-size: 70px;'>正确! </span>","null","","","","","","","","","","","","","","","","","","","","","","","feedback_test"
"","","","","","psychophysics","189","496219","0.0-13.0-2.0-1.0-0.0-0.15","1349","","j","","","","","","","","","","","","","key","j","16.649007142856966","768","428","j","true","img/S_ambi40.png","圆形","simultaneous",""
"","","","","","html-keyboard-response","190","496537","0.0-13.0-2.0-1.0-0.0-1.15","null","<span style='color:GreenYellow; font-size: 70px;'>正确! </span>","null","","","","","","","","","","","","","","","","","","","","","","","feedback_test"
"","","","","","psychophysics","191","499040","0.0-13.0-2.0-1.0-0.0-0.16","null","","null","","","","","","","","","","","","","key","null","16.648932885905985","768","428","j","false","img/S_ambi40.png","三角","simultaneous",""
"","","","","","html-keyboard-response","192","499354","0.0-13.0-2.0-1.0-0.0-1.16","null","<span class='add_' style='color:yellow; font-size: 70px;'> 太慢! </span>","null","","","","","","","","","","","","","","","","","","","","","","","feedback_test"
"","","","","","psychophysics","193","501789","0.0-13.0-2.0-1.0-0.0-0.17","1430","","f","","","","","","","","","","","","","key","f","16.650296551724175","768","428","j","false","img/T_ambi40.png","方形","simultaneous",""
"","","","","","html-keyboard-response","194","502100","0.0-13.0-2.0-1.0-0.0-1.17","null","<span style='color:red; font-size: 70px;'>错误! </span>","null","","","","","","","","","","","","","","","","","","","","","","","feedback_test"
"","","","","","psychophysics","195","504190","0.0-13.0-2.0-1.0-0.0-0.18","1087","","f","","","","","","","","","","","","","key","f","16.650991935483855","768","428","f","true","img/S_ambi40.png","方形","simultaneous",""
"","","","","","html-keyboard-response","196","504499","0.0-13.0-2.0-1.0-0.0-1.18","null","<span style='color:GreenYellow; font-size: 70px;'>正确! </span>","null","","","","","","","","","","","","","","","","","","","","","","","feedback_test"
"","","","","","psychophysics","197","506437","0.0-13.0-2.0-1.0-0.0-0.19","934","","f","","","","","","","","","","","","","key","f","16.649947826087008","768","428","f","true","img/T_ambi40.png","三角","simultaneous",""
"","","","","","html-keyboard-response","198","506753","0.0-13.0-2.0-1.0-0.0-1.19","null","<span style='color:GreenYellow; font-size: 70px;'>正确! </span>","null","","","","","","","","","","","","","","","","","","","","","","","feedback_test"
"","","","","","psychophysics","199","508888","0.0-13.0-2.0-1.0-0.0-0.20","1128","","j","","","","","","","","","","","","","key","j","16.648952755905636","768","428","j","true","img/C_ambi40.png","方形","simultaneous",""
"","","","","","html-keyboard-response","200","509197","0.0-13.0-2.0-1.0-0.0-1.20","null","<span style='color:GreenYellow; font-size: 70px;'>正确! </span>","null","","","","","","","","","","","","","","","","","","","","","","","feedback_test"
"","","","","","psychophysics","201","511111","0.0-13.0-2.0-1.0-0.0-0.21","911","","f","","","","","","","","","","","","","key","f","16.651184210526193","768","428","f","true","img/T_ambi40.png","三角","simultaneous",""
"","","","","","html-keyboard-response","202","511424","0.0-13.0-2.0-1.0-0.0-1.21","null","<span style='color:GreenYellow; font-size: 70px;'>正确! </span>","null","","","","","","","","","","","","","","","","","","","","","","","feedback_test"
"","","","","","psychophysics","203","513170","0.0-13.0-2.0-1.0-0.0-0.22","738","","f","","","","","","","","","","","","","key","f","16.648291262135686","768","428","f","true","img/C_ambi40.png","圆形","simultaneous",""
"","","","","","html-keyboard-response","204","513480","0.0-13.0-2.0-1.0-0.0-1.22","null","<span style='color:GreenYellow; font-size: 70px;'>正确! </span>","null","","","","","","","","","","","","","","","","","","","","","","","feedback_test"
"","","","","","psychophysics","205","515447","0.0-13.0-2.0-1.0-0.0-0.23","961","","j","","","","","","","","","","","","","key","j","16.649666666666654","768","428","j","true","img/T_ambi40.png","圆形","simultaneous",""
"","","","","","html-keyboard-response","206","515754","0.0-13.0-2.0-1.0-0.0-1.23","null","<span style='color:GreenYellow; font-size: 70px;'>正确! </span>","null","","","","","","","","","","","","","","","","","","","","","","","feedback_test"
"","","","","","psychophysics","207","517786","0.0-13.0-2.0-1.0-0.0-0.24","1027","","j","","","","","","","","","","","","","key","j","16.650636363636476","768","428","j","true","img/S_ambi40.png","圆形","simultaneous",""
"","","","","","html-keyboard-response","208","518096","0.0-13.0-2.0-1.0-0.0-1.24","null","<span style='color:GreenYellow; font-size: 70px;'>正确! </span>","null","","","","","","","","","","","","","","","","","","","","","","","feedback_test"
"","","","","","psychophysics","209","520600","0.0-13.0-2.0-1.0-0.0-0.25","null","","null","","","","","","","","","","","","","key","null","16.648773333333665","768","428","j","false","img/S_ambi40.png","三角","simultaneous",""
"","","","","","html-keyboard-response","210","520905","0.0-13.0-2.0-1.0-0.0-1.25","null","<span class='add_' style='color:yellow; font-size: 70px;'> 太慢! </span>","null","","","","","","","","","","","","","","","","","","","","","","","feedback_test"
"","","","","","psychophysics","211","522719","0.0-13.0-2.0-1.0-0.0-0.26","808","","f","","","","","","","","","","","","","key","f","16.648287037037704","768","428","f","true","img/T_ambi40.png","三角","simultaneous",""
"","","","","","html-keyboard-response","212","523025","0.0-13.0-2.0-1.0-0.0-1.26","null","<span style='color:GreenYellow; font-size: 70px;'>正确! </span>","null","","","","","","","","","","","","","","","","","","","","","","","feedback_test"
"","","","","","psychophysics","213","525273","0.0-13.0-2.0-1.0-0.0-0.27","1247","","f","","","","","","","","","","","","","key","f","16.648589552238533","768","428","f","true","img/C_ambi40.png","圆形","simultaneous",""
"","","","","","html-keyboard-response","214","525577","0.0-13.0-2.0-1.0-0.0-1.27","null","<span style='color:GreenYellow; font-size: 70px;'>正确! </span>","null","","","","","","","","","","","","","","","","","","","","","","","feedback_test"
"","","","","","psychophysics","215","527986","0.0-13.0-2.0-1.0-0.0-0.28","1403","","f","","","","","","","","","","","","","key","f","16.64908391608404","768","428","f","true","img/C_ambi40.png","圆形","simultaneous",""
"","","","","","html-keyboard-response","216","528304","0.0-13.0-2.0-1.0-0.0-1.28","null","<span style='color:GreenYellow; font-size: 70px;'>正确! </span>","null","","","","","","","","","","","","","","","","","","","","","","","feedback_test"
"","","","","","psychophysics","217","530194","0.0-13.0-2.0-1.0-0.0-0.29","890","","j","","","","","","","","","","","","","key","j","16.649401785714353","768","428","j","true","img/T_ambi40.png","方形","simultaneous",""
"","","","","","html-keyboard-response","218","530508","0.0-13.0-2.0-1.0-0.0-1.29","null","<span style='color:GreenYellow; font-size: 70px;'>正确! </span>","null","","","","","","","","","","","","","","","","","","","","","","","feedback_test"
"","","","","","psychophysics","219","532471","0.0-13.0-2.0-1.0-0.0-0.30","959","","f","","","","","","","","","","","","","key","f","16.649068376068303","768","428","j","false","img/C_ambi40.png","方形","simultaneous",""
"","","","","","html-keyboard-response","220","532790","0.0-13.0-2.0-1.0-0.0-1.30","null","<span style='color:red; font-size: 70px;'>错误! </span>","null","","","","","","","","","","","","","","","","","","","","","","","feedback_test"
"","","","","","psychophysics","221","535296","0.0-13.0-2.0-1.0-0.0-0.31","null","","null","","","","","","","","","","","","","key","null","16.65063087248334","768","428","j","false","img/C_ambi40.png","三角","simultaneous",""
"","","","","","html-keyboard-response","222","535609","0.0-13.0-2.0-1.0-0.0-1.31","null","<span class='add_' style='color:yellow; font-size: 70px;'> 太慢! </span>","null","","","","","","","","","","","","","","","","","","","","","","","feedback_test"
"","","","","","psychophysics","223","537735","0.0-13.0-2.0-1.0-0.0-0.32","1122","","f","","","","","","","","","","","","","key","f","16.64951968503892","768","428","f","true","img/S_ambi40.png","方形","simultaneous",""
"","","","","","html-keyboard-response","224","538049","0.0-13.0-2.0-1.0-0.0-1.32","null","<span style='color:GreenYellow; font-size: 70px;'>正确! </span>","null","","","","","","","","","","","","","","","","","","","","","","","feedback_test"
"","","","","","psychophysics","225","539967","0.0-13.0-2.0-1.0-0.0-0.33","911","","j","","","","","","","","","","","","","key","j","16.649236842105573","768","428","j","true","img/T_ambi40.png","圆形","simultaneous",""
"","","","","","html-keyboard-response","226","540272","0.0-13.0-2.0-1.0-0.0-1.33","null","<span style='color:GreenYellow; font-size: 70px;'>正确! </span>","null","","","","","","","","","","","","","","","","","","","","","","","feedback_test"
"","","","","","psychophysics","227","542245","0.0-13.0-2.0-1.0-0.0-0.34","971","","f","","","","","","","","","","","","","key","f","16.651211864406726","768","428","f","true","img/T_ambi40.png","三角","simultaneous",""
"","","","","","html-keyboard-response","228","542556","0.0-13.0-2.0-1.0-0.0-1.34","null","<span style='color:GreenYellow; font-size: 70px;'>正确! </span>","null","","","","","","","","","","","","","","","","","","","","","","","feedback_test"
"","","","","","psychophysics","229","544832","0.0-13.0-2.0-1.0-0.0-0.35","1273","","f","","","","","","","","","","","","","key","f","16.648785185184398","768","428","f","true","img/S_ambi40.png","方形","simultaneous",""
"","","","","","html-keyboard-response","230","545140","0.0-13.0-2.0-1.0-0.0-1.35","null","<span style='color:GreenYellow; font-size: 70px;'>正确! </span>","null","","","","","","","","","","","","","","","","","","","","","","","feedback_test"
"","","","","","psychophysics","231","546893","0.0-13.0-2.0-1.0-0.0-0.36","750","","f","","","","","","","","","","","","","key","f","16.64908653846158","768","428","f","true","img/T_ambi40.png","三角","simultaneous",""
"","","","","","html-keyboard-response","232","547210","0.0-13.0-2.0-1.0-0.0-1.36","null","<span style='color:GreenYellow; font-size: 70px;'>正确! </span>","null","","","","","","","","","","","","","","","","","","","","","","","feedback_test"
"","","","","","psychophysics","233","549207","0.0-13.0-2.0-1.0-0.0-0.37","992","","f","","","","","","","","","","","","","key","f","16.649042016807005","768","428","f","true","img/S_ambi40.png","方形","simultaneous",""
"","","","","","html-keyboard-response","234","549518","0.0-13.0-2.0-1.0-0.0-1.37","null","<span style='color:GreenYellow; font-size: 70px;'>正确! </span>","null","","","","","","","","","","","","","","","","","","","","","","","feedback_test"
"","","","","","psychophysics","235","551361","0.0-13.0-2.0-1.0-0.0-0.38","841","","j","","","","","","","","","","","","","key","j","16.647990825688552","768","428","j","true","img/S_ambi40.png","三角","simultaneous",""
"","","","","","html-keyboard-response","236","551666","0.0-13.0-2.0-1.0-0.0-1.38","null","<span style='color:GreenYellow; font-size: 70px;'>正确! </span>","null","","","","","","","","","","","","","","","","","","","","","","","feedback_test"
"","","","","","psychophysics","237","553476","0.0-13.0-2.0-1.0-0.0-0.39","804","","f","","","","","","","","","","","","","key","f","16.648308411215552","768","428","f","true","img/T_ambi40.png","三角","simultaneous",""
"","","","","","html-keyboard-response","238","553797","0.0-13.0-2.0-1.0-0.0-1.39","null","<span style='color:GreenYellow; font-size: 70px;'>正确! </span>","null","","","","","","","","","","","","","","","","","","","","","","","feedback_test"
"","","","","","psychophysics","239","555586","0.0-13.0-2.0-1.0-0.0-0.40","786","","j","","","","","","","","","","","","","key","j","16.648622641510126","768","428","j","true","img/T_ambi40.png","方形","simultaneous",""
"","","","","","html-keyboard-response","240","555902","0.0-13.0-2.0-1.0-0.0-1.40","null","<span style='color:GreenYellow; font-size: 70px;'>正确! </span>","null","","","","","","","","","","","","","","","","","","","","","","","feedback_test"
"","","","","","psychophysics","241","557795","0.0-13.0-2.0-1.0-0.0-0.41","887","","j","","","","","","","","","","","","","key","j","16.64975221238853","768","428","j","true","img/C_ambi40.png","三角","simultaneous",""
"","","","","","html-keyboard-response","242","558107","0.0-13.0-2.0-1.0-0.0-1.41","null","<span style='color:GreenYellow; font-size: 70px;'>正确! </span>","null","","","","","","","","","","","","","","","","","","","","","","","feedback_test"
"","","","","","psychophysics","243","560020","0.0-13.0-2.0-1.0-0.0-0.42","909","","f","","","","","","","","","","","","","key","f","16.65229203539851","768","428","f","true","img/S_ambi40.png","方形","simultaneous",""
"","","","","","html-keyboard-response","244","560336","0.0-13.0-2.0-1.0-0.0-1.42","null","<span style='color:GreenYellow; font-size: 70px;'>正确! </span>","null","","","","","","","","","","","","","","","","","","","","","","","feedback_test"
"","","","","","psychophysics","245","562078","0.0-13.0-2.0-1.0-0.0-0.43","741","","f","","","","","","","","","","","","","key","f","16.649631067961273","768","428","f","true","img/C_ambi40.png","圆形","simultaneous",""
"","","","","","html-keyboard-response","246","562398","0.0-13.0-2.0-1.0-0.0-1.43","null","<span style='color:GreenYellow; font-size: 70px;'>正确! </span>","null","","","","","","","","","","","","","","","","","","","","","","","feedback_test"
"","","","","","psychophysics","247","564139","0.0-13.0-2.0-1.0-0.0-0.44","738","","f","","","","","","","","","","","","","key","f","16.648759615384805","768","428","f","true","img/C_ambi40.png","圆形","simultaneous",""
"","","","","","html-keyboard-response","248","564461","0.0-13.0-2.0-1.0-0.0-1.44","null","<span style='color:GreenYellow; font-size: 70px;'>正确! </span>","null","","","","","","","","","","","","","","","","","","","","","","","feedback_test"
"","","","","","psychophysics","249","566255","0.0-13.0-2.0-1.0-0.0-0.45","791","","j","","","","","","","","","","","","","key","j","16.648925233645382","768","428","j","true","img/S_ambi40.png","圆形","simultaneous",""
"","","","","","html-keyboard-response","250","566569","0.0-13.0-2.0-1.0-0.0-1.45","null","<span style='color:GreenYellow; font-size: 70px;'>正确! </span>","null","","","","","","","","","","","","","","","","","","","","","","","feedback_test"
"","","","","","psychophysics","251","568390","0.0-13.0-2.0-1.0-0.0-0.46","814","","f","","","","","","","","","","","","","key","f","16.64913888888852","768","428","j","false","img/C_ambi40.png","方形","simultaneous",""
"","","","","","html-keyboard-response","252","568703","0.0-13.0-2.0-1.0-0.0-1.46","null","<span style='color:red; font-size: 70px;'>错误! </span>","null","","","","","","","","","","","","","","","","","","","","","","","feedback_test"
"","","","","","psychophysics","253","570739","0.0-13.0-2.0-1.0-0.0-0.47","1029","","j","","","","","","","","","","","","","key","j","16.649694214876135","768","428","j","true","img/T_ambi40.png","圆形","simultaneous",""
"","","","","","html-keyboard-response","254","571048","0.0-13.0-2.0-1.0-0.0-1.47","null","<span style='color:GreenYellow; font-size: 70px;'>正确! </span>","null","","","","","","","","","","","","","","","","","","","","","","","feedback_test"
"","","","","","psychophysics","255","572980","0.0-13.0-2.0-1.0-0.0-0.48","924","","f","","","","","","","","","","","","","key","f","16.649252173912956","768","428","f","true","img/T_ambi40.png","三角","simultaneous",""
"","","","","","html-keyboard-response","256","573300","0.0-13.0-2.0-1.0-0.0-1.48","null","<span style='color:GreenYellow; font-size: 70px;'>正确! </span>","null","","","","","","","","","","","","","","","","","","","","","","","feedback_test"
"","","","","","psychophysics","257","575387","0.0-13.0-2.0-1.0-0.0-0.49","1084","","f","","","","","","","","","","","","","key","f","16.649588709677413","768","428","f","true","img/C_ambi40.png","圆形","simultaneous",""
"","","","","","html-keyboard-response","258","575696","0.0-13.0-2.0-1.0-0.0-1.49","null","<span style='color:GreenYellow; font-size: 70px;'>正确! </span>","null","","","","","","","","","","","","","","","","","","","","","","","feedback_test"
"","","","","","psychophysics","259","577532","0.0-13.0-2.0-1.0-0.0-0.50","829","","f","","","","","","","","","","","","","key","f","16.649357798164324","768","428","f","true","img/C_ambi40.png","圆形","simultaneous",""
"","","","","","html-keyboard-response","260","577841","0.0-13.0-2.0-1.0-0.0-1.50","null","<span style='color:GreenYellow; font-size: 70px;'>正确! </span>","null","","","","","","","","","","","","","","","","","","","","","","","feedback_test"
"","","","","","psychophysics","261","579616","0.0-13.0-2.0-1.0-0.0-0.51","768","","j","","","","","","","","","","","","","key","j","16.649352380952664","768","428","j","true","img/C_ambi40.png","方形","simultaneous",""
"","","","","","html-keyboard-response","262","579923","0.0-13.0-2.0-1.0-0.0-1.51","null","<span style='color:GreenYellow; font-size: 70px;'>正确! </span>","null","","","","","","","","","","","","","","","","","","","","","","","feedback_test"
"","","","","","psychophysics","263","581694","0.0-13.0-2.0-1.0-0.0-0.52","766","","j","","","","","","","","","","","","","key","j","16.64974285714284","768","428","j","true","img/S_ambi40.png","三角","simultaneous",""
"","","","","","html-keyboard-response","264","581999","0.0-13.0-2.0-1.0-0.0-1.52","null","<span style='color:GreenYellow; font-size: 70px;'>正确! </span>","null","","","","","","","","","","","","","","","","","","","","","","","feedback_test"
"","","","","","psychophysics","265","584066","0.0-13.0-2.0-1.0-0.0-0.53","1059","","j","","","","","","","","","","","","","key","j","16.649138211382446","768","428","j","true","img/S_ambi40.png","圆形","simultaneous",""
"","","","","","html-keyboard-response","266","584386","0.0-13.0-2.0-1.0-0.0-1.53","null","<span style='color:GreenYellow; font-size: 70px;'>正确! </span>","null","","","","","","","","","","","","","","","","","","","","","","","feedback_test"
"","","","","","psychophysics","267","586214","0.0-13.0-2.0-1.0-0.0-0.54","823","","j","","","","","","","","","","","","","key","j","16.649100917430996","768","428","j","true","img/T_ambi40.png","圆形","simultaneous",""
"","","","","","html-keyboard-response","268","586530","0.0-13.0-2.0-1.0-0.0-1.54","null","<span style='color:GreenYellow; font-size: 70px;'>正确! </span>","null","","","","","","","","","","","","","","","","","","","","","","","feedback_test"
"","","","","","psychophysics","269","588431","0.0-13.0-2.0-1.0-0.0-0.55","896","","j","","","","","","","","","","","","","key","j","16.6512035398231","768","428","j","true","img/C_ambi40.png","三角","simultaneous",""
"","","","","","html-keyboard-response","270","588739","0.0-13.0-2.0-1.0-0.0-1.55","null","<span style='color:GreenYellow; font-size: 70px;'>正确! </span>","null","","","","","","","","","","","","","","","","","","","","","","","feedback_test"
"","","","","","psychophysics","271","590624","0.0-13.0-2.0-1.0-0.0-0.56","883","","f","","","","","","","","","","","","","key","f","16.526446428571944","768","428","f","true","img/S_ambi40.png","方形","simultaneous",""
"","","","","","html-keyboard-response","272","590936","0.0-13.0-2.0-1.0-0.0-1.56","null","<span style='color:GreenYellow; font-size: 70px;'>正确! </span>","null","","","","","","","","","","","","","","","","","","","","","","","feedback_test"
"","","","","","psychophysics","273","592667","0.0-13.0-2.0-1.0-0.0-0.57","730","","j","","","","","","","","","","","","","key","j","16.64918446601979","768","428","f","false","img/T_ambi40.png","三角","simultaneous",""
"","","","","","html-keyboard-response","274","592986","0.0-13.0-2.0-1.0-0.0-1.57","null","<span style='color:red; font-size: 70px;'>错误! </span>","null","","","","","","","","","","","","","","","","","","","","","","","feedback_test"
"","","","","","psychophysics","275","595495","0.0-13.0-2.0-1.0-0.0-0.58","null","","null","","","","","","","","","","","","","key","null","16.64962416107379","768","428","j","false","img/T_ambi40.png","方形","simultaneous",""
"","","","","","html-keyboard-response","276","595806","0.0-13.0-2.0-1.0-0.0-1.58","null","<span class='add_' style='color:yellow; font-size: 70px;'> 太慢! </span>","null","","","","","","","","","","","","","","","","","","","","","","","feedback_test"
"","","","","","psychophysics","277","597722","0.0-13.0-2.0-1.0-0.0-0.59","914","","f","","","","","","","","","","","","","key","f","16.649508771929774","768","428","f","true","img/S_ambi40.png","方形","simultaneous",""
"","","","","","html-keyboard-response","278","598045","0.0-13.0-2.0-1.0-0.0-1.59","null","<span style='color:GreenYellow; font-size: 70px;'>正确! </span>","null","","","","","","","","","","","","","","","","","","","","","","","feedback_test"
"","","","","","html-keyboard-response","279","600433","0.0-13.0-2.0-1.0-1.0","2387","<style>.context{color:white; font-size: 35px; line-height:40px}</style>                            <div><p class='context'>您正确回答了83% 的试次。</p><p class='context'>您的平均反应时为948毫秒。</p><p class='context'>请按任意键进入休息</p></div>","j","","","","","","","","","","","","","","","","","","","","","","",""
"","","","","","html-button-response","280","665734","0.0-13.0-2.0-1.0-2.0","65298","
                    <p>您当前还剩余3组实验</p>
                    <p>现在是休息时间，当您结束休息后，您可以点击 结束休息 按钮 继续</p>
                    <p>建议休息时间还剩余<span id=""iii"">60</span>秒</p>","0","","","","","","","","","","","","","","","","","","","","","","",""
"","","","","","psychophysics","281","668239","0.0-13.0-2.0-1.0-0.1-0.60","null","","null","","","","","","","","","","","","","key","null","16.64996644295283","768","428","f","false","img/T_ambi40.png","三角","simultaneous",""
"","","","","","html-keyboard-response","282","668547","0.0-13.0-2.0-1.0-0.1-1.60","null","<span class='add_' style='color:yellow; font-size: 70px;'> 太慢! </span>","null","","","","","","","","","","","","","","","","","","","","","","","feedback_test"
"","","","","","psychophysics","283","670632","0.0-13.0-2.0-1.0-0.1-0.61","1081","","j","","","","","","","","","","","","","key","j","16.64964516129018","768","428","j","true","img/T_ambi40.png","方形","simultaneous",""
"","","","","","html-keyboard-response","284","670947","0.0-13.0-2.0-1.0-0.1-1.61","null","<span style='color:GreenYellow; font-size: 70px;'>正确! </span>","null","","","","","","","","","","","","","","","","","","","","","","","feedback_test"
"","","","","","psychophysics","285","672910","0.0-13.0-2.0-1.0-0.1-0.62","959","","j","","","","","","","","","","","","","key","j","16.649623931624376","768","428","j","true","img/S_ambi40.png","圆形","simultaneous",""
"","","","","","html-keyboard-response","286","673228","0.0-13.0-2.0-1.0-0.1-1.62","null","<span style='color:GreenYellow; font-size: 70px;'>正确! </span>","null","","","","","","","","","","","","","","","","","","","","","","","feedback_test"
"","","","","","psychophysics","287","675152","0.0-13.0-2.0-1.0-0.1-0.63","921","","f","","","","","","","","","","","","","key","f","16.649252173912956","768","428","f","true","img/S_ambi40.png","方形","simultaneous",""
"","","","","","html-keyboard-response","288","675458","0.0-13.0-2.0-1.0-0.1-1.63","null","<span style='color:GreenYellow; font-size: 70px;'>正确! </span>","null","","","","","","","","","","","","","","","","","","","","","","","feedback_test"
"","","","","","psychophysics","289","677340","0.0-13.0-2.0-1.0-0.1-0.64","877","","j","","","","","","","","","","","","","key","j","16.65087499999936","768","428","j","true","img/C_ambi40.png","方形","simultaneous",""
"","","","","","html-keyboard-response","290","677658","0.0-13.0-2.0-1.0-0.1-1.64","null","<span style='color:GreenYellow; font-size: 70px;'>正确! </span>","null","","","","","","","","","","","","","","","","","","","","","","","feedback_test"
"","","","","","psychophysics","291","679447","0.0-13.0-2.0-1.0-0.1-0.65","784","","j","","","","","","","","","","","","","key","j","16.65187850467334","768","428","j","true","img/C_ambi40.png","三角","simultaneous",""
"","","","","","html-keyboard-response","292","679761","0.0-13.0-2.0-1.0-0.1-1.65","null","<span style='color:GreenYellow; font-size: 70px;'>正确! </span>","null","","","","","","","","","","","","","","","","","","","","","","","feedback_test"
"","","","","","psychophysics","293","681670","0.0-13.0-2.0-1.0-0.1-0.66","906","","f","","","","","","","","","","","","","key","f","16.646592920353488","768","428","f","true","img/T_ambi40.png","三角","simultaneous",""
"","","","","","html-keyboard-response","294","681975","0.0-13.0-2.0-1.0-0.1-1.66","null","<span style='color:GreenYellow; font-size: 70px;'>正确! </span>","null","","","","","","","","","","","","","","","","","","","","","","","feedback_test"
"","","","","","psychophysics","295","684242","0.0-13.0-2.0-1.0-0.1-0.67","1266","","f","","","","","","","","","","","","","key","f","16.649429629630134","768","428","f","true","img/C_ambi40.png","圆形","simultaneous",""
"","","","","","html-keyboard-response","296","684562","0.0-13.0-2.0-1.0-0.1-1.67","null","<span style='color:GreenYellow; font-size: 70px;'>正确! </span>","null","","","","","","","","","","","","","","","","","","","","","","","feedback_test"
"","","","","","psychophysics","297","686236","0.0-13.0-2.0-1.0-0.1-0.68","668","","j","","","","","","","","","","","","","key","j","16.649565656564782","768","428","f","false","img/S_ambi40.png","方形","simultaneous",""
"","","","","","html-keyboard-response","298","686556","0.0-13.0-2.0-1.0-0.1-1.68","null","<span style='color:red; font-size: 70px;'>错误! </span>","null","","","","","","","","","","","","","","","","","","","","","","","feedback_test"
"","","","","","psychophysics","299","688489","0.0-13.0-2.0-1.0-0.1-0.69","929","","j","","","","","","","","","","","","","key","j","16.64873913043462","768","428","j","true","img/T_ambi40.png","圆形","simultaneous",""
"","","","","","html-keyboard-response","300","688795","0.0-13.0-2.0-1.0-0.1-1.69","null","<span style='color:GreenYellow; font-size: 70px;'>正确! </span>","null","","","","","","","","","","","","","","","","","","","","","","","feedback_test"
"","","","","","psychophysics","301","690715","0.0-13.0-2.0-1.0-0.1-0.70","916","","f","","","","","","","","","","","","","key","f","16.648684210526927","768","428","f","true","img/C_ambi40.png","圆形","simultaneous",""
"","","","","","html-keyboard-response","302","691033","0.0-13.0-2.0-1.0-0.1-1.70","null","<span style='color:GreenYellow; font-size: 70px;'>正确! </span>","null","","","","","","","","","","","","","","","","","","","","","","","feedback_test"
"","","","","","psychophysics","303","693188","0.0-13.0-2.0-1.0-0.1-0.71","1154","","j","","","","","","","","","","","","","key","j","16.64953906249957","768","428","j","true","img/S_ambi40.png","三角","simultaneous",""
"","","","","","html-keyboard-response","304","693506","0.0-13.0-2.0-1.0-0.1-1.71","null","<span style='color:GreenYellow; font-size: 70px;'>正确! </span>","null","","","","","","","","","","","","","","","","","","","","","","","feedback_test"
"","","","","","psychophysics","305","695354","0.0-13.0-2.0-1.0-0.1-0.72","843","","j","","","","","","","","","","","","","key","j","16.652136363636238","768","428","j","true","img/S_ambi40.png","三角","simultaneous",""
"","","","","","html-keyboard-response","306","695665","0.0-13.0-2.0-1.0-0.1-1.72","null","<span style='color:GreenYellow; font-size: 70px;'>正确! </span>","null","","","","","","","","","","","","","","","","","","","","","","","feedback_test"
"","","","","","psychophysics","307","697646","0.0-13.0-2.0-1.0-0.1-0.73","975","","f","","","","","","","","","","","","","key","f","16.647593220338713","768","428","f","true","img/T_ambi40.png","三角","simultaneous",""
"","","","","","html-keyboard-response","308","697954","0.0-13.0-2.0-1.0-0.1-1.73","null","<span style='color:GreenYellow; font-size: 70px;'>正确! </span>","null","","","","","","","","","","","","","","","","","","","","","","","feedback_test"
"","","","","","psychophysics","309","700285","0.0-13.0-2.0-1.0-0.1-0.74","1327","","j","","","","","","","","","","","","","key","j","16.649258992805567","768","428","j","true","img/T_ambi40.png","圆形","simultaneous",""
"","","","","","html-keyboard-response","310","700599","0.0-13.0-2.0-1.0-0.1-1.74","null","<span style='color:GreenYellow; font-size: 70px;'>正确! </span>","null","","","","","","","","","","","","","","","","","","","","","","","feedback_test"
"","","","","","psychophysics","311","702324","0.0-13.0-2.0-1.0-0.1-0.75","718","","j","","","","","","","","","","","","","key","j","16.649174757281465","768","428","f","false","img/T_ambi40.png","三角","simultaneous",""
"","","","","","html-keyboard-response","312","702639","0.0-13.0-2.0-1.0-0.1-1.75","null","<span style='color:red; font-size: 70px;'>错误! </span>","null","","","","","","","","","","","","","","","","","","","","","","","feedback_test"
"","","","","","psychophysics","313","704790","0.0-13.0-2.0-1.0-0.1-0.76","1142","","f","","","","","","","","","","","","","key","f","16.648255813953487","768","428","f","true","img/S_ambi40.png","方形","simultaneous",""
"","","","","","html-keyboard-response","314","705099","0.0-13.0-2.0-1.0-0.1-1.76","null","<span style='color:GreenYellow; font-size: 70px;'>正确! </span>","null","","","","","","","","","","","","","","","","","","","","","","","feedback_test"
"","","","","","psychophysics","315","707023","0.0-13.0-2.0-1.0-0.1-0.77","923","","f","","","","","","","","","","","","","key","f","16.649443478260757","768","428","f","true","img/S_ambi40.png","方形","simultaneous",""
"","","","","","html-keyboard-response","316","707329","0.0-13.0-2.0-1.0-0.1-1.77","null","<span style='color:GreenYellow; font-size: 70px;'>正确! </span>","null","","","","","","","","","","","","","","","","","","","","","","","feedback_test"
"","","","","","psychophysics","317","709044","0.0-13.0-2.0-1.0-0.1-0.78","713","","f","","","","","","","","","","","","","key","f","16.648882352941047","768","428","f","true","img/C_ambi40.png","圆形","simultaneous",""
"","","","","","html-keyboard-response","318","709357","0.0-13.0-2.0-1.0-0.1-1.78","null","<span style='color:GreenYellow; font-size: 70px;'>正确! </span>","null","","","","","","","","","","","","","","","","","","","","","","","feedback_test"
"","","","","","psychophysics","319","711168","0.0-13.0-2.0-1.0-0.1-0.79","808","","j","","","","","","","","","","","","","key","j","16.65143518518501","768","428","j","true","img/T_ambi40.png","方形","simultaneous",""
"","","","","","html-keyboard-response","320","711475","0.0-13.0-2.0-1.0-0.1-1.79","null","<span style='color:GreenYellow; font-size: 70px;'>正确! </span>","null","","","","","","","","","","","","","","","","","","","","","","","feedback_test"
"","","","","","psychophysics","321","713736","0.0-13.0-2.0-1.0-0.1-0.80","1258","","f","","","","","","","","","","","","","key","f","16.649242647058973","768","428","f","true","img/C_ambi40.png","圆形","simultaneous",""
"","","","","","html-keyboard-response","322","714047","0.0-13.0-2.0-1.0-0.1-1.80","null","<span style='color:GreenYellow; font-size: 70px;'>正确! </span>","null","","","","","","","","","","","","","","","","","","","","","","","feedback_test"
"","","","","","psychophysics","323","715932","0.0-13.0-2.0-1.0-0.1-0.81","876","","j","","","","","","","","","","","","","key","j","16.648857142857327","768","428","j","true","img/S_ambi40.png","圆形","simultaneous",""
"","","","","","html-keyboard-response","324","716242","0.0-13.0-2.0-1.0-0.1-1.81","null","<span style='color:GreenYellow; font-size: 70px;'>正确! </span>","null","","","","","","","","","","","","","","","","","","","","","","","feedback_test"
"","","","","","psychophysics","325","717993","0.0-13.0-2.0-1.0-0.1-0.82","744","","j","","","","","","","","","","","","","key","j","16.651259615384895","768","428","j","true","img/C_ambi40.png","三角","simultaneous",""
"","","","","","html-keyboard-response","326","718297","0.0-13.0-2.0-1.0-0.1-1.82","null","<span style='color:GreenYellow; font-size: 70px;'>正确! </span>","null","","","","","","","","","","","","","","","","","","","","","","","feedback_test"
"","","","","","psychophysics","327","720102","0.0-13.0-2.0-1.0-0.1-0.83","799","","f","","","","","","","","","","","","","key","f","16.648657407406805","768","428","j","false","img/C_ambi40.png","方形","simultaneous",""
"","","","","","html-keyboard-response","328","720408","0.0-13.0-2.0-1.0-0.1-1.83","null","<span style='color:red; font-size: 70px;'>错误! </span>","null","","","","","","","","","","","","","","","","","","","","","","","feedback_test"
"","","","","","psychophysics","329","722373","0.0-13.0-2.0-1.0-0.1-0.84","957","","j","","","","","","","","","","","","","key","j","16.650641025641026","768","428","j","true","img/T_ambi40.png","方形","simultaneous",""
"","","","","","html-keyboard-response","330","722681","0.0-13.0-2.0-1.0-0.1-1.84","null","<span style='color:GreenYellow; font-size: 70px;'>正确! </span>","null","","","","","","","","","","","","","","","","","","","","","","","feedback_test"
"","","","","","psychophysics","331","724670","0.0-13.0-2.0-1.0-0.1-0.85","988","","f","","","","","","","","","","","","","key","f","16.651268907562446","768","428","f","true","img/S_ambi40.png","方形","simultaneous",""
"","","","","","html-keyboard-response","332","724979","0.0-13.0-2.0-1.0-0.1-1.85","null","<span style='color:GreenYellow; font-size: 70px;'>正确! </span>","null","","","","","","","","","","","","","","","","","","","","","","","feedback_test"
"","","","","","psychophysics","333","726967","0.0-13.0-2.0-1.0-0.1-0.86","986","","f","","","","","","","","","","","","","key","f","16.529500000000244","768","428","f","true","img/T_ambi40.png","三角","simultaneous",""
"","","","","","html-keyboard-response","334","727271","0.0-13.0-2.0-1.0-0.1-1.86","null","<span style='color:GreenYellow; font-size: 70px;'>正确! </span>","null","","","","","","","","","","","","","","","","","","","","","","","feedback_test"
"","","","","","psychophysics","335","729004","0.0-13.0-2.0-1.0-0.1-0.87","727","","j","","","","","","","","","","","","","key","j","16.648970873786805","768","428","j","true","img/S_ambi40.png","三角","simultaneous",""
"","","","","","html-keyboard-response","336","729315","0.0-13.0-2.0-1.0-0.1-1.87","null","<span style='color:GreenYellow; font-size: 70px;'>正确! </span>","null","","","","","","","","","","","","","","","","","","","","","","","feedback_test"
"","","","","","psychophysics","337","731200","0.0-13.0-2.0-1.0-0.1-0.88","881","","f","","","","","","","","","","","","","key","f","16.64930357142917","768","428","f","true","img/T_ambi40.png","三角","simultaneous",""
"","","","","","html-keyboard-response","338","731511","0.0-13.0-2.0-1.0-0.1-1.88","null","<span style='color:GreenYellow; font-size: 70px;'>正确! </span>","null","","","","","","","","","","","","","","","","","","","","","","","feedback_test"
"","","","","","psychophysics","339","733226","0.0-13.0-2.0-1.0-0.1-0.89","707","","j","","","","","","","","","","","","","key","j","16.650411764705353","768","428","j","true","img/C_ambi40.png","方形","simultaneous",""
"","","","","","html-keyboard-response","340","733538","0.0-13.0-2.0-1.0-0.1-1.89","null","<span style='color:GreenYellow; font-size: 70px;'>正确! </span>","null","","","","","","","","","","","","","","","","","","","","","","","feedback_test"
"","","","","","psychophysics","341","735429","0.0-13.0-2.0-1.0-0.1-0.90","884","","j","","","","","","","","","","","","","key","j","16.649250000000134","768","428","j","true","img/C_ambi40.png","三角","simultaneous",""
"","","","","","html-keyboard-response","342","735749","0.0-13.0-2.0-1.0-0.1-1.90","null","<span style='color:GreenYellow; font-size: 70px;'>正确! </span>","null","","","","","","","","","","","","","","","","","","","","","","","feedback_test"
"","","","","","psychophysics","343","737553","0.0-13.0-2.0-1.0-0.1-0.91","801","","f","","","","","","","","","","","","","key","f","16.648611111110466","768","428","f","true","img/C_ambi40.png","圆形","simultaneous",""
"","","","","","html-keyboard-response","344","737856","0.0-13.0-2.0-1.0-0.1-1.91","null","<span style='color:GreenYellow; font-size: 70px;'>正确! </span>","null","","","","","","","","","","","","","","","","","","","","","","","feedback_test"
"","","","","","psychophysics","345","739608","0.0-13.0-2.0-1.0-0.1-0.92","744","","j","","","","","","","","","","","","","key","j","16.648942307692217","768","428","j","true","img/T_ambi40.png","圆形","simultaneous",""
"","","","","","html-keyboard-response","346","739919","0.0-13.0-2.0-1.0-0.1-1.92","null","<span style='color:GreenYellow; font-size: 70px;'>正确! </span>","null","","","","","","","","","","","","","","","","","","","","","","","feedback_test"
"","","","","","psychophysics","347","741698","0.0-13.0-2.0-1.0-0.1-0.93","771","","j","","","","","","","","","","","","","key","j","16.64966037735905","768","428","j","true","img/S_ambi40.png","圆形","simultaneous",""
"","","","","","html-keyboard-response","348","742023","0.0-13.0-2.0-1.0-0.1-1.93","null","<span style='color:GreenYellow; font-size: 70px;'>正确! </span>","null","","","","","","","","","","","","","","","","","","","","","","","feedback_test"
"","","","","","psychophysics","349","743858","0.0-13.0-2.0-1.0-0.1-0.94","830","","f","","","","","","","","","","","","","key","f","16.65125688073362","768","428","f","true","img/S_ambi40.png","方形","simultaneous",""
"","","","","","html-keyboard-response","350","744178","0.0-13.0-2.0-1.0-0.1-1.94","null","<span style='color:GreenYellow; font-size: 70px;'>正确! </span>","null","","","","","","","","","","","","","","","","","","","","","","","feedback_test"
"","","","","","psychophysics","351","746493","0.0-13.0-2.0-1.0-0.1-0.95","1309","","f","","","","","","","","","","","","","key","f","16.649043478260655","768","428","f","true","img/C_ambi40.png","圆形","simultaneous",""
"","","","","","html-keyboard-response","352","746813","0.0-13.0-2.0-1.0-0.1-1.95","null","<span style='color:GreenYellow; font-size: 70px;'>正确! </span>","null","","","","","","","","","","","","","","","","","","","","","","","feedback_test"
"","","","","","psychophysics","353","748527","0.0-13.0-2.0-1.0-0.1-0.96","711","","j","","","","","","","","","","","","","key","j","16.649421568627826","768","428","j","true","img/S_ambi40.png","圆形","simultaneous",""
"","","","","","html-keyboard-response","354","748843","0.0-13.0-2.0-1.0-0.1-1.96","null","<span style='color:GreenYellow; font-size: 70px;'>正确! </span>","null","","","","","","","","","","","","","","","","","","","","","","","feedback_test"
"","","","","","psychophysics","355","750812","0.0-13.0-2.0-1.0-0.1-0.97","965","","j","","","","","","","","","","","","","key","j","16.64902564102553","768","428","j","true","img/T_ambi40.png","圆形","simultaneous",""
"","","","","","html-keyboard-response","356","751128","0.0-13.0-2.0-1.0-0.1-1.97","null","<span style='color:GreenYellow; font-size: 70px;'>正确! </span>","null","","","","","","","","","","","","","","","","","","","","","","","feedback_test"
"","","","","","psychophysics","357","753632","0.0-13.0-2.0-1.0-0.1-0.98","null","","null","","","","","","","","","","","","","key","null","16.6490268456373","768","428","j","false","img/T_ambi40.png","方形","simultaneous",""
"","","","","","html-keyboard-response","358","753935","0.0-13.0-2.0-1.0-0.1-1.98","null","<span class='add_' style='color:yellow; font-size: 70px;'> 太慢! </span>","null","","","","","","","","","","","","","","","","","","","","","","","feedback_test"
"","","","","","psychophysics","359","755837","0.0-13.0-2.0-1.0-0.1-0.99","893","","f","","","","","","","","","","","","","key","f","16.64921238938083","768","428","f","true","img/C_ambi40.png","圆形","simultaneous",""
"","","","","","html-keyboard-response","360","756154","0.0-13.0-2.0-1.0-0.1-1.99","null","<span style='color:GreenYellow; font-size: 70px;'>正确! </span>","null","","","","","","","","","","","","","","","","","","","","","","","feedback_test"
"","","","","","psychophysics","361","757866","0.0-13.0-2.0-1.0-0.1-0.100","707","","j","","","","","","","","","","","","","key","j","16.649313725490014","768","428","j","true","img/C_ambi40.png","方形","simultaneous",""
"","","","","","html-keyboard-response","362","758177","0.0-13.0-2.0-1.0-0.1-1.100","null","<span style='color:GreenYellow; font-size: 70px;'>正确! </span>","null","","","","","","","","","","","","","","","","","","","","","","","feedback_test"
"","","","","","psychophysics","363","760154","0.0-13.0-2.0-1.0-0.1-0.101","975","","f","","","","","","","","","","","","","key","f","16.53030769230746","768","428","f","true","img/T_ambi40.png","三角","simultaneous",""
"","","","","","html-keyboard-response","364","760465","0.0-13.0-2.0-1.0-0.1-1.101","null","<span style='color:GreenYellow; font-size: 70px;'>正确! </span>","null","","","","","","","","","","","","","","","","","","","","","","","feedback_test"
"","","","","","psychophysics","365","762386","0.0-13.0-2.0-1.0-0.1-0.102","915","","j","","","","","","","","","","","","","key","j","16.648614035088062","768","428","f","false","img/T_ambi40.png","三角","simultaneous",""
"","","","","","html-keyboard-response","366","762699","0.0-13.0-2.0-1.0-0.1-1.102","null","<span style='color:red; font-size: 70px;'>错误! </span>","null","","","","","","","","","","","","","","","","","","","","","","","feedback_test"
"","","","","","psychophysics","367","764649","0.0-13.0-2.0-1.0-0.1-0.103","946","","f","","","","","","","","","","","","","key","f","16.647965517241293","768","428","f","true","img/S_ambi40.png","方形","simultaneous",""
"","","","","","html-keyboard-response","368","764959","0.0-13.0-2.0-1.0-0.1-1.103","null","<span style='color:GreenYellow; font-size: 70px;'>正确! </span>","null","","","","","","","","","","","","","","","","","","","","","","","feedback_test"
"","","","","","psychophysics","369","766942","0.0-13.0-2.0-1.0-0.1-0.104","976","","j","","","","","","","","","","","","","key","j","16.647262711864226","768","428","j","true","img/S_ambi40.png","三角","simultaneous",""
"","","","","","html-keyboard-response","370","767248","0.0-13.0-2.0-1.0-0.1-1.104","null","<span style='color:GreenYellow; font-size: 70px;'>正确! </span>","null","","","","","","","","","","","","","","","","","","","","","","","feedback_test"
"","","","","","psychophysics","371","769208","0.0-13.0-2.0-1.0-0.1-0.105","957","","j","","","","","","","","","","","","","key","j","16.64844915254231","768","428","j","true","img/C_ambi40.png","三角","simultaneous",""
"","","","","","html-keyboard-response","372","769524","0.0-13.0-2.0-1.0-0.1-1.105","null","<span style='color:GreenYellow; font-size: 70px;'>正确! </span>","null","","","","","","","","","","","","","","","","","","","","","","","feedback_test"
"","","","","","psychophysics","373","771441","0.0-13.0-2.0-1.0-0.1-0.106","913","","f","","","","","","","","","","","","","key","f","16.651192982456436","768","428","f","true","img/C_ambi40.png","圆形","simultaneous",""
"","","","","","html-keyboard-response","374","771747","0.0-13.0-2.0-1.0-0.1-1.106","null","<span style='color:GreenYellow; font-size: 70px;'>正确! </span>","null","","","","","","","","","","","","","","","","","","","","","","","feedback_test"
"","","","","","psychophysics","375","774004","0.0-13.0-2.0-1.0-0.1-0.107","1256","","f","","","","","","","","","","","","","key","f","16.649574626865274","768","428","f","true","img/S_ambi40.png","方形","simultaneous",""
"","","","","","html-keyboard-response","376","774317","0.0-13.0-2.0-1.0-0.1-1.107","null","<span style='color:GreenYellow; font-size: 70px;'>正确! </span>","null","","","","","","","","","","","","","","","","","","","","","","","feedback_test"
"","","","","","psychophysics","377","776033","0.0-13.0-2.0-1.0-0.1-0.108","714","","j","","","","","","","","","","","","","key","j","16.64909803921553","768","428","j","true","img/C_ambi40.png","三角","simultaneous",""
"","","","","","html-keyboard-response","378","776343","0.0-13.0-2.0-1.0-0.1-1.108","null","<span style='color:GreenYellow; font-size: 70px;'>正确! </span>","null","","","","","","","","","","","","","","","","","","","","","","","feedback_test"
"","","","","","psychophysics","379","778173","0.0-13.0-2.0-1.0-0.1-0.109","821","","f","","","","","","","","","","","","","key","f","16.64969444444459","768","428","f","true","img/S_ambi40.png","方形","simultaneous",""
"","","","","","html-keyboard-response","380","778487","0.0-13.0-2.0-1.0-0.1-1.109","null","<span style='color:GreenYellow; font-size: 70px;'>正确! </span>","null","","","","","","","","","","","","","","","","","","","","","","","feedback_test"
"","","","","","psychophysics","381","780937","0.0-13.0-2.0-1.0-0.1-0.110","1448","","f","","","","","","","","","","","","","key","f","16.64926712328731","768","428","f","true","img/C_ambi40.png","圆形","simultaneous",""
"","","","","","html-keyboard-response","382","781243","0.0-13.0-2.0-1.0-0.1-1.110","null","<span style='color:GreenYellow; font-size: 70px;'>正确! </span>","null","","","","","","","","","","","","","","","","","","","","","","","feedback_test"
"","","","","","psychophysics","383","783128","0.0-13.0-2.0-1.0-0.1-0.111","881","","j","","","","","","","","","","","","","key","j","16.64833928571482","768","428","j","true","img/C_ambi40.png","方形","simultaneous",""
"","","","","","html-keyboard-response","384","783437","0.0-13.0-2.0-1.0-0.1-1.111","null","<span style='color:GreenYellow; font-size: 70px;'>正确! </span>","null","","","","","","","","","","","","","","","","","","","","","","","feedback_test"
"","","","","","psychophysics","385","785480","0.0-13.0-2.0-1.0-0.1-0.112","1041","","f","","","","","","","","","","","","","key","f","16.650752066116016","768","428","f","true","img/T_ambi40.png","三角","simultaneous",""
"","","","","","html-keyboard-response","386","785790","0.0-13.0-2.0-1.0-0.1-1.112","null","<span style='color:GreenYellow; font-size: 70px;'>正确! </span>","null","","","","","","","","","","","","","","","","","","","","","","","feedback_test"
"","","","","","psychophysics","387","787643","0.0-13.0-2.0-1.0-0.1-0.113","845","","j","","","","","","","","","","","","","key","j","16.646400000000458","768","428","f","false","img/T_ambi40.png","三角","simultaneous",""
"","","","","","html-keyboard-response","388","787961","0.0-13.0-2.0-1.0-0.1-1.113","null","<span style='color:red; font-size: 70px;'>错误! </span>","null","","","","","","","","","","","","","","","","","","","","","","","feedback_test"
"","","","","","psychophysics","389","789802","0.0-13.0-2.0-1.0-0.1-0.114","840","","f","","","","","","","","","","","","","key","f","16.65020909090844","768","428","f","true","img/C_ambi40.png","圆形","simultaneous",""
"","","","","","html-keyboard-response","390","790117","0.0-13.0-2.0-1.0-0.1-1.114","null","<span style='color:GreenYellow; font-size: 70px;'>正确! </span>","null","","","","","","","","","","","","","","","","","","","","","","","feedback_test"
"","","","","","psychophysics","391","791905","0.0-13.0-2.0-1.0-0.1-0.115","785","","f","","","","","","","","","","","","","key","f","16.64833018867923","768","428","f","true","img/S_ambi40.png","方形","simultaneous",""
"","","","","","html-keyboard-response","392","792209","0.0-13.0-2.0-1.0-0.1-1.115","null","<span style='color:GreenYellow; font-size: 70px;'>正确! </span>","null","","","","","","","","","","","","","","","","","","","","","","","feedback_test"
"","","","","","psychophysics","393","794125","0.0-13.0-2.0-1.0-0.1-0.116","915","","j","","","","","","","","","","","","","key","j","16.649385964912526","768","428","j","true","img/S_ambi40.png","三角","simultaneous",""
"","","","","","html-keyboard-response","394","794446","0.0-13.0-2.0-1.0-0.1-1.116","null","<span style='color:GreenYellow; font-size: 70px;'>正确! </span>","null","","","","","","","","","","","","","","","","","","","","","","","feedback_test"
"","","","","","psychophysics","395","796309","0.0-13.0-2.0-1.0-0.1-0.117","854","","j","","","","","","","","","","","","","key","j","16.651153153153597","768","428","j","true","img/T_ambi40.png","圆形","simultaneous",""
"","","","","","html-keyboard-response","396","796628","0.0-13.0-2.0-1.0-0.1-1.117","null","<span style='color:GreenYellow; font-size: 70px;'>正确! </span>","null","","","","","","","","","","","","","","","","","","","","","","","feedback_test"
"","","","","","psychophysics","397","798489","0.0-13.0-2.0-1.0-0.1-0.118","858","","j","","","","","","","","","","","","","key","j","16.649774774774773","768","428","j","true","img/T_ambi40.png","方形","simultaneous",""
"","","","","","html-keyboard-response","398","798795","0.0-13.0-2.0-1.0-0.1-1.118","null","<span style='color:GreenYellow; font-size: 70px;'>正确! </span>","null","","","","","","","","","","","","","","","","","","","","","","","feedback_test"
"","","","","","psychophysics","399","800593","0.0-13.0-2.0-1.0-0.1-0.119","794","","j","","","","","","","","","","","","","key","j","16.649401869159192","768","428","j","true","img/S_ambi40.png","圆形","simultaneous",""
"","","","","","html-keyboard-response","400","800903","0.0-13.0-2.0-1.0-0.1-1.119","null","<span style='color:GreenYellow; font-size: 70px;'>正确! </span>","null","","","","","","","","","","","","","","","","","","","","","","","feedback_test"
"","","","","","html-keyboard-response","401","803834","0.0-13.0-2.0-1.0-1.1","2930","<style>.context{color:white; font-size: 35px; line-height:40px}</style>                            <div><p class='context'>您正确回答了88% 的试次。</p><p class='context'>您的平均反应时为929毫秒。</p><p class='context'>请按任意键进入休息</p></div>","j","","","","","","","","","","","","","","","","","","","","","","",""
"","","","","","html-button-response","402","903804","0.0-13.0-2.0-1.0-2.1","99968","
                    <p>您当前还剩余2组实验</p>
                    <p>现在是休息时间，当您结束休息后，您可以点击 结束休息 按钮 继续</p>
                    <p>建议休息时间还剩余<span id=""iii"">60</span>秒</p>","0","","","","","","","","","","","","","","","","","","","","","","",""
"","","","","","psychophysics","403","906307","0.0-13.0-2.0-1.0-0.2-0.120","null","","null","","","","","","","","","","","","","key","null","16.648206666666084","768","428","f","false","img/T_ambi40.png","三角","simultaneous",""
"","","","","","html-keyboard-response","404","906616","0.0-13.0-2.0-1.0-0.2-1.120","null","<span class='add_' style='color:yellow; font-size: 70px;'> 太慢! </span>","null","","","","","","","","","","","","","","","","","","","","","","","feedback_test"
"","","","","","psychophysics","405","908401","0.0-13.0-2.0-1.0-0.2-0.121","780","","j","","","","","","","","","","","","","key","j","16.650160377358638","768","428","j","true","img/S_ambi40.png","圆形","simultaneous",""
"","","","","","html-keyboard-response","406","908708","0.0-13.0-2.0-1.0-0.2-1.121","null","<span style='color:GreenYellow; font-size: 70px;'>正确! </span>","null","","","","","","","","","","","","","","","","","","","","","","","feedback_test"
"","","","","","psychophysics","407","910407","0.0-13.0-2.0-1.0-0.2-0.122","696","","j","","","","","","","","","","","","","key","j","16.65143564356477","768","428","j","true","img/S_ambi40.png","三角","simultaneous",""
"","","","","","html-keyboard-response","408","910715","0.0-13.0-2.0-1.0-0.2-1.122","null","<span style='color:GreenYellow; font-size: 70px;'>正确! </span>","null","","","","","","","","","","","","","","","","","","","","","","","feedback_test"
"","","","","","psychophysics","409","912422","0.0-13.0-2.0-1.0-0.2-0.123","706","","j","","","","","","","","","","","","","key","j","16.526346534653104","768","428","j","true","img/C_ambi40.png","方形","simultaneous",""
"","","","","","html-keyboard-response","410","912730","0.0-13.0-2.0-1.0-0.2-1.123","null","<span style='color:GreenYellow; font-size: 70px;'>正确! </span>","null","","","","","","","","","","","","","","","","","","","","","","","feedback_test"
"","","","","","psychophysics","411","914573","0.0-13.0-2.0-1.0-0.2-0.124","842","","f","","","","","","","","","","","","","key","f","16.650281818182503","768","428","f","true","img/T_ambi40.png","三角","simultaneous",""
"","","","","","html-keyboard-response","412","914884","0.0-13.0-2.0-1.0-0.2-1.124","null","<span style='color:GreenYellow; font-size: 70px;'>正确! </span>","null","","","","","","","","","","","","","","","","","","","","","","","feedback_test"
"","","","","","psychophysics","413","916867","0.0-13.0-2.0-1.0-0.2-0.125","981","","j","","","","","","","","","","","","","key","j","16.648889830508626","768","428","j","true","img/C_ambi40.png","三角","simultaneous",""
"","","","","","html-keyboard-response","414","917175","0.0-13.0-2.0-1.0-0.2-1.125","null","<span style='color:GreenYellow; font-size: 70px;'>正确! </span>","null","","","","","","","","","","","","","","","","","","","","","","","feedback_test"
"","","","","","psychophysics","415","919368","0.0-13.0-2.0-1.0-0.2-0.126","1191","","f","","","","","","","","","","","","","key","f","16.546161538461902","768","428","f","true","img/S_ambi40.png","方形","simultaneous",""
"","","","","","html-keyboard-response","416","919675","0.0-13.0-2.0-1.0-0.2-1.126","null","<span style='color:GreenYellow; font-size: 70px;'>正确! </span>","null","","","","","","","","","","","","","","","","","","","","","","","feedback_test"
"","","","","","psychophysics","417","921953","0.0-13.0-2.0-1.0-0.2-0.127","1275","","f","","","","","","","","","","","","","key","f","16.649148148148218","768","428","f","true","img/C_ambi40.png","圆形","simultaneous",""
"","","","","","html-keyboard-response","418","922256","0.0-13.0-2.0-1.0-0.2-1.127","null","<span style='color:GreenYellow; font-size: 70px;'>正确! </span>","null","","","","","","","","","","","","","","","","","","","","","","","feedback_test"
"","","","","","psychophysics","419","924262","0.0-13.0-2.0-1.0-0.2-0.128","999","","f","","","","","","","","","","","","","key","f","16.64920168067231","768","428","f","true","img/C_ambi40.png","圆形","simultaneous",""
"","","","","","html-keyboard-response","420","924574","0.0-13.0-2.0-1.0-0.2-1.128","null","<span style='color:GreenYellow; font-size: 70px;'>正确! </span>","null","","","","","","","","","","","","","","","","","","","","","","","feedback_test"
"","","","","","psychophysics","421","926296","0.0-13.0-2.0-1.0-0.2-0.129","714","","j","","","","","","","","","","","","","key","j","16.64956862745149","768","428","j","true","img/T_ambi40.png","圆形","simultaneous",""
"","","","","","html-keyboard-response","422","926614","0.0-13.0-2.0-1.0-0.2-1.129","null","<span style='color:GreenYellow; font-size: 70px;'>正确! </span>","null","","","","","","","","","","","","","","","","","","","","","","","feedback_test"
"","","","","","psychophysics","423","928438","0.0-13.0-2.0-1.0-0.2-0.130","822","","j","","","","","","","","","","","","","key","j","16.649394495412707","768","428","j","true","img/T_ambi40.png","方形","simultaneous",""
"","","","","","html-keyboard-response","424","928752","0.0-13.0-2.0-1.0-0.2-1.130","null","<span style='color:GreenYellow; font-size: 70px;'>正确! </span>","null","","","","","","","","","","","","","","","","","","","","","","","feedback_test"
"","","","","","psychophysics","425","930717","0.0-13.0-2.0-1.0-0.2-0.131","958","","f","","","","","","","","","","","","","key","f","16.64860683760773","768","428","f","true","img/S_ambi40.png","方形","simultaneous",""
"","","","","","html-keyboard-response","426","931024","0.0-13.0-2.0-1.0-0.2-1.131","null","<span style='color:GreenYellow; font-size: 70px;'>正确! </span>","null","","","","","","","","","","","","","","","","","","","","","","","feedback_test"
"","","","","","psychophysics","427","932853","0.0-13.0-2.0-1.0-0.2-0.132","824","","j","","","","","","","","","","","","","key","j","16.649119266054655","768","428","f","false","img/C_ambi40.png","圆形","simultaneous",""
"","","","","","html-keyboard-response","428","933160","0.0-13.0-2.0-1.0-0.2-1.132","null","<span style='color:red; font-size: 70px;'>错误! </span>","null","","","","","","","","","","","","","","","","","","","","","","","feedback_test"
"","","","","","psychophysics","429","935418","0.0-13.0-2.0-1.0-0.2-0.133","1257","","j","","","","","","","","","","","","","key","j","16.649082089551904","768","428","j","true","img/S_ambi40.png","三角","simultaneous",""
"","","","","","html-keyboard-response","430","935732","0.0-13.0-2.0-1.0-0.2-1.133","null","<span style='color:GreenYellow; font-size: 70px;'>正确! </span>","null","","","","","","","","","","","","","","","","","","","","","","","feedback_test"
