"success","timeout","failed_images","failed_audio","failed_video","trial_type","trial_index","time_elapsed","internal_node_id","rt","stimulus","response","value","item_width_mm","item_height_mm","item_width_px","px2mm","view_dist_mm","item_width_deg","px2deg","scale_factor","win_width_deg","win_height_deg","view_history","response_type","key_press","avg_frame_time","center_x","center_y","correct_response","correct","Image","word","condition","screen_id"
"true","false","[]","[]","[]","preload","0","27372","0.0-0.0","","","","","","","","","","","","","","","","","","","","","","","","","",""
"","","","","","html-keyboard-response","1","47786","0.0-1.0","20413","
   <p>您好，欢迎参加本次实验。</p>
   <p>为充分保障您的权利，请确保您已经知晓并同意《参与实验同意书》以及《数据公开知情同意书》。</p>
   <p>如果您未见过上述内容，请咨询实验员。</p>
   <p>如果您选择继续实验，则表示您已经清楚两份知情同意书的内容并同意。</p>
   <p> <div style = ""color: green""><按任意键至下页></div> </p>
   ","y","","","","","","","","","","","","","","","","","","","","","","",""
"","","","","","html-keyboard-response","2","50781","0.0-2.0","2995","
   <p>本实验首先需要您填写一些基本个人信息。</p>
   <p> <div style = ""color: green""><按任意键至下页></div></p>
   ","y","","","","","","","","","","","","","","","","","","","","","","",""
"","","","","","call-function","3","50783","0.0-3.0-0.0","","","","","","","","","","","","","","","","","","","","","","","","","",""
"","","","","","survey-html-form","4","59109","0.0-3.0-1.0","8326","","{""Q0"":""39""}","","","","","","","","","","","","","","","","","","","","","","",""
"","","","","","html-button-response","5","61306","0.0-3.0-2.0","2195","<p style = 'color : white'>您的性别</p>","1","","","","","","","","","","","","","","","","","","","","","","",""
"","","","","","survey-html-form","6","82815","0.0-3.0-3.0","21509","","{""Q0"":""2000""}","","","","","","","","","","","","","","","","","","","","","","",""
"","","","","","survey-html-form","7","87889","0.0-3.0-4.0","5072","","{""Q0"":""5""}","","","","","","","","","","","","","","","","","","","","","","",""
"","","","","","virtual-chinrest","8","262102","0.0-4.0","174211","","","","85.6","53.98","413.28395853195866","4.8253694617785445","592.33","8.265679170639174","50","0.8952682347369367","30.72","14.44","","","","","","","","","","","",""
"true","","","","","fullscreen","9","271603","0.0-5.0","","","","","","","","","","","","","","","","","","","","","","","","","",""
"","","","","","instructions","10","354661","0.0-6.0","83057","","","","","","","","","","","","","","[{""page_index"":0,""viewing_time"":12100},{""page_index"":1,""viewing_time"":51408},{""page_index"":2,""viewing_time"":14566},{""page_index"":3,""viewing_time"":4982}]","","","","","","","","","","",""
"","","","","","psychophysics","11","357329","0.0-7.0-0.0-0.0","null","","null","","","","","","","","","","","","","key","null","16.67046202531621","768","428","f","false","img/C_ambi40.png","方形","prac_image_first",""
"","","","","","html-keyboard-response","12","357644","0.0-7.0-0.0-1.0","null","<span class='add_' style='color:yellow; font-size: 70px;'> 太慢! </span>","null","","","","","","","","","","","","","","","","","","","","","","","feedback_test"
"","","","","","psychophysics","13","360295","0.0-7.0-0.0-0.1","null","","null","","","","","","","","","","","","","key","null","16.57897468354432","768","428","j","false","img/T_ambi40.png","三角","prac_image_first",""
"","","","","","html-keyboard-response","14","360608","0.0-7.0-0.0-1.1","null","<span class='add_' style='color:yellow; font-size: 70px;'> 太慢! </span>","null","","","","","","","","","","","","","","","","","","","","","","","feedback_test"
"","","","","","psychophysics","15","363262","0.0-7.0-0.0-0.2","null","","null","","","","","","","","","","","","","key","null","16.667436708860862","768","428","f","false","img/S_ambi40.png","圆形","prac_image_first",""
"","","","","","html-keyboard-response","16","363581","0.0-7.0-0.0-1.2","null","<span class='add_' style='color:yellow; font-size: 70px;'> 太慢! </span>","null","","","","","","","","","","","","","","","","","","","","","","","feedback_test"
"","","","","","psychophysics","17","366245","0.0-7.0-0.0-0.3","null","","null","","","","","","","","","","","","","key","null","16.66452201257889","768","428","f","false","img/T_ambi40.png","方形","prac_image_first",""
"","","","","","html-keyboard-response","18","366552","0.0-7.0-0.0-1.3","null","<span class='add_' style='color:yellow; font-size: 70px;'> 太慢! </span>","null","","","","","","","","","","","","","","","","","","","","","","","feedback_test"
"","","","","","psychophysics","19","369212","0.0-7.0-0.0-0.4","null","","null","","","","","","","","","","","","","key","null","16.667936708860665","768","428","j","false","img/C_ambi40.png","圆形","prac_image_first",""
"","","","","","html-keyboard-response","20","369521","0.0-7.0-0.0-1.4","null","<span class='add_' style='color:yellow; font-size: 70px;'> 太慢! </span>","null","","","","","","","","","","","","","","","","","","","","","","","feedback_test"
"","","","","","psychophysics","21","372179","0.0-7.0-0.0-0.5","null","","null","","","","","","","","","","","","","key","null","16.6670379746835","768","428","f","false","img/T_ambi40.png","圆形","prac_image_first",""
"","","","","","html-keyboard-response","22","372483","0.0-7.0-0.0-1.5","null","<span class='add_' style='color:yellow; font-size: 70px;'> 太慢! </span>","null","","","","","","","","","","","","","","","","","","","","","","","feedback_test"
"","","","","","psychophysics","23","375146","0.0-7.0-0.0-0.6","null","","null","","","","","","","","","","","","","key","null","16.6662848101265","768","428","j","false","img/T_ambi40.png","三角","prac_image_first",""
"","","","","","html-keyboard-response","24","375458","0.0-7.0-0.0-1.6","null","<span class='add_' style='color:yellow; font-size: 70px;'> 太慢! </span>","null","","","","","","","","","","","","","","","","","","","","","","","feedback_test"
"","","","","","psychophysics","25","378113","0.0-7.0-0.0-0.7","null","","null","","","","","","","","","","","","","key","null","16.670481012658147","768","428","j","false","img/S_ambi40.png","方形","prac_image_first",""
"","","","","","html-keyboard-response","26","378425","0.0-7.0-0.0-1.7","null","<span class='add_' style='color:yellow; font-size: 70px;'> 太慢! </span>","null","","","","","","","","","","","","","","","","","","","","","","","feedback_test"
"","","","","","psychophysics","27","381080","0.0-7.0-0.0-0.8","null","","null","","","","","","","","","","","","","key","null","16.66787421383636","768","428","f","false","img/S_ambi40.png","三角","prac_image_first",""
"","","","","","html-keyboard-response","28","381397","0.0-7.0-0.0-1.8","null","<span class='add_' style='color:yellow; font-size: 70px;'> 太慢! </span>","null","","","","","","","","","","","","","","","","","","","","","","","feedback_test"
"","","","","","psychophysics","29","384057","0.0-7.0-0.0-0.9","null","","null","","","","","","","","","","","","","key","null","16.66718987341752","768","428","f","false","img/C_ambi40.png","三角","prac_image_first",""
"","","","","","html-keyboard-response","30","384370","0.0-7.0-0.0-1.9","null","<span class='add_' style='color:yellow; font-size: 70px;'> 太慢! </span>","null","","","","","","","","","","","","","","","","","","","","","","","feedback_test"
"","","","","","psychophysics","31","387030","0.0-7.0-0.0-0.10","null","","null","","","","","","","","","","","","","key","null","16.669132911392392","768","428","j","false","img/S_ambi40.png","方形","prac_image_first",""
"","","","","","html-keyboard-response","32","387342","0.0-7.0-0.0-1.10","null","<span class='add_' style='color:yellow; font-size: 70px;'> 太慢! </span>","null","","","","","","","","","","","","","","","","","","","","","","","feedback_test"
"","","","","","psychophysics","33","389997","0.0-7.0-0.0-0.11","null","","null","","","","","","","","","","","","","key","null","16.67027215189868","768","428","j","false","img/C_ambi40.png","圆形","prac_image_first",""
"","","","","","html-keyboard-response","34","390308","0.0-7.0-0.0-1.11","null","<span class='add_' style='color:yellow; font-size: 70px;'> 太慢! </span>","null","","","","","","","","","","","","","","","","","","","","","","","feedback_test"
"","","","","","psychophysics","35","391604","0.0-7.0-0.0-0.12","140","","j","","","","","","","","","","","","","key","j","16.67209090909077","768","428","f","false","img/S_ambi40.png","圆形","prac_image_first",""
"","","","","","html-keyboard-response","36","391922","0.0-7.0-0.0-1.12","null","<span style='color:yellow; font-size: 70px;'>过快! </span>","null","","","","","","","","","","","","","","","","","","","","","","","feedback_test"
"","","","","","psychophysics","37","393696","0.0-7.0-0.0-0.13","614","","f","","","","","","","","","","","","","key","f","16.666704761904352","768","428","j","false","img/C_ambi40.png","圆形","prac_image_first",""
"","","","","","html-keyboard-response","38","394009","0.0-7.0-0.0-1.13","null","<span style='color:red; font-size: 70px;'>错误! </span>","null","","","","","","","","","","","","","","","","","","","","","","","feedback_test"
"","","","","","psychophysics","39","396664","0.0-7.0-0.0-0.14","null","","null","","","","","","","","","","","","","key","null","16.66805063291155","768","428","j","false","img/C_ambi40.png","圆形","prac_image_first",""
"","","","","","html-keyboard-response","40","396975","0.0-7.0-0.0-1.14","null","<span class='add_' style='color:yellow; font-size: 70px;'> 太慢! </span>","null","","","","","","","","","","","","","","","","","","","","","","","feedback_test"
"","","","","","psychophysics","41","399631","0.0-7.0-0.0-0.15","null","","null","","","","","","","","","","","","","key","null","16.667227848101394","768","428","f","false","img/C_ambi40.png","方形","prac_image_first",""
"","","","","","html-keyboard-response","42","399952","0.0-7.0-0.0-1.15","null","<span class='add_' style='color:yellow; font-size: 70px;'> 太慢! </span>","null","","","","","","","","","","","","","","","","","","","","","","","feedback_test"
"","","","","","psychophysics","43","401914","0.0-7.0-0.0-0.16","799","","f","","","","","","","","","","","","","key","f","16.670258620689655","768","428","j","false","img/S_ambi40.png","方形","prac_image_first",""
"","","","","","html-keyboard-response","44","402227","0.0-7.0-0.0-1.16","null","<span style='color:red; font-size: 70px;'>错误! </span>","null","","","","","","","","","","","","","","","","","","","","","","","feedback_test"
"","","","","","psychophysics","45","404882","0.0-7.0-0.0-0.17","null","","null","","","","","","","","","","","","","key","null","16.66781645569629","768","428","j","false","img/T_ambi40.png","三角","prac_image_first",""
"","","","","","html-keyboard-response","46","405194","0.0-7.0-0.0-1.17","null","<span class='add_' style='color:yellow; font-size: 70px;'> 太慢! </span>","null","","","","","","","","","","","","","","","","","","","","","","","feedback_test"
"","","","","","psychophysics","47","407848","0.0-7.0-0.0-0.18","null","","null","","","","","","","","","","","","","key","null","16.6707405063292","768","428","f","false","img/S_ambi40.png","三角","prac_image_first",""
"","","","","","html-keyboard-response","48","408166","0.0-7.0-0.0-1.18","null","<span class='add_' style='color:yellow; font-size: 70px;'> 太慢! </span>","null","","","","","","","","","","","","","","","","","","","","","","","feedback_test"
"","","","","","psychophysics","49","410826","0.0-7.0-0.0-0.19","null","","null","","","","","","","","","","","","","key","null","16.665974683544224","768","428","j","false","img/S_ambi40.png","方形","prac_image_first",""
"","","","","","html-keyboard-response","50","411135","0.0-7.0-0.0-1.19","null","<span class='add_' style='color:yellow; font-size: 70px;'> 太慢! </span>","null","","","","","","","","","","","","","","","","","","","","","","","feedback_test"
"","","","","","psychophysics","51","413797","0.0-7.0-0.0-0.20","null","","null","","","","","","","","","","","","","key","null","16.664651898733897","768","428","j","false","img/T_ambi40.png","三角","prac_image_first",""
"","","","","","html-keyboard-response","52","414107","0.0-7.0-0.0-1.20","null","<span class='add_' style='color:yellow; font-size: 70px;'> 太慢! </span>","null","","","","","","","","","","","","","","","","","","","","","","","feedback_test"
"","","","","","psychophysics","53","415346","0.0-7.0-0.0-0.21","86","","j","","","","","","","","","","","","","key","j","16.670191780821906","768","428","f","false","img/T_ambi40.png","圆形","prac_image_first",""
"","","","","","html-keyboard-response","54","415658","0.0-7.0-0.0-1.21","null","<span style='color:yellow; font-size: 70px;'>过快! </span>","null","","","","","","","","","","","","","","","","","","","","","","","feedback_test"
"","","","","","psychophysics","55","418315","0.0-7.0-0.0-0.22","null","","null","","","","","","","","","","","","","key","null","16.670107594936574","768","428","f","false","img/T_ambi40.png","方形","prac_image_first",""
"","","","","","html-keyboard-response","56","418629","0.0-7.0-0.0-1.22","null","<span class='add_' style='color:yellow; font-size: 70px;'> 太慢! </span>","null","","","","","","","","","","","","","","","","","","","","","","","feedback_test"
"","","","","","psychophysics","57","421282","0.0-7.0-0.0-0.23","null","","null","","","","","","","","","","","","","key","null","16.667238993710786","768","428","f","false","img/C_ambi40.png","三角","prac_image_first",""
"","","","","","html-keyboard-response","58","421598","0.0-7.0-0.0-1.23","null","<span class='add_' style='color:yellow; font-size: 70px;'> 太慢! </span>","null","","","","","","","","","","","","","","","","","","","","","","","feedback_test"
"","","","","","html-keyboard-response","59","428415","0.0-7.0-1.0-0.0","6816","<style>.context{color:white; font-size: 35px; line-height:40px}</style>                            <div><p class='context'>您正确回答了0% 的试次。</p><p class='context'>您的平均反应时为NaN毫秒。</p>","l","","","","","","","","","","","","","","","","","","","","","","",""
"","","","","","instructions","60","464057","0.0-7.0-1.0-1.0","35640","","","","","","","","","","","","","","[{""page_index"":0,""viewing_time"":8022},{""page_index"":1,""viewing_time"":24351},{""page_index"":2,""viewing_time"":3267}]","","","","","","","","","","",""
"","","","","","psychophysics","61","465681","0.0-7.1-0.1-0.24","464","","j","","","","","","","","","","","","","key","j","16.672374999999494","768","428","j","true","img/T_ambi40.png","三角","prac_image_first",""
"","","","","","html-keyboard-response","62","465987","0.0-7.1-0.1-1.24","null","<span style='color:GreenYellow; font-size: 70px;'>正确! </span>","null","","","","","","","","","","","","","","","","","","","","","","","feedback_test"
"","","","","","psychophysics","63","468267","0.0-7.1-0.1-0.25","1124","","f","","","","","","","","","","","","","key","f","16.66757037037018","768","428","f","true","img/C_ambi40.png","方形","prac_image_first",""
"","","","","","html-keyboard-response","64","468575","0.0-7.1-0.1-1.25","null","<span style='color:GreenYellow; font-size: 70px;'>正确! </span>","null","","","","","","","","","","","","","","","","","","","","","","","feedback_test"
"","","","","","psychophysics","65","470609","0.0-7.1-0.1-0.26","873","","f","","","","","","","","","","","","","key","f","16.670380165289092","768","428","f","true","img/T_ambi40.png","圆形","prac_image_first",""
"","","","","","html-keyboard-response","66","470917","0.0-7.1-0.1-1.26","null","<span style='color:GreenYellow; font-size: 70px;'>正确! </span>","null","","","","","","","","","","","","","","","","","","","","","","","feedback_test"
"","","","","","psychophysics","67","473040","0.0-7.1-0.1-0.27","972","","f","","","","","","","","","","","","","key","f","16.56788888888892","768","428","f","true","img/T_ambi40.png","方形","prac_image_first",""
"","","","","","html-keyboard-response","68","473352","0.0-7.1-0.1-1.27","null","<span style='color:GreenYellow; font-size: 70px;'>正确! </span>","null","","","","","","","","","","","","","","","","","","","","","","","feedback_test"
"","","","","","psychophysics","69","475613","0.0-7.1-0.1-0.28","1106","","j","","","","","","","","","","","","","key","j","16.667902985074708","768","428","j","true","img/S_ambi40.png","方形","prac_image_first",""
"","","","","","html-keyboard-response","70","475922","0.0-7.1-0.1-1.28","null","<span style='color:GreenYellow; font-size: 70px;'>正确! </span>","null","","","","","","","","","","","","","","","","","","","","","","","feedback_test"
"","","","","","psychophysics","71","477858","0.0-7.1-0.1-0.29","782","","j","","","","","","","","","","","","","key","j","16.669365217391423","768","428","j","true","img/T_ambi40.png","三角","prac_image_first",""
"","","","","","html-keyboard-response","72","478169","0.0-7.1-0.1-1.29","null","<span style='color:GreenYellow; font-size: 70px;'>正确! </span>","null","","","","","","","","","","","","","","","","","","","","","","","feedback_test"
"","","","","","psychophysics","73","479959","0.0-7.1-0.1-0.30","623","","f","","","","","","","","","","","","","key","f","16.668462264150566","768","428","j","false","img/C_ambi40.png","圆形","prac_image_first",""
"","","","","","html-keyboard-response","74","480276","0.0-7.1-0.1-1.30","null","<span style='color:red; font-size: 70px;'>错误! </span>","null","","","","","","","","","","","","","","","","","","","","","","","feedback_test"
"","","","","","psychophysics","75","481995","0.0-7.1-0.1-0.31","563","","j","","","","","","","","","","","","","key","j","16.66810784313723","768","428","j","true","img/C_ambi40.png","圆形","prac_image_first",""
"","","","","","html-keyboard-response","76","482311","0.0-7.1-0.1-1.31","null","<span style='color:GreenYellow; font-size: 70px;'>正确! </span>","null","","","","","","","","","","","","","","","","","","","","","","","feedback_test"
"","","","","","psychophysics","77","484568","0.0-7.1-0.1-0.32","1099","","f","","","","","","","","","","","","","key","f","16.66958208955258","768","428","f","true","img/S_ambi40.png","圆形","prac_image_first",""
"","","","","","html-keyboard-response","78","484888","0.0-7.1-0.1-1.32","null","<span style='color:GreenYellow; font-size: 70px;'>正确! </span>","null","","","","","","","","","","","","","","","","","","","","","","","feedback_test"
"","","","","","psychophysics","79","487237","0.0-7.1-0.1-0.33","1184","","j","","","","","","","","","","","","","key","j","16.670628571428825","768","428","j","true","img/S_ambi40.png","方形","prac_image_first",""
"","","","","","html-keyboard-response","80","487552","0.0-7.1-0.1-1.33","null","<span style='color:GreenYellow; font-size: 70px;'>正确! </span>","null","","","","","","","","","","","","","","","","","","","","","","","feedback_test"
"","","","","","psychophysics","81","489652","0.0-7.1-0.1-0.34","949","","f","","","","","","","","","","","","","key","f","16.670830645160976","768","428","f","true","img/S_ambi40.png","三角","prac_image_first",""
"","","","","","html-keyboard-response","82","489955","0.0-7.1-0.1-1.34","null","<span style='color:GreenYellow; font-size: 70px;'>正确! </span>","null","","","","","","","","","","","","","","","","","","","","","","","feedback_test"
"","","","","","psychophysics","83","492457","0.0-7.1-0.1-0.35","1337","","f","","","","","","","","","","","","","key","f","16.66955704697964","768","428","f","true","img/C_ambi40.png","三角","prac_image_first",""
"","","","","","html-keyboard-response","84","492768","0.0-7.1-0.1-1.35","null","<span style='color:GreenYellow; font-size: 70px;'>正确! </span>","null","","","","","","","","","","","","","","","","","","","","","","","feedback_test"
"","","","","","psychophysics","85","494598","0.0-7.1-0.1-0.36","678","","j","","","","","","","","","","","","","key","j","16.541740740740487","768","428","j","true","img/C_ambi40.png","圆形","prac_image_first",""
"","","","","","html-keyboard-response","86","494915","0.0-7.1-0.1-1.36","null","<span style='color:GreenYellow; font-size: 70px;'>正确! </span>","null","","","","","","","","","","","","","","","","","","","","","","","feedback_test"
"","","","","","psychophysics","87","497286","0.0-7.1-0.1-0.37","1218","","f","","","","","","","","","","","","","key","f","16.667971830986012","768","428","f","true","img/S_ambi40.png","圆形","prac_image_first",""
"","","","","","html-keyboard-response","88","497597","0.0-7.1-0.1-1.37","null","<span style='color:GreenYellow; font-size: 70px;'>正确! </span>","null","","","","","","","","","","","","","","","","","","","","","","","feedback_test"
"","","","","","psychophysics","89","499654","0.0-7.1-0.1-0.38","901","","f","","","","","","","","","","","","","key","f","16.6679918699187","768","428","f","true","img/S_ambi40.png","三角","prac_image_first",""
"","","","","","html-keyboard-response","90","499967","0.0-7.1-0.1-1.38","null","<span style='color:GreenYellow; font-size: 70px;'>正确! </span>","null","","","","","","","","","","","","","","","","","","","","","","","feedback_test"
"","","","","","psychophysics","91","502192","0.0-7.1-0.1-0.39","1073","","f","","","","","","","","","","","","","key","f","16.669503759398893","768","428","f","true","img/C_ambi40.png","三角","prac_image_first",""
"","","","","","html-keyboard-response","92","502506","0.0-7.1-0.1-1.39","null","<span style='color:GreenYellow; font-size: 70px;'>正确! </span>","null","","","","","","","","","","","","","","","","","","","","","","","feedback_test"
"","","","","","psychophysics","93","504639","0.0-7.1-0.1-0.40","971","","f","","","","","","","","","","","","","key","f","16.66381889763774","768","428","f","true","img/C_ambi40.png","方形","prac_image_first",""
"","","","","","html-keyboard-response","94","504951","0.0-7.1-0.1-1.40","null","<span style='color:GreenYellow; font-size: 70px;'>正确! </span>","null","","","","","","","","","","","","","","","","","","","","","","","feedback_test"
"","","","","","psychophysics","95","507015","0.0-7.1-0.1-0.41","911","","j","","","","","","","","","","","","","key","j","16.66841463414655","768","428","j","true","img/S_ambi40.png","方形","prac_image_first",""
"","","","","","html-keyboard-response","96","507325","0.0-7.1-0.1-1.41","null","<span style='color:GreenYellow; font-size: 70px;'>正确! </span>","null","","","","","","","","","","","","","","","","","","","","","","","feedback_test"
"","","","","","psychophysics","97","509297","0.0-7.1-0.1-0.42","810","","f","","","","","","","","","","","","","key","f","16.667299145299335","768","428","f","true","img/T_ambi40.png","圆形","prac_image_first",""
"","","","","","html-keyboard-response","98","509605","0.0-7.1-0.1-1.42","null","<span style='color:GreenYellow; font-size: 70px;'>正确! </span>","null","","","","","","","","","","","","","","","","","","","","","","","feedback_test"
"","","","","","psychophysics","99","511478","0.0-7.1-0.1-0.43","708","","j","","","","","","","","","","","","","key","j","16.66518918918876","768","428","j","true","img/T_ambi40.png","三角","prac_image_first",""
"","","","","","html-keyboard-response","100","511792","0.0-7.1-0.1-1.43","null","<span style='color:GreenYellow; font-size: 70px;'>正确! </span>","null","","","","","","","","","","","","","","","","","","","","","","","feedback_test"
"","","","","","psychophysics","101","513984","0.0-7.1-0.1-0.44","1031","","j","","","","","","","","","","","","","key","j","16.668930769230847","768","428","j","true","img/C_ambi40.png","圆形","prac_image_first",""
"","","","","","html-keyboard-response","102","514301","0.0-7.1-0.1-1.44","null","<span style='color:GreenYellow; font-size: 70px;'>正确! </span>","null","","","","","","","","","","","","","","","","","","","","","","","feedback_test"
"","","","","","psychophysics","103","516436","0.0-7.1-0.1-0.45","983","","j","","","","","","","","","","","","","key","j","16.66792913385819","768","428","j","true","img/S_ambi40.png","方形","prac_image_first",""
"","","","","","html-keyboard-response","104","516743","0.0-7.1-0.1-1.45","null","<span style='color:GreenYellow; font-size: 70px;'>正确! </span>","null","","","","","","","","","","","","","","","","","","","","","","","feedback_test"
"","","","","","psychophysics","105","518561","0.0-7.1-0.1-0.46","659","","f","","","","","","","","","","","","","key","f","16.667629629629555","768","428","j","false","img/T_ambi40.png","三角","prac_image_first",""
"","","","","","html-keyboard-response","106","518875","0.0-7.1-0.1-1.46","null","<span style='color:red; font-size: 70px;'>错误! </span>","null","","","","","","","","","","","","","","","","","","","","","","","feedback_test"
"","","","","","psychophysics","107","520969","0.0-7.1-0.1-0.47","931","","f","","","","","","","","","","","","","key","f","16.665790322580328","768","428","f","true","img/T_ambi40.png","方形","prac_image_first",""
"","","","","","html-keyboard-response","108","521275","0.0-7.1-0.1-1.47","null","<span style='color:GreenYellow; font-size: 70px;'>正确! </span>","null","","","","","","","","","","","","","","","","","","","","","","","feedback_test"
"","","","","","html-keyboard-response","109","543024","0.0-8.0","21747","<style>.context{color:white; font-size: 35px; line-height:40px}</style>                            <div><p class='context'>您正确回答了92% 的试次。</p><p class='context'>您的平均反应时为939毫秒。</p><p class='context'>恭喜您完成这一阶段的练习。按任意键进入<span style='color: yellow;'>先文字后图形条件</span>的练习。</p></div>","l","","","","","","","","","","","","","","","","","","","","","","",""
"","","","","","psychophysics","110","545689","0.0-9.0-0.0-0.0","null","","null","","","","","","","","","","","","","key","null","16.669477987421658","768","428","j","false","img/C_ambi40.png","圆形","prac_word_first",""
"","","","","","html-keyboard-response","111","546007","0.0-9.0-0.0-1.0","null","<span class='add_' style='color:yellow; font-size: 70px;'> 太慢! </span>","null","","","","","","","","","","","","","","","","","","","","","","","feedback_test"
"","","","","","psychophysics","112","548122","0.0-9.0-0.0-0.1","949","","f","","","","","","","","","","","","","key","f","16.66868800000008","768","428","f","true","img/T_ambi40.png","方形","prac_word_first",""
"","","","","","html-keyboard-response","113","548432","0.0-9.0-0.0-1.1","null","<span style='color:GreenYellow; font-size: 70px;'>正确! </span>","null","","","","","","","","","","","","","","","","","","","","","","","feedback_test"
"","","","","","psychophysics","114","550227","0.0-9.0-0.0-0.2","638","","j","","","","","","","","","","","","","key","j","16.667747663551612","768","428","j","true","img/C_ambi40.png","圆形","prac_word_first",""
"","","","","","html-keyboard-response","115","550539","0.0-9.0-0.0-1.2","null","<span style='color:GreenYellow; font-size: 70px;'>正确! </span>","null","","","","","","","","","","","","","","","","","","","","","","","feedback_test"
"","","","","","psychophysics","116","552779","0.0-9.0-0.0-0.3","1089","","j","","","","","","","","","","","","","key","j","16.670330827067524","768","428","j","true","img/S_ambi40.png","方形","prac_word_first",""
"","","","","","html-keyboard-response","117","553092","0.0-9.0-0.0-1.3","null","<span style='color:GreenYellow; font-size: 70px;'>正确! </span>","null","","","","","","","","","","","","","","","","","","","","","","","feedback_test"
"","","","","","psychophysics","118","555145","0.0-9.0-0.0-0.4","889","","f","","","","","","","","","","","","","key","f","16.664155737704935","768","428","f","true","img/T_ambi40.png","圆形","prac_word_first",""
"","","","","","html-keyboard-response","119","555462","0.0-9.0-0.0-1.4","null","<span style='color:GreenYellow; font-size: 70px;'>正确! </span>","null","","","","","","","","","","","","","","","","","","","","","","","feedback_test"
"","","","","","psychophysics","120","557692","0.0-9.0-0.0-0.5","1069","","j","","","","","","","","","","","","","key","j","16.670533834586333","768","428","j","true","img/T_ambi40.png","三角","prac_word_first",""
"","","","","","html-keyboard-response","121","558008","0.0-9.0-0.0-1.5","null","<span style='color:GreenYellow; font-size: 70px;'>正确! </span>","null","","","","","","","","","","","","","","","","","","","","","","","feedback_test"
"","","","","","psychophysics","122","560232","0.0-9.0-0.0-0.6","1067","","j","","","","","","","","","","","","","key","j","16.66613636363587","768","428","j","true","img/S_ambi40.png","方形","prac_word_first",""
"","","","","","html-keyboard-response","123","560549","0.0-9.0-0.0-1.6","null","<span style='color:GreenYellow; font-size: 70px;'>正确! </span>","null","","","","","","","","","","","","","","","","","","","","","","","feedback_test"
"","","","","","psychophysics","124","562583","0.0-9.0-0.0-0.7","877","","f","","","","","","","","","","","","","key","f","16.670256198347307","768","428","f","true","img/S_ambi40.png","圆形","prac_word_first",""
"","","","","","html-keyboard-response","125","562899","0.0-9.0-0.0-1.7","null","<span style='color:GreenYellow; font-size: 70px;'>正确! </span>","null","","","","","","","","","","","","","","","","","","","","","","","feedback_test"
"","","","","","psychophysics","126","565152","0.0-9.0-0.0-0.8","1096","","f","","","","","","","","","","","","","key","f","16.669544776119707","768","428","f","true","img/C_ambi40.png","方形","prac_word_first",""
"","","","","","html-keyboard-response","127","565473","0.0-9.0-0.0-1.8","null","<span style='color:GreenYellow; font-size: 70px;'>正确! </span>","null","","","","","","","","","","","","","","","","","","","","","","","feedback_test"
"","","","","","psychophysics","128","567183","0.0-9.0-0.0-0.9","553","","j","","","","","","","","","","","","","key","j","16.667782178217784","768","428","j","true","img/T_ambi40.png","三角","prac_word_first",""
"","","","","","html-keyboard-response","129","567495","0.0-9.0-0.0-1.9","null","<span style='color:GreenYellow; font-size: 70px;'>正确! </span>","null","","","","","","","","","","","","","","","","","","","","","","","feedback_test"
"","","","","","psychophysics","130","569385","0.0-9.0-0.0-0.10","733","","j","","","","","","","","","","","","","key","j","16.66366071428638","768","428","f","false","img/S_ambi40.png","三角","prac_word_first",""
"","","","","","html-keyboard-response","131","569695","0.0-9.0-0.0-1.10","null","<span style='color:red; font-size: 70px;'>错误! </span>","null","","","","","","","","","","","","","","","","","","","","","","","feedback_test"
"","","","","","psychophysics","132","571807","0.0-9.0-0.0-0.11","949","","f","","","","","","","","","","","","","key","f","16.670520000000483","768","428","f","true","img/C_ambi40.png","三角","prac_word_first",""
"","","","","","html-keyboard-response","133","572125","0.0-9.0-0.0-1.11","null","<span style='color:GreenYellow; font-size: 70px;'>正确! </span>","null","","","","","","","","","","","","","","","","","","","","","","","feedback_test"
"","","","","","psychophysics","134","574131","0.0-9.0-0.0-0.12","846","","j","","","","","","","","","","","","","key","j","16.667042016806942","768","428","j","true","img/T_ambi40.png","三角","prac_word_first",""
"","","","","","html-keyboard-response","135","574442","0.0-9.0-0.0-1.12","null","<span style='color:GreenYellow; font-size: 70px;'>正确! </span>","null","","","","","","","","","","","","","","","","","","","","","","","feedback_test"
"","","","","","psychophysics","136","576598","0.0-9.0-0.0-0.13","989","","j","","","","","","","","","","","","","key","j","16.668320312499418","768","428","j","true","img/C_ambi40.png","圆形","prac_word_first",""
"","","","","","html-keyboard-response","137","576902","0.0-9.0-0.0-1.13","null","<span style='color:GreenYellow; font-size: 70px;'>正确! </span>","null","","","","","","","","","","","","","","","","","","","","","","","feedback_test"
"","","","","","psychophysics","138","579475","0.0-9.0-0.0-0.14","1417","","f","","","","","","","","","","","","","key","f","16.66750000000027","768","428","f","true","img/S_ambi40.png","三角","prac_word_first",""
"","","","","","html-keyboard-response","139","579796","0.0-9.0-0.0-1.14","null","<span style='color:GreenYellow; font-size: 70px;'>正确! </span>","null","","","","","","","","","","","","","","","","","","","","","","","feedback_test"
"","","","","","psychophysics","140","581679","0.0-9.0-0.0-0.15","719","","j","","","","","","","","","","","","","key","j","16.66433928571496","768","428","j","true","img/T_ambi40.png","三角","prac_word_first",""
"","","","","","html-keyboard-response","141","581999","0.0-9.0-0.0-1.15","null","<span style='color:GreenYellow; font-size: 70px;'>正确! </span>","null","","","","","","","","","","","","","","","","","","","","","","","feedback_test"
"","","","","","psychophysics","142","584263","0.0-9.0-0.0-0.16","1105","","j","","","","","","","","","","","","","key","j","16.66574814814764","768","428","f","false","img/S_ambi40.png","圆形","prac_word_first",""
"","","","","","html-keyboard-response","143","584586","0.0-9.0-0.0-1.16","null","<span style='color:red; font-size: 70px;'>错误! </span>","null","","","","","","","","","","","","","","","","","","","","","","","feedback_test"
"","","","","","psychophysics","144","586738","0.0-9.0-0.0-0.17","996","","j","","","","","","","","","","","","","key","j","16.66760156249984","768","428","j","true","img/S_ambi40.png","方形","prac_word_first",""
"","","","","","html-keyboard-response","145","587056","0.0-9.0-0.0-1.17","null","<span style='color:GreenYellow; font-size: 70px;'>正确! </span>","null","","","","","","","","","","","","","","","","","","","","","","","feedback_test"
"","","","","","psychophysics","146","589709","0.0-9.0-0.0-0.18","null","","null","","","","","","","","","","","","","key","null","16.66798113207494","768","428","f","false","img/T_ambi40.png","圆形","prac_word_first",""
"","","","","","html-keyboard-response","147","590017","0.0-9.0-0.0-1.18","null","<span class='add_' style='color:yellow; font-size: 70px;'> 太慢! </span>","null","","","","","","","","","","","","","","","","","","","","","","","feedback_test"
"","","","","","psychophysics","148","592293","0.0-9.0-0.0-0.19","1116","","j","","","","","","","","","","","","","key","j","16.667227941176595","768","428","j","true","img/C_ambi40.png","圆形","prac_word_first",""
"","","","","","html-keyboard-response","149","592599","0.0-9.0-0.0-1.19","null","<span style='color:GreenYellow; font-size: 70px;'>正确! </span>","null","","","","","","","","","","","","","","","","","","","","","","","feedback_test"
"","","","","","psychophysics","150","594892","0.0-9.0-0.0-0.20","1132","","f","","","","","","","","","","","","","key","f","16.668897058823323","768","428","f","true","img/C_ambi40.png","方形","prac_word_first",""
"","","","","","html-keyboard-response","151","595199","0.0-9.0-0.0-1.20","null","<span style='color:GreenYellow; font-size: 70px;'>正确! </span>","null","","","","","","","","","","","","","","","","","","","","","","","feedback_test"
"","","","","","psychophysics","152","597085","0.0-9.0-0.0-0.21","725","","f","","","","","","","","","","","","","key","f","16.667794642857707","768","428","f","true","img/C_ambi40.png","三角","prac_word_first",""
"","","","","","html-keyboard-response","153","597398","0.0-9.0-0.0-1.21","null","<span style='color:GreenYellow; font-size: 70px;'>正确! </span>","null","","","","","","","","","","","","","","","","","","","","","","","feedback_test"
"","","","","","psychophysics","154","599372","0.0-9.0-0.0-0.22","813","","f","","","","","","","","","","","","","key","f","16.668991452991428","768","428","f","true","img/T_ambi40.png","方形","prac_word_first",""
"","","","","","html-keyboard-response","155","599678","0.0-9.0-0.0-1.22","null","<span style='color:GreenYellow; font-size: 70px;'>正确! </span>","null","","","","","","","","","","","","","","","","","","","","","","","feedback_test"
"","","","","","psychophysics","156","601591","0.0-9.0-0.0-0.23","748","","j","","","","","","","","","","","","","key","j","16.67086725663682","768","428","j","true","img/S_ambi40.png","方形","prac_word_first",""
"","","","","","html-keyboard-response","157","601904","0.0-9.0-0.0-1.23","null","<span style='color:GreenYellow; font-size: 70px;'>正确! </span>","null","","","","","","","","","","","","","","","","","","","","","","","feedback_test"
"","","","","","html-keyboard-response","158","605799","0.0-10.0","3893","<style>.context{color:white; font-size: 35px; line-height:40px}</style>                            <div><p class='context'>您正确回答了83% 的试次。</p><p class='context'>您的平均反应时为934毫秒。</p><p class='context'>恭喜您完成练习。按任意键进入<span style='color: yellow;'>图形和文字同时呈现条件</span>的练习。</p></div>","k","","","","","","","","","","","","","","","","","","","","","","",""
"","","","","","psychophysics","159","608074","0.0-11.0-0.0-0.0","1269","","f","","","","","","","","","","","","","key","f","16.666800000000297","768","428","f","true","img/S_ambi40.png","圆形","prac_simultaneous",""
"","","","","","html-keyboard-response","160","608391","0.0-11.0-0.0-1.0","null","<span style='color:GreenYellow; font-size: 70px;'>正确! </span>","null","","","","","","","","","","","","","","","","","","","","","","","feedback_test"
"","","","","","psychophysics","161","610361","0.0-11.0-0.0-0.1","967","","f","","","","","","","","","","","","","key","f","16.66713559321992","768","428","j","false","img/T_ambi40.png","三角","prac_simultaneous",""
"","","","","","html-keyboard-response","162","610664","0.0-11.0-0.0-1.1","null","<span style='color:red; font-size: 70px;'>错误! </span>","null","","","","","","","","","","","","","","","","","","","","","","","feedback_test"
"","","","","","psychophysics","163","612675","0.0-11.0-0.0-0.2","1003","","f","","","","","","","","","","","","","key","f","16.67137815126124","768","428","f","true","img/T_ambi40.png","方形","prac_simultaneous",""
"","","","","","html-keyboard-response","164","612995","0.0-11.0-0.0-1.2","null","<span style='color:GreenYellow; font-size: 70px;'>正确! </span>","null","","","","","","","","","","","","","","","","","","","","","","","feedback_test"
"","","","","","psychophysics","165","615085","0.0-11.0-0.0-0.3","1075","","f","","","","","","","","","","","","","key","f","16.665653225806196","768","428","f","true","img/T_ambi40.png","圆形","prac_simultaneous",""
"","","","","","html-keyboard-response","166","615396","0.0-11.0-0.0-1.3","null","<span style='color:GreenYellow; font-size: 70px;'>正确! </span>","null","","","","","","","","","","","","","","","","","","","","","","","feedback_test"
"","","","","","psychophysics","167","617367","0.0-11.0-0.0-0.4","957","","f","","","","","","","","","","","","","key","f","16.66764957264949","768","428","f","true","img/C_ambi40.png","方形","prac_simultaneous",""
"","","","","","html-keyboard-response","168","617676","0.0-11.0-0.0-1.4","null","<span style='color:GreenYellow; font-size: 70px;'>正确! </span>","null","","","","","","","","","","","","","","","","","","","","","","","feedback_test"
"","","","","","psychophysics","169","619471","0.0-11.0-0.0-0.5","794","","j","","","","","","","","","","","","","key","j","16.666499999999772","768","428","j","true","img/C_ambi40.png","圆形","prac_simultaneous",""
"","","","","","html-keyboard-response","170","619780","0.0-11.0-0.0-1.5","null","<span style='color:GreenYellow; font-size: 70px;'>正确! </span>","null","","","","","","","","","","","","","","","","","","","","","","","feedback_test"
"","","","","","psychophysics","171","621788","0.0-11.0-0.0-0.6","1000","","f","","","","","","","","","","","","","key","f","16.669957983193083","768","428","f","true","img/C_ambi40.png","三角","prac_simultaneous",""
"","","","","","html-keyboard-response","172","622094","0.0-11.0-0.0-1.6","null","<span style='color:GreenYellow; font-size: 70px;'>正确! </span>","null","","","","","","","","","","","","","","","","","","","","","","","feedback_test"
"","","","","","psychophysics","173","623989","0.0-11.0-0.0-0.7","882","","j","","","","","","","","","","","","","key","j","16.666151785713737","768","428","j","true","img/S_ambi40.png","方形","prac_simultaneous",""
"","","","","","html-keyboard-response","174","624292","0.0-11.0-0.0-1.7","null","<span style='color:GreenYellow; font-size: 70px;'>正确! </span>","null","","","","","","","","","","","","","","","","","","","","","","","feedback_test"
"","","","","","psychophysics","175","626794","0.0-11.0-0.0-0.8","null","","null","","","","","","","","","","","","","key","null","16.67033557046983","768","428","j","false","img/S_ambi40.png","方形","prac_simultaneous",""
"","","","","","html-keyboard-response","176","627101","0.0-11.0-0.0-1.8","null","<span class='add_' style='color:yellow; font-size: 70px;'> 太慢! </span>","null","","","","","","","","","","","","","","","","","","","","","","","feedback_test"
"","","","","","psychophysics","177","629516","0.0-11.0-0.0-0.9","1405","","j","","","","","","","","","","","","","key","j","16.665972222221576","768","428","j","true","img/C_ambi40.png","圆形","prac_simultaneous",""
"","","","","","html-keyboard-response","178","629828","0.0-11.0-0.0-1.9","null","<span style='color:GreenYellow; font-size: 70px;'>正确! </span>","null","","","","","","","","","","","","","","","","","","","","","","","feedback_test"
"","","","","","psychophysics","179","631939","0.0-11.0-0.0-0.10","1097","","j","","","","","","","","","","","","","key","j","16.667839999999853","768","428","f","false","img/S_ambi40.png","三角","prac_simultaneous",""
"","","","","","html-keyboard-response","180","632244","0.0-11.0-0.0-1.10","null","<span style='color:red; font-size: 70px;'>错误! </span>","null","","","","","","","","","","","","","","","","","","","","","","","feedback_test"
"","","","","","psychophysics","181","634148","0.0-11.0-0.0-0.11","903","","j","","","","","","","","","","","","","key","j","16.667964912281093","768","428","j","true","img/T_ambi40.png","三角","prac_simultaneous",""
"","","","","","html-keyboard-response","182","634458","0.0-11.0-0.0-1.11","null","<span style='color:GreenYellow; font-size: 70px;'>正确! </span>","null","","","","","","","","","","","","","","","","","","","","","","","feedback_test"
"","","","","","psychophysics","183","636380","0.0-11.0-0.0-0.12","919","","f","","","","","","","","","","","","","key","f","16.671608695652054","768","428","f","true","img/C_ambi40.png","三角","prac_simultaneous",""
"","","","","","html-keyboard-response","184","636687","0.0-11.0-0.0-1.12","null","<span style='color:GreenYellow; font-size: 70px;'>正确! </span>","null","","","","","","","","","","","","","","","","","","","","","","","feedback_test"
"","","","","","psychophysics","185","638565","0.0-11.0-0.0-0.13","870","","j","","","","","","","","","","","","","key","j","16.667883928571037","768","428","j","true","img/T_ambi40.png","三角","prac_simultaneous",""
"","","","","","html-keyboard-response","186","638868","0.0-11.0-0.0-1.13","null","<span style='color:GreenYellow; font-size: 70px;'>正确! </span>","null","","","","","","","","","","","","","","","","","","","","","","","feedback_test"
"","","","","","psychophysics","187","640971","0.0-11.0-0.0-0.14","1092","","f","","","","","","","","","","","","","key","f","16.665040000000037","768","428","f","true","img/S_ambi40.png","圆形","prac_simultaneous",""
"","","","","","html-keyboard-response","188","641280","0.0-11.0-0.0-1.14","null","<span style='color:GreenYellow; font-size: 70px;'>正确! </span>","null","","","","","","","","","","","","","","","","","","","","","","","feedback_test"
"","","","","","psychophysics","189","643404","0.0-11.0-0.0-0.15","1114","","j","","","","","","","","","","","","","key","j","16.664190476190203","768","428","j","true","img/S_ambi40.png","方形","prac_simultaneous",""
"","","","","","html-keyboard-response","190","643709","0.0-11.0-0.0-1.15","null","<span style='color:GreenYellow; font-size: 70px;'>正确! </span>","null","","","","","","","","","","","","","","","","","","","","","","","feedback_test"
"","","","","","psychophysics","191","645705","0.0-11.0-0.0-0.16","993","","j","","","","","","","","","","","","","key","j","16.668310924369585","768","428","f","false","img/C_ambi40.png","方形","prac_simultaneous",""
"","","","","","html-keyboard-response","192","646013","0.0-11.0-0.0-1.16","null","<span style='color:red; font-size: 70px;'>错误! </span>","null","","","","","","","","","","","","","","","","","","","","","","","feedback_test"
"","","","","","psychophysics","193","648143","0.0-11.0-0.0-0.17","1118","","j","","","","","","","","","","","","","key","j","16.670301587301463","768","428","j","true","img/C_ambi40.png","圆形","prac_simultaneous",""
"","","","","","html-keyboard-response","194","648452","0.0-11.0-0.0-1.17","null","<span style='color:GreenYellow; font-size: 70px;'>正确! </span>","null","","","","","","","","","","","","","","","","","","","","","","","feedback_test"
"","","","","","psychophysics","195","650153","0.0-11.0-0.0-0.18","691","","f","","","","","","","","","","","","","key","f","16.66630693069327","768","428","j","false","img/C_ambi40.png","圆形","prac_simultaneous",""
"","","","","","html-keyboard-response","196","650473","0.0-11.0-0.0-1.18","null","<span style='color:red; font-size: 70px;'>错误! </span>","null","","","","","","","","","","","","","","","","","","","","","","","feedback_test"
"","","","","","psychophysics","197","652488","0.0-11.0-0.0-0.19","1009","","j","","","","","","","","","","","","","key","j","16.666466666666867","768","428","f","false","img/T_ambi40.png","圆形","prac_simultaneous",""
"","","","","","html-keyboard-response","198","652796","0.0-11.0-0.0-1.19","null","<span style='color:red; font-size: 70px;'>错误! </span>","null","","","","","","","","","","","","","","","","","","","","","","","feedback_test"
"","","","","","psychophysics","199","655302","0.0-11.0-0.0-0.20","null","","null","","","","","","","","","","","","","key","null","16.666838926174083","768","428","f","false","img/T_ambi40.png","方形","prac_simultaneous",""
"","","","","","html-keyboard-response","200","655611","0.0-11.0-0.0-1.20","null","<span class='add_' style='color:yellow; font-size: 70px;'> 太慢! </span>","null","","","","","","","","","","","","","","","","","","","","","","","feedback_test"
"","","","","","psychophysics","201","657326","0.0-11.0-0.0-0.21","713","","j","","","","","","","","","","","","","key","j","16.536366336633183","768","428","j","true","img/T_ambi40.png","三角","prac_simultaneous",""
"","","","","","html-keyboard-response","202","657628","0.0-11.0-0.0-1.21","null","<span style='color:GreenYellow; font-size: 70px;'>正确! </span>","null","","","","","","","","","","","","","","","","","","","","","","","feedback_test"
"","","","","","psychophysics","203","659336","0.0-11.0-0.0-0.22","706","","f","","","","","","","","","","","","","key","f","16.667346534653483","768","428","j","false","img/S_ambi40.png","方形","prac_simultaneous",""
"","","","","","html-keyboard-response","204","659655","0.0-11.0-0.0-1.22","null","<span style='color:red; font-size: 70px;'>错误! </span>","null","","","","","","","","","","","","","","","","","","","","","","","feedback_test"
"","","","","","psychophysics","205","661573","0.0-11.0-0.0-0.23","911","","f","","","","","","","","","","","","","key","f","16.66558771929908","768","428","f","true","img/S_ambi40.png","三角","prac_simultaneous",""
"","","","","","html-keyboard-response","206","661884","0.0-11.0-0.0-1.23","null","<span style='color:GreenYellow; font-size: 70px;'>正确! </span>","null","","","","","","","","","","","","","","","","","","","","","","","feedback_test"
"","","","","","html-keyboard-response","207","679360","0.0-12.0","17475","<style>.context{color:white; font-size: 35px; line-height:40px}</style>                            <div><p class='context'>您正确回答了67% 的试次。</p><p class='context'>您的平均反应时为1002毫秒。</p><p class='context'>恭喜您完成练习。按任意键进入正式实验。</p><p class='footer' style='font-size: 35px; line-height:40px;'>请在进入正式实验实验之前将您的<span style='color: lightgreen;'>食指</span>放在电脑键盘的相应键位上进行按键。</p>","l","","","","","","","","","","","","","","","","","","","","","","",""
"","","","","","html-keyboard-response","208","684389","0.0-13.0-0.0-0.0","5025","
    <p>请您将手指放在按键上，准备进入呈现顺序为<span style='color: yellow;'>先图形后文字条件</span>的正式匹配任务</p>
    <p> <div style = ""color: green""><按任意键进入下一阶段的匹配任务></div></p>
    ","l","","","","","","","","","","","","","","","","","","","","","","",""
"","","","","","psychophysics","209","686761","0.0-13.0-0.0-1.0-0.0-0.0","1213","","j","","","","","","","","","","","","","key","j","16.671404255319597","768","428","j","true","img/S_ambi40.png","方形","image_first",""
"","","","","","html-keyboard-response","210","687074","0.0-13.0-0.0-1.0-0.0-1.0","null","<span style='color:GreenYellow; font-size: 70px;'>正确! </span>","null","","","","","","","","","","","","","","","","","","","","","","","feedback_test"
"","","","","","psychophysics","211","689004","0.0-13.0-0.0-1.0-0.0-0.1","773","","f","","","","","","","","","","","","","key","f","16.671643478261387","768","428","f","true","img/C_ambi40.png","方形","image_first",""
"","","","","","html-keyboard-response","212","689308","0.0-13.0-0.0-1.0-0.0-1.1","null","<span style='color:GreenYellow; font-size: 70px;'>正确! </span>","null","","","","","","","","","","","","","","","","","","","","","","","feedback_test"
"","","","","","psychophysics","213","691376","0.0-13.0-0.0-1.0-0.0-0.2","915","","j","","","","","","","","","","","","","key","j","16.66605691056854","768","428","f","false","img/S_ambi40.png","圆形","image_first",""
"","","","","","html-keyboard-response","214","691696","0.0-13.0-0.0-1.0-0.0-1.2","null","<span style='color:red; font-size: 70px;'>错误! </span>","null","","","","","","","","","","","","","","","","","","","","","","","feedback_test"
"","","","","","psychophysics","215","693704","0.0-13.0-0.0-1.0-0.0-0.3","856","","j","","","","","","","","","","","","","key","j","16.66764166666641","768","428","j","true","img/T_ambi40.png","三角","image_first",""
"","","","","","html-keyboard-response","216","694027","0.0-13.0-0.0-1.0-0.0-1.3","null","<span style='color:GreenYellow; font-size: 70px;'>正确! </span>","null","","","","","","","","","","","","","","","","","","","","","","","feedback_test"
"","","","","","psychophysics","217","695787","0.0-13.0-0.0-1.0-0.0-0.4","607","","f","","","","","","","","","","","","","key","f","16.670466666666435","768","428","j","false","img/S_ambi40.png","方形","image_first",""
"","","","","","html-keyboard-response","218","696105","0.0-13.0-0.0-1.0-0.0-1.4","null","<span style='color:red; font-size: 70px;'>错误! </span>","null","","","","","","","","","","","","","","","","","","","","","","","feedback_test"
"","","","","","psychophysics","219","697977","0.0-13.0-0.0-1.0-0.0-0.5","712","","f","","","","","","","","","","","","","key","f","16.66394594594572","768","428","f","true","img/C_ambi40.png","三角","image_first",""
"","","","","","html-keyboard-response","220","698287","0.0-13.0-0.0-1.0-0.0-1.5","null","<span style='color:GreenYellow; font-size: 70px;'>正确! </span>","null","","","","","","","","","","","","","","","","","","","","","","","feedback_test"
"","","","","","psychophysics","221","700023","0.0-13.0-0.0-1.0-0.0-0.6","575","","j","","","","","","","","","","","","","key","j","16.671893203883087","768","428","j","true","img/C_ambi40.png","圆形","image_first",""
"","","","","","html-keyboard-response","222","700332","0.0-13.0-0.0-1.0-0.0-1.6","null","<span style='color:GreenYellow; font-size: 70px;'>正确! </span>","null","","","","","","","","","","","","","","","","","","","","","","","feedback_test"
"","","","","","psychophysics","223","702006","0.0-13.0-0.0-1.0-0.0-0.7","523","","j","","","","","","","","","","","","","key","j","16.6677979797988","768","428","j","true","img/C_ambi40.png","圆形","image_first",""
"","","","","","html-keyboard-response","224","702315","0.0-13.0-0.0-1.0-0.0-1.7","null","<span style='color:GreenYellow; font-size: 70px;'>正确! </span>","null","","","","","","","","","","","","","","","","","","","","","","","feedback_test"
"","","","","","psychophysics","225","704414","0.0-13.0-0.0-1.0-0.0-0.8","943","","f","","","","","","","","","","","","","key","f","16.66995967741898","768","428","f","true","img/T_ambi40.png","圆形","image_first",""
"","","","","","html-keyboard-response","226","704723","0.0-13.0-0.0-1.0-0.0-1.8","null","<span style='color:GreenYellow; font-size: 70px;'>正确! </span>","null","","","","","","","","","","","","","","","","","","","","","","","feedback_test"
"","","","","","psychophysics","227","706568","0.0-13.0-0.0-1.0-0.0-0.9","686","","j","","","","","","","","","","","","","key","j","16.662745454545473","768","428","j","true","img/T_ambi40.png","三角","image_first",""
"","","","","","html-keyboard-response","228","706889","0.0-13.0-0.0-1.0-0.0-1.9","null","<span style='color:GreenYellow; font-size: 70px;'>正确! </span>","null","","","","","","","","","","","","","","","","","","","","","","","feedback_test"
"","","","","","psychophysics","229","709026","0.0-13.0-0.0-1.0-0.0-0.10","980","","f","","","","","","","","","","","","","key","f","16.665275590551108","768","428","f","true","img/S_ambi40.png","三角","image_first",""
"","","","","","html-keyboard-response","230","709340","0.0-13.0-0.0-1.0-0.0-1.10","null","<span style='color:GreenYellow; font-size: 70px;'>正确! </span>","null","","","","","","","","","","","","","","","","","","","","","","","feedback_test"
"","","","","","psychophysics","231","711607","0.0-13.0-0.0-1.0-0.0-0.11","1112","","f","","","","","","","","","","","","","key","f","16.666837037037368","768","428","f","true","img/T_ambi40.png","方形","image_first",""
"","","","","","html-keyboard-response","232","711910","0.0-13.0-0.0-1.0-0.0-1.11","null","<span style='color:GreenYellow; font-size: 70px;'>正确! </span>","null","","","","","","","","","","","","","","","","","","","","","","","feedback_test"
"","","","","","psychophysics","233","713978","0.0-13.0-0.0-1.0-0.0-0.12","912","","f","","","","","","","","","","","","","key","f","16.670414634146425","768","428","f","true","img/S_ambi40.png","圆形","image_first",""
"","","","","","html-keyboard-response","234","714293","0.0-13.0-0.0-1.0-0.0-1.12","null","<span style='color:GreenYellow; font-size: 70px;'>正确! </span>","null","","","","","","","","","","","","","","","","","","","","","","","feedback_test"
"","","","","","psychophysics","235","716319","0.0-13.0-0.0-1.0-0.0-0.13","870","","f","","","","","","","","","","","","","key","f","16.671033057850817","768","428","f","true","img/T_ambi40.png","方形","image_first",""
"","","","","","html-keyboard-response","236","716633","0.0-13.0-0.0-1.0-0.0-1.13","null","<span style='color:GreenYellow; font-size: 70px;'>正确! </span>","null","","","","","","","","","","","","","","","","","","","","","","","feedback_test"
"","","","","","psychophysics","237","718455","0.0-13.0-0.0-1.0-0.0-0.14","663","","j","","","","","","","","","","","","","key","j","16.6691296296302","768","428","j","true","img/T_ambi40.png","三角","image_first",""
"","","","","","html-keyboard-response","238","718776","0.0-13.0-0.0-1.0-0.0-1.14","null","<span style='color:GreenYellow; font-size: 70px;'>正确! </span>","null","","","","","","","","","","","","","","","","","","","","","","","feedback_test"
"","","","","","psychophysics","239","720946","0.0-13.0-0.0-1.0-0.0-0.15","1014","","f","","","","","","","","","","","","","key","f","16.666062015504036","768","428","f","true","img/C_ambi40.png","三角","image_first",""
"","","","","","html-keyboard-response","240","721267","0.0-13.0-0.0-1.0-0.0-1.15","null","<span style='color:GreenYellow; font-size: 70px;'>正确! </span>","null","","","","","","","","","","","","","","","","","","","","","","","feedback_test"
"","","","","","psychophysics","241","723141","0.0-13.0-0.0-1.0-0.0-0.16","718","","j","","","","","","","","","","","","","key","j","16.66697297297284","768","428","j","true","img/S_ambi40.png","方形","image_first",""
"","","","","","html-keyboard-response","242","723449","0.0-13.0-0.0-1.0-0.0-1.16","null","<span style='color:GreenYellow; font-size: 70px;'>正确! </span>","null","","","","","","","","","","","","","","","","","","","","","","","feedback_test"
"","","","","","psychophysics","243","725224","0.0-13.0-0.0-1.0-0.0-0.17","624","","j","","","","","","","","","","","","","key","j","16.66427619047574","768","428","j","true","img/S_ambi40.png","方形","image_first",""
"","","","","","html-keyboard-response","244","725537","0.0-13.0-0.0-1.0-0.0-1.17","null","<span style='color:GreenYellow; font-size: 70px;'>正确! </span>","null","","","","","","","","","","","","","","","","","","","","","","","feedback_test"
"","","","","","psychophysics","245","727586","0.0-13.0-0.0-1.0-0.0-0.18","894","","j","","","","","","","","","","","","","key","j","16.667270491803333","768","428","j","true","img/T_ambi40.png","三角","image_first",""
"","","","","","html-keyboard-response","246","727894","0.0-13.0-0.0-1.0-0.0-1.18","null","<span style='color:GreenYellow; font-size: 70px;'>正确! </span>","null","","","","","","","","","","","","","","","","","","","","","","","feedback_test"
"","","","","","psychophysics","247","729649","0.0-13.0-0.0-1.0-0.0-0.19","599","","j","","","","","","","","","","","","","key","j","16.672067307692487","768","428","j","true","img/C_ambi40.png","圆形","image_first",""
"","","","","","html-keyboard-response","248","729968","0.0-13.0-0.0-1.0-0.0-1.19","null","<span style='color:GreenYellow; font-size: 70px;'>正确! </span>","null","","","","","","","","","","","","","","","","","","","","","","","feedback_test"
"","","","","","psychophysics","249","732044","0.0-13.0-0.0-1.0-0.0-0.20","910","","f","","","","","","","","","","","","","key","f","16.666983739837317","768","428","f","true","img/S_ambi40.png","三角","image_first",""
"","","","","","html-keyboard-response","250","732362","0.0-13.0-0.0-1.0-0.0-1.20","null","<span style='color:GreenYellow; font-size: 70px;'>正确! </span>","null","","","","","","","","","","","","","","","","","","","","","","","feedback_test"
"","","","","","psychophysics","251","734392","0.0-13.0-0.0-1.0-0.0-0.21","875","","j","","","","","","","","","","","","","key","j","16.669991735537337","768","428","f","false","img/T_ambi40.png","圆形","image_first",""
"","","","","","html-keyboard-response","252","734716","0.0-13.0-0.0-1.0-0.0-1.21","null","<span style='color:red; font-size: 70px;'>错误! </span>","null","","","","","","","","","","","","","","","","","","","","","","","feedback_test"
"","","","","","psychophysics","253","736579","0.0-13.0-0.0-1.0-0.0-0.22","712","","j","","","","","","","","","","","","","key","j","16.540063636363694","768","428","j","true","img/C_ambi40.png","圆形","image_first",""
"","","","","","html-keyboard-response","254","736896","0.0-13.0-0.0-1.0-0.0-1.22","null","<span style='color:GreenYellow; font-size: 70px;'>正确! </span>","null","","","","","","","","","","","","","","","","","","","","","","","feedback_test"
"","","","","","psychophysics","255","739191","0.0-13.0-0.0-1.0-0.0-0.23","1141","","f","","","","","","","","","","","","","key","f","16.667518248174844","768","428","f","true","img/C_ambi40.png","方形","image_first",""
"","","","","","html-keyboard-response","256","739504","0.0-13.0-0.0-1.0-0.0-1.23","null","<span style='color:GreenYellow; font-size: 70px;'>正确! </span>","null","","","","","","","","","","","","","","","","","","","","","","","feedback_test"
"","","","","","psychophysics","257","741610","0.0-13.0-0.0-1.0-0.0-0.24","943","","j","","","","","","","","","","","","","key","j","16.67160000000056","768","428","j","true","img/T_ambi40.png","三角","image_first",""
"","","","","","html-keyboard-response","258","741920","0.0-13.0-0.0-1.0-0.0-1.24","null","<span style='color:GreenYellow; font-size: 70px;'>正确! </span>","null","","","","","","","","","","","","","","","","","","","","","","","feedback_test"
"","","","","","psychophysics","259","744260","0.0-13.0-0.0-1.0-0.0-0.25","1176","","j","","","","","","","","","","","","","key","j","16.667273381295306","768","428","j","true","img/C_ambi40.png","圆形","image_first",""
"","","","","","html-keyboard-response","260","744564","0.0-13.0-0.0-1.0-0.0-1.25","null","<span style='color:GreenYellow; font-size: 70px;'>正确! </span>","null","","","","","","","","","","","","","","","","","","","","","","","feedback_test"
"","","","","","psychophysics","261","746565","0.0-13.0-0.0-1.0-0.0-0.26","848","","f","","","","","","","","","","","","","key","f","16.667865546218692","768","428","f","true","img/S_ambi40.png","三角","image_first",""
"","","","","","html-keyboard-response","262","746873","0.0-13.0-0.0-1.0-0.0-1.26","null","<span style='color:GreenYellow; font-size: 70px;'>正确! </span>","null","","","","","","","","","","","","","","","","","","","","","","","feedback_test"
"","","","","","psychophysics","263","748691","0.0-13.0-0.0-1.0-0.0-0.27","662","","f","","","","","","","","","","","","","key","f","16.667722222222775","768","428","f","true","img/T_ambi40.png","圆形","image_first",""
"","","","","","html-keyboard-response","264","749002","0.0-13.0-0.0-1.0-0.0-1.27","null","<span style='color:GreenYellow; font-size: 70px;'>正确! </span>","null","","","","","","","","","","","","","","","","","","","","","","","feedback_test"
"","","","","","psychophysics","265","751328","0.0-13.0-0.0-1.0-0.0-0.28","1167","","j","","","","","","","","","","","","","key","j","16.670514492753327","768","428","j","true","img/S_ambi40.png","方形","image_first",""
"","","","","","html-keyboard-response","266","751641","0.0-13.0-0.0-1.0-0.0-1.28","null","<span style='color:GreenYellow; font-size: 70px;'>正确! </span>","null","","","","","","","","","","","","","","","","","","","","","","","feedback_test"
"","","","","","psychophysics","267","753844","0.0-13.0-0.0-1.0-0.0-0.29","1042","","f","","","","","","","","","","","","","key","f","16.66755725190893","768","428","f","true","img/C_ambi40.png","方形","image_first",""
"","","","","","html-keyboard-response","268","754160","0.0-13.0-0.0-1.0-0.0-1.29","null","<span style='color:GreenYellow; font-size: 70px;'>正确! </span>","null","","","","","","","","","","","","","","","","","","","","","","","feedback_test"
"","","","","","psychophysics","269","755763","0.0-13.0-0.0-1.0-0.0-0.30","445","","j","","","","","","","","","","","","","key","j","16.672073684210005","768","428","j","true","img/T_ambi40.png","三角","image_first",""
"","","","","","html-keyboard-response","270","756068","0.0-13.0-0.0-1.0-0.0-1.30","null","<span style='color:GreenYellow; font-size: 70px;'>正确! </span>","null","","","","","","","","","","","","","","","","","","","","","","","feedback_test"
"","","","","","psychophysics","271","758719","0.0-13.0-0.0-1.0-0.0-0.31","null","","null","","","","","","","","","","","","","key","null","16.670240506329396","768","428","f","false","img/T_ambi40.png","方形","image_first",""
"","","","","","html-keyboard-response","272","759043","0.0-13.0-0.0-1.0-0.0-1.31","null","<span class='add_' style='color:yellow; font-size: 70px;'> 太慢! </span>","null","","","","","","","","","","","","","","","","","","","","","","","feedback_test"
"","","","","","psychophysics","273","760858","0.0-13.0-0.0-1.0-0.0-0.32","658","","j","","","","","","","","","","","","","key","j","16.668666666666805","768","428","j","true","img/C_ambi40.png","圆形","image_first",""
"","","","","","html-keyboard-response","274","761164","0.0-13.0-0.0-1.0-0.0-1.32","null","<span style='color:GreenYellow; font-size: 70px;'>正确! </span>","null","","","","","","","","","","","","","","","","","","","","","","","feedback_test"
"","","","","","psychophysics","275","763016","0.0-13.0-0.0-1.0-0.0-0.33","698","","f","","","","","","","","","","","","","key","f","16.668336363636296","768","428","f","true","img/C_ambi40.png","三角","image_first",""
"","","","","","html-keyboard-response","276","763328","0.0-13.0-0.0-1.0-0.0-1.33","null","<span style='color:GreenYellow; font-size: 70px;'>正确! </span>","null","","","","","","","","","","","","","","","","","","","","","","","feedback_test"
"","","","","","psychophysics","277","765273","0.0-13.0-0.0-1.0-0.0-0.34","787","","f","","","","","","","","","","","","","key","f","16.666724137930753","768","428","f","true","img/S_ambi40.png","圆形","image_first",""
"","","","","","html-keyboard-response","278","765587","0.0-13.0-0.0-1.0-0.0-1.34","null","<span style='color:GreenYellow; font-size: 70px;'>正确! </span>","null","","","","","","","","","","","","","","","","","","","","","","","feedback_test"
"","","","","","psychophysics","279","767351","0.0-13.0-0.0-1.0-0.0-0.35","608","","j","","","","","","","","","","","","","key","j","16.668442307692693","768","428","j","true","img/S_ambi40.png","方形","image_first",""
"","","","","","html-keyboard-response","280","767653","0.0-13.0-0.0-1.0-0.0-1.35","null","<span style='color:GreenYellow; font-size: 70px;'>正确! </span>","null","","","","","","","","","","","","","","","","","","","","","","","feedback_test"
"","","","","","psychophysics","281","769722","0.0-13.0-0.0-1.0-0.0-0.36","903","","f","","","","","","","","","","","","","key","f","16.670471544715394","768","428","f","true","img/S_ambi40.png","圆形","image_first",""
"","","","","","html-keyboard-response","282","770043","0.0-13.0-0.0-1.0-0.0-1.36","null","<span style='color:GreenYellow; font-size: 70px;'>正确! </span>","null","","","","","","","","","","","","","","","","","","","","","","","feedback_test"
"","","","","","psychophysics","283","771984","0.0-13.0-0.0-1.0-0.0-0.37","782","","j","","","","","","","","","","","","","key","j","16.666973913042888","768","428","j","true","img/C_ambi40.png","圆形","image_first",""
"","","","","","html-keyboard-response","284","772292","0.0-13.0-0.0-1.0-0.0-1.37","null","<span style='color:GreenYellow; font-size: 70px;'>正确! </span>","null","","","","","","","","","","","","","","","","","","","","","","","feedback_test"
"","","","","","psychophysics","285","774227","0.0-13.0-0.0-1.0-0.0-0.38","780","","j","","","","","","","","","","","","","key","j","16.66790434782616","768","428","f","false","img/T_ambi40.png","圆形","image_first",""
"","","","","","html-keyboard-response","286","774533","0.0-13.0-0.0-1.0-0.0-1.38","null","<span style='color:red; font-size: 70px;'>错误! </span>","null","","","","","","","","","","","","","","","","","","","","","","","feedback_test"
"","","","","","psychophysics","287","776346","0.0-13.0-0.0-1.0-0.0-0.39","660","","j","","","","","","","","","","","","","key","j","16.666898148148363","768","428","j","true","img/T_ambi40.png","三角","image_first",""
"","","","","","html-keyboard-response","288","776654","0.0-13.0-0.0-1.0-0.0-1.39","null","<span style='color:GreenYellow; font-size: 70px;'>正确! </span>","null","","","","","","","","","","","","","","","","","","","","","","","feedback_test"
"","","","","","psychophysics","289","778870","0.0-13.0-0.0-1.0-0.0-0.40","1050","","j","","","","","","","","","","","","","key","j","16.66866666666641","768","428","j","true","img/S_ambi40.png","方形","image_first",""
"","","","","","html-keyboard-response","290","779172","0.0-13.0-0.0-1.0-0.0-1.40","null","<span style='color:GreenYellow; font-size: 70px;'>正确! </span>","null","","","","","","","","","","","","","","","","","","","","","","","feedback_test"
"","","","","","psychophysics","291","781329","0.0-13.0-0.0-1.0-0.0-0.41","1003","","j","","","","","","","","","","","","","key","j","16.66767187499954","768","428","f","false","img/T_ambi40.png","方形","image_first",""
"","","","","","html-keyboard-response","292","781644","0.0-13.0-0.0-1.0-0.0-1.41","null","<span style='color:red; font-size: 70px;'>错误! </span>","null","","","","","","","","","","","","","","","","","","","","","","","feedback_test"
"","","","","","psychophysics","293","784284","0.0-13.0-0.0-1.0-0.0-0.42","1488","","j","","","","","","","","","","","","","key","j","16.66771974522327","768","428","j","true","img/S_ambi40.png","方形","image_first",""
"","","","","","html-keyboard-response","294","784589","0.0-13.0-0.0-1.0-0.0-1.42","null","<span style='color:GreenYellow; font-size: 70px;'>正确! </span>","null","","","","","","","","","","","","","","","","","","","","","","","feedback_test"
"","","","","","psychophysics","295","786296","0.0-13.0-0.0-1.0-0.0-0.43","542","","f","","","","","","","","","","","","","key","f","16.67180198019873","768","428","j","false","img/T_ambi40.png","三角","image_first",""
"","","","","","html-keyboard-response","296","786608","0.0-13.0-0.0-1.0-0.0-1.43","null","<span style='color:red; font-size: 70px;'>错误! </span>","null","","","","","","","","","","","","","","","","","","","","","","","feedback_test"
"","","","","","psychophysics","297","788537","0.0-13.0-0.0-1.0-0.0-0.44","767","","j","","","","","","","","","","","","","key","j","16.66794782608707","768","428","f","false","img/C_ambi40.png","方形","image_first",""
"","","","","","html-keyboard-response","298","788844","0.0-13.0-0.0-1.0-0.0-1.44","null","<span style='color:red; font-size: 70px;'>错误! </span>","null","","","","","","","","","","","","","","","","","","","","","","","feedback_test"
"","","","","","psychophysics","299","790694","0.0-13.0-0.0-1.0-0.0-0.45","693","","j","","","","","","","","","","","","","key","j","16.668954545454206","768","428","j","true","img/C_ambi40.png","圆形","image_first",""
"","","","","","html-keyboard-response","300","790996","0.0-13.0-0.0-1.0-0.0-1.45","null","<span style='color:GreenYellow; font-size: 70px;'>正确! </span>","null","","","","","","","","","","","","","","","","","","","","","","","feedback_test"
"","","","","","psychophysics","301","793022","0.0-13.0-0.0-1.0-0.0-0.46","871","","f","","","","","","","","","","","","","key","f","16.666867768594972","768","428","f","true","img/S_ambi40.png","三角","image_first",""
"","","","","","html-keyboard-response","302","793339","0.0-13.0-0.0-1.0-0.0-1.46","null","<span style='color:GreenYellow; font-size: 70px;'>正确! </span>","null","","","","","","","","","","","","","","","","","","","","","","","feedback_test"
"","","","","","psychophysics","303","795415","0.0-13.0-0.0-1.0-0.0-0.47","921","","f","","","","","","","","","","","","","key","f","16.667040650406285","768","428","f","true","img/C_ambi40.png","三角","image_first",""
"","","","","","html-keyboard-response","304","795721","0.0-13.0-0.0-1.0-0.0-1.47","null","<span style='color:GreenYellow; font-size: 70px;'>正确! </span>","null","","","","","","","","","","","","","","","","","","","","","","","feedback_test"
"","","","","","psychophysics","305","797759","0.0-13.0-0.0-1.0-0.0-0.48","888","","f","","","","","","","","","","","","","key","f","16.667256198347207","768","428","f","true","img/C_ambi40.png","三角","image_first",""
"","","","","","html-keyboard-response","306","798078","0.0-13.0-0.0-1.0-0.0-1.48","null","<span style='color:GreenYellow; font-size: 70px;'>正确! </span>","null","","","","","","","","","","","","","","","","","","","","","","","feedback_test"
"","","","","","psychophysics","307","799816","0.0-13.0-0.0-1.0-0.0-0.49","579","","j","","","","","","","","","","","","","key","j","16.66723300970851","768","428","j","true","img/T_ambi40.png","三角","image_first",""
"","","","","","html-keyboard-response","308","800124","0.0-13.0-0.0-1.0-0.0-1.49","null","<span style='color:GreenYellow; font-size: 70px;'>正确! </span>","null","","","","","","","","","","","","","","","","","","","","","","","feedback_test"
"","","","","","psychophysics","309","802438","0.0-13.0-0.0-1.0-0.0-0.50","1160","","j","","","","","","","","","","","","","key","j","16.664384057970576","768","428","j","true","img/C_ambi40.png","圆形","image_first",""
"","","","","","html-keyboard-response","310","802740","0.0-13.0-0.0-1.0-0.0-1.50","null","<span style='color:GreenYellow; font-size: 70px;'>正确! </span>","null","","","","","","","","","","","","","","","","","","","","","","","feedback_test"
"","","","","","psychophysics","311","804717","0.0-13.0-0.0-1.0-0.0-0.51","813","","j","","","","","","","","","","","","","key","j","16.668051282051376","768","428","j","true","img/C_ambi40.png","圆形","image_first",""
"","","","","","html-keyboard-response","312","805030","0.0-13.0-0.0-1.0-0.0-1.51","null","<span style='color:GreenYellow; font-size: 70px;'>正确! </span>","null","","","","","","","","","","","","","","","","","","","","","","","feedback_test"
"","","","","","psychophysics","313","806853","0.0-13.0-0.0-1.0-0.0-0.52","665","","j","","","","","","","","","","","","","key","j","16.672324074074385","768","428","j","true","img/S_ambi40.png","方形","image_first",""
"","","","","","html-keyboard-response","314","807156","0.0-13.0-0.0-1.0-0.0-1.52","null","<span style='color:GreenYellow; font-size: 70px;'>正确! </span>","null","","","","","","","","","","","","","","","","","","","","","","","feedback_test"
"","","","","","psychophysics","315","809116","0.0-13.0-0.0-1.0-0.0-0.53","797","","f","","","","","","","","","","","","","key","f","16.667836206896904","768","428","f","true","img/C_ambi40.png","方形","image_first",""
"","","","","","html-keyboard-response","316","809428","0.0-13.0-0.0-1.0-0.0-1.53","null","<span style='color:GreenYellow; font-size: 70px;'>正确! </span>","null","","","","","","","","","","","","","","","","","","","","","","","feedback_test"
"","","","","","psychophysics","317","811348","0.0-13.0-0.0-1.0-0.0-0.54","759","","f","","","","","","","","","","","","","key","f","16.66778947368444","768","428","f","true","img/S_ambi40.png","圆形","image_first",""
"","","","","","html-keyboard-response","318","811657","0.0-13.0-0.0-1.0-0.0-1.54","null","<span style='color:GreenYellow; font-size: 70px;'>正确! </span>","null","","","","","","","","","","","","","","","","","","","","","","","feedback_test"
"","","","","","psychophysics","319","813424","0.0-13.0-0.0-1.0-0.0-0.55","603","","f","","","","","","","","","","","","","key","f","16.668695238095133","768","428","f","true","img/T_ambi40.png","方形","image_first",""
"","","","","","html-keyboard-response","320","813734","0.0-13.0-0.0-1.0-0.0-1.55","null","<span style='color:GreenYellow; font-size: 70px;'>正确! </span>","null","","","","","","","","","","","","","","","","","","","","","","","feedback_test"
"","","","","","psychophysics","321","815629","0.0-13.0-0.0-1.0-0.0-0.56","741","","f","","","","","","","","","","","","","key","f","16.667539823008084","768","428","f","true","img/S_ambi40.png","三角","image_first",""
"","","","","","html-keyboard-response","322","815933","0.0-13.0-0.0-1.0-0.0-1.56","null","<span style='color:GreenYellow; font-size: 70px;'>正确! </span>","null","","","","","","","","","","","","","","","","","","","","","","","feedback_test"
"","","","","","psychophysics","323","817723","0.0-13.0-0.0-1.0-0.0-0.57","635","","j","","","","","","","","","","","","","key","j","16.670336448598356","768","428","j","true","img/T_ambi40.png","三角","image_first",""
"","","","","","html-keyboard-response","324","818027","0.0-13.0-0.0-1.0-0.0-1.57","null","<span style='color:GreenYellow; font-size: 70px;'>正确! </span>","null","","","","","","","","","","","","","","","","","","","","","","","feedback_test"
"","","","","","psychophysics","325","819853","0.0-13.0-0.0-1.0-0.0-0.58","664","","j","","","","","","","","","","","","","key","j","16.66828703703747","768","428","j","true","img/S_ambi40.png","方形","image_first",""
"","","","","","html-keyboard-response","326","820155","0.0-13.0-0.0-1.0-0.0-1.58","null","<span style='color:GreenYellow; font-size: 70px;'>正确! </span>","null","","","","","","","","","","","","","","","","","","","","","","","feedback_test"
"","","","","","psychophysics","327","821822","0.0-13.0-0.0-1.0-0.0-0.59","512","","j","","","","","","","","","","","","","key","j","16.669595959596336","768","428","f","false","img/T_ambi40.png","圆形","image_first",""
"","","","","","html-keyboard-response","328","822123","0.0-13.0-0.0-1.0-0.0-1.59","null","<span style='color:red; font-size: 70px;'>错误! </span>","null","","","","","","","","","","","","","","","","","","","","","","","feedback_test"
"","","","","","html-keyboard-response","329","826218","0.0-13.0-0.0-1.0-1.0","4093","<style>.context{color:white; font-size: 35px; line-height:40px}</style>                            <div><p class='context'>您正确回答了85% 的试次。</p><p class='context'>您的平均反应时为826毫秒。</p><p class='context'>请按任意键进入休息</p></div>","l","","","","","","","","","","","","","","","","","","","","","","",""
"","","","","","html-button-response","330","891662","0.0-13.0-0.0-1.0-2.0","65442","
                    <p>您当前还剩余3组实验</p>
                    <p>现在是休息时间，当您结束休息后，您可以点击 结束休息 按钮 继续</p>
                    <p>建议休息时间还剩余<span id=""iii"">60</span>秒</p>","0","","","","","","","","","","","","","","","","","","","","","","",""
"","","","","","psychophysics","331","894321","0.0-13.0-0.0-1.0-0.1-0.60","null","","null","","","","","","","","","","","","","key","null","16.668468354430487","768","428","j","false","img/T_ambi40.png","三角","image_first",""
"","","","","","html-keyboard-response","332","894632","0.0-13.0-0.0-1.0-0.1-1.60","null","<span class='add_' style='color:yellow; font-size: 70px;'> 太慢! </span>","null","","","","","","","","","","","","","","","","","","","","","","","feedback_test"
"","","","","","psychophysics","333","896560","0.0-13.0-0.0-1.0-0.1-0.61","777","","f","","","","","","","","","","","","","key","f","16.667034782608972","768","428","f","true","img/T_ambi40.png","圆形","image_first",""
"","","","","","html-keyboard-response","334","896869","0.0-13.0-0.0-1.0-0.1-1.61","null","<span style='color:GreenYellow; font-size: 70px;'>正确! </span>","null","","","","","","","","","","","","","","","","","","","","","","","feedback_test"
"","","","","","psychophysics","335","898507","0.0-13.0-0.0-1.0-0.1-0.62","480","","j","","","","","","","","","","","","","key","j","16.670701030927432","768","428","j","true","img/C_ambi40.png","圆形","image_first",""
"","","","","","html-keyboard-response","336","898819","0.0-13.0-0.0-1.0-0.1-1.62","null","<span style='color:GreenYellow; font-size: 70px;'>正确! </span>","null","","","","","","","","","","","","","","","","","","","","","","","feedback_test"
"","","","","","psychophysics","337","900821","0.0-13.0-0.0-1.0-0.1-0.63","847","","f","","","","","","","","","","","","","key","f","16.667890756301965","768","428","f","true","img/S_ambi40.png","三角","image_first",""
"","","","","","html-keyboard-response","338","901128","0.0-13.0-0.0-1.0-0.1-1.63","null","<span style='color:GreenYellow; font-size: 70px;'>正确! </span>","null","","","","","","","","","","","","","","","","","","","","","","","feedback_test"
"","","","","","psychophysics","339","902736","0.0-13.0-0.0-1.0-0.1-0.64","443","","j","","","","","","","","","","","","","key","j","16.672505263158268","768","428","j","true","img/C_ambi40.png","圆形","image_first",""
"","","","","","html-keyboard-response","340","903042","0.0-13.0-0.0-1.0-0.1-1.64","null","<span style='color:GreenYellow; font-size: 70px;'>正确! </span>","null","","","","","","","","","","","","","","","","","","","","","","","feedback_test"
"","","","","","psychophysics","341","904694","0.0-13.0-0.0-1.0-0.1-0.65","501","","j","","","","","","","","","","","","","key","j","16.668818181818068","768","428","j","true","img/T_ambi40.png","三角","image_first",""
"","","","","","html-keyboard-response","342","905003","0.0-13.0-0.0-1.0-0.1-1.65","null","<span style='color:GreenYellow; font-size: 70px;'>正确! </span>","null","","","","","","","","","","","","","","","","","","","","","","","feedback_test"
"","","","","","psychophysics","343","907076","0.0-13.0-0.0-1.0-0.1-0.66","919","","f","","","","","","","","","","","","","key","f","16.671764227642104","768","428","f","true","img/C_ambi40.png","三角","image_first",""
"","","","","","html-keyboard-response","344","907380","0.0-13.0-0.0-1.0-0.1-1.66","null","<span style='color:GreenYellow; font-size: 70px;'>正确! </span>","null","","","","","","","","","","","","","","","","","","","","","","","feedback_test"
"","","","","","psychophysics","345","909119","0.0-13.0-0.0-1.0-0.1-0.67","583","","j","","","","","","","","","","","","","key","j","16.66508737864036","768","428","j","true","img/S_ambi40.png","方形","image_first",""
"","","","","","html-keyboard-response","346","909420","0.0-13.0-0.0-1.0-0.1-1.67","null","<span style='color:GreenYellow; font-size: 70px;'>正确! </span>","null","","","","","","","","","","","","","","","","","","","","","","","feedback_test"
"","","","","","psychophysics","347","911243","0.0-13.0-0.0-1.0-0.1-0.68","669","","f","","","","","","","","","","","","","key","f","16.666546296297046","768","428","f","true","img/S_ambi40.png","圆形","image_first",""
"","","","","","html-keyboard-response","348","911562","0.0-13.0-0.0-1.0-0.1-1.68","null","<span style='color:GreenYellow; font-size: 70px;'>正确! </span>","null","","","","","","","","","","","","","","","","","","","","","","","feedback_test"
"","","","","","psychophysics","349","913204","0.0-13.0-0.0-1.0-0.1-0.69","478","","j","","","","","","","","","","","","","key","j","16.667597938145356","768","428","j","true","img/S_ambi40.png","方形","image_first",""
"","","","","","html-keyboard-response","350","913509","0.0-13.0-0.0-1.0-0.1-1.69","null","<span style='color:GreenYellow; font-size: 70px;'>正确! </span>","null","","","","","","","","","","","","","","","","","","","","","","","feedback_test"
"","","","","","psychophysics","351","915435","0.0-13.0-0.0-1.0-0.1-0.70","774","","f","","","","","","","","","","","","","key","f","16.6674521739129","768","428","f","true","img/C_ambi40.png","方形","image_first",""
"","","","","","html-keyboard-response","352","915740","0.0-13.0-0.0-1.0-0.1-1.70","null","<span style='color:GreenYellow; font-size: 70px;'>正确! </span>","null","","","","","","","","","","","","","","","","","","","","","","","feedback_test"
"","","","","","psychophysics","353","917785","0.0-13.0-0.0-1.0-0.1-0.71","891","","f","","","","","","","","","","","","","key","f","16.671147540983643","768","428","f","true","img/T_ambi40.png","方形","image_first",""
"","","","","","html-keyboard-response","354","918092","0.0-13.0-0.0-1.0-0.1-1.71","null","<span style='color:GreenYellow; font-size: 70px;'>正确! </span>","null","","","","","","","","","","","","","","","","","","","","","","","feedback_test"
"","","","","","psychophysics","355","919976","0.0-13.0-0.0-1.0-0.1-0.72","732","","f","","","","","","","","","","","","","key","f","16.66767857142882","768","428","f","true","img/S_ambi40.png","三角","image_first",""
"","","","","","html-keyboard-response","356","920292","0.0-13.0-0.0-1.0-0.1-1.72","null","<span style='color:GreenYellow; font-size: 70px;'>正确! </span>","null","","","","","","","","","","","","","","","","","","","","","","","feedback_test"
"","","","","","psychophysics","357","921898","0.0-13.0-0.0-1.0-0.1-0.73","454","","j","","","","","","","","","","","","","key","j","16.667864583333238","768","428","f","false","img/T_ambi40.png","圆形","image_first",""
"","","","","","html-keyboard-response","358","922205","0.0-13.0-0.0-1.0-0.1-1.73","null","<span style='color:red; font-size: 70px;'>错误! </span>","null","","","","","","","","","","","","","","","","","","","","","","","feedback_test"
"","","","","","psychophysics","359","924280","0.0-13.0-0.0-1.0-0.1-0.74","918","","f","","","","","","","","","","","","","key","f","16.669249999999714","768","428","j","false","img/C_ambi40.png","圆形","image_first",""
"","","","","","html-keyboard-response","360","924595","0.0-13.0-0.0-1.0-0.1-1.74","null","<span style='color:red; font-size: 70px;'>错误! </span>","null","","","","","","","","","","","","","","","","","","","","","","","feedback_test"
"","","","","","psychophysics","361","926584","0.0-13.0-0.0-1.0-0.1-0.75","823","","f","","","","","","","","","","","","","key","f","16.66388135593211","768","428","f","true","img/C_ambi40.png","三角","image_first",""
"","","","","","html-keyboard-response","362","926904","0.0-13.0-0.0-1.0-0.1-1.75","null","<span style='color:GreenYellow; font-size: 70px;'>正确! </span>","null","","","","","","","","","","","","","","","","","","","","","","","feedback_test"
"","","","","","psychophysics","363","928977","0.0-13.0-0.0-1.0-0.1-0.76","917","","f","","","","","","","","","","","","","key","f","16.666219512195653","768","428","f","true","img/C_ambi40.png","方形","image_first",""
"","","","","","html-keyboard-response","364","929284","0.0-13.0-0.0-1.0-0.1-1.76","null","<span style='color:GreenYellow; font-size: 70px;'>正确! </span>","null","","","","","","","","","","","","","","","","","","","","","","","feedback_test"
"","","","","","psychophysics","365","931289","0.0-13.0-0.0-1.0-0.1-0.77","845","","j","","","","","","","","","","","","","key","j","16.664411764705413","768","428","j","true","img/C_ambi40.png","圆形","image_first",""
"","","","","","html-keyboard-response","366","931596","0.0-13.0-0.0-1.0-0.1-1.77","null","<span style='color:GreenYellow; font-size: 70px;'>正确! </span>","null","","","","","","","","","","","","","","","","","","","","","","","feedback_test"
"","","","","","psychophysics","367","933984","0.0-13.0-0.0-1.0-0.1-0.78","1236","","f","","","","","","","","","","","","","key","f","16.66714084506999","768","428","f","true","img/S_ambi40.png","圆形","image_first",""
"","","","","","html-keyboard-response","368","934291","0.0-13.0-0.0-1.0-0.1-1.78","null","<span style='color:GreenYellow; font-size: 70px;'>正确! </span>","null","","","","","","","","","","","","","","","","","","","","","","","feedback_test"
"","","","","","psychophysics","369","936017","0.0-13.0-0.0-1.0-0.1-0.79","573","","j","","","","","","","","","","","","","key","j","16.672320388349053","768","428","j","true","img/S_ambi40.png","方形","image_first",""
"","","","","","html-keyboard-response","370","936320","0.0-13.0-0.0-1.0-0.1-1.79","null","<span style='color:GreenYellow; font-size: 70px;'>正确! </span>","null","","","","","","","","","","","","","","","","","","","","","","","feedback_test"
"","","","","","psychophysics","371","938070","0.0-13.0-0.0-1.0-0.1-0.80","593","","j","","","","","","","","","","","","","key","j","16.665259615384947","768","428","j","true","img/T_ambi40.png","三角","image_first",""
"","","","","","html-keyboard-response","372","938379","0.0-13.0-0.0-1.0-0.1-1.80","null","<span style='color:GreenYellow; font-size: 70px;'>正确! </span>","null","","","","","","","","","","","","","","","","","","","","","","","feedback_test"
"","","","","","psychophysics","373","940006","0.0-13.0-0.0-1.0-0.1-0.81","462","","j","","","","","","","","","","","","","key","j","16.668177083332314","768","428","j","true","img/T_ambi40.png","三角","image_first",""
"","","","","","html-keyboard-response","374","940315","0.0-13.0-0.0-1.0-0.1-1.81","null","<span style='color:GreenYellow; font-size: 70px;'>正确! </span>","null","","","","","","","","","","","","","","","","","","","","","","","feedback_test"
"","","","","","psychophysics","375","942224","0.0-13.0-0.0-1.0-0.1-0.82","755","","f","","","","","","","","","","","","","key","f","16.666168141592937","768","428","f","true","img/T_ambi40.png","方形","image_first",""
"","","","","","html-keyboard-response","376","942525","0.0-13.0-0.0-1.0-0.1-1.82","null","<span style='color:GreenYellow; font-size: 70px;'>正确! </span>","null","","","","","","","","","","","","","","","","","","","","","","","feedback_test"
"","","","","","psychophysics","377","944426","0.0-13.0-0.0-1.0-0.1-0.83","748","","j","","","","","","","","","","","","","key","j","16.66760176991162","768","428","j","true","img/S_ambi40.png","方形","image_first",""
"","","","","","html-keyboard-response","378","944732","0.0-13.0-0.0-1.0-0.1-1.83","null","<span style='color:GreenYellow; font-size: 70px;'>正确! </span>","null","","","","","","","","","","","","","","","","","","","","","","","feedback_test"
"","","","","","psychophysics","379","947395","0.0-13.0-0.0-1.0-0.1-0.84","null","","null","","","","","","","","","","","","","key","null","16.6681012658224","768","428","j","false","img/C_ambi40.png","圆形","image_first",""
"","","","","","html-keyboard-response","380","947709","0.0-13.0-0.0-1.0-0.1-1.84","null","<span class='add_' style='color:yellow; font-size: 70px;'> 太慢! </span>","null","","","","","","","","","","","","","","","","","","","","","","","feedback_test"
"","","","","","psychophysics","381","949304","0.0-13.0-0.0-1.0-0.1-0.85","441","","j","","","","","","","","","","","","","key","j","16.668400000000226","768","428","j","true","img/C_ambi40.png","圆形","image_first",""
"","","","","","html-keyboard-response","382","949611","0.0-13.0-0.0-1.0-0.1-1.85","null","<span style='color:GreenYellow; font-size: 70px;'>正确! </span>","null","","","","","","","","","","","","","","","","","","","","","","","feedback_test"
"","","","","","psychophysics","383","951535","0.0-13.0-0.0-1.0-0.1-0.86","774","","j","","","","","","","","","","","","","key","j","16.665052631578874","768","428","j","true","img/S_ambi40.png","方形","image_first",""
"","","","","","html-keyboard-response","384","951845","0.0-13.0-0.0-1.0-0.1-1.86","null","<span style='color:GreenYellow; font-size: 70px;'>正确! </span>","null","","","","","","","","","","","","","","","","","","","","","","","feedback_test"
"","","","","","psychophysics","385","953722","0.0-13.0-0.0-1.0-0.1-0.87","727","","j","","","","","","","","","","","","","key","j","16.669482142856786","768","428","j","true","img/S_ambi40.png","方形","image_first",""
"","","","","","html-keyboard-response","386","954029","0.0-13.0-0.0-1.0-0.1-1.87","null","<span style='color:GreenYellow; font-size: 70px;'>正确! </span>","null","","","","","","","","","","","","","","","","","","","","","","","feedback_test"
"","","","","","psychophysics","387","955873","0.0-13.0-0.0-1.0-0.1-0.88","693","","f","","","","","","","","","","","","","key","f","16.66766055045893","768","428","f","true","img/S_ambi40.png","三角","image_first",""
"","","","","","html-keyboard-response","388","956181","0.0-13.0-0.0-1.0-0.1-1.88","null","<span style='color:GreenYellow; font-size: 70px;'>正确! </span>","null","","","","","","","","","","","","","","","","","","","","","","","feedback_test"
"","","","","","psychophysics","389","957953","0.0-13.0-0.0-1.0-0.1-0.89","610","","j","","","","","","","","","","","","","key","j","16.66654285714252","768","428","j","true","img/T_ambi40.png","三角","image_first",""
"","","","","","html-keyboard-response","390","958260","0.0-13.0-0.0-1.0-0.1-1.89","null","<span style='color:GreenYellow; font-size: 70px;'>正确! </span>","null","","","","","","","","","","","","","","","","","","","","","","","feedback_test"
"","","","","","psychophysics","391","960053","0.0-13.0-0.0-1.0-0.1-0.90","640","","f","","","","","","","","","","","","","key","f","16.667336448597304","768","428","f","true","img/T_ambi40.png","方形","image_first",""
"","","","","","html-keyboard-response","392","960355","0.0-13.0-0.0-1.0-0.1-1.90","null","<span style='color:GreenYellow; font-size: 70px;'>正确! </span>","null","","","","","","","","","","","","","","","","","","","","","","","feedback_test"
"","","","","","psychophysics","393","962374","0.0-13.0-0.0-1.0-0.1-0.91","866","","j","","","","","","","","","","","","","key","j","16.668883333332875","768","428","j","true","img/T_ambi40.png","三角","image_first",""
"","","","","","html-keyboard-response","394","962675","0.0-13.0-0.0-1.0-0.1-1.91","null","<span style='color:GreenYellow; font-size: 70px;'>正确! </span>","null","","","","","","","","","","","","","","","","","","","","","","","feedback_test"
"","","","","","psychophysics","395","964687","0.0-13.0-0.0-1.0-0.1-0.92","860","","f","","","","","","","","","","","","","key","f","16.667216666667567","768","428","f","true","img/C_ambi40.png","方形","image_first",""
"","","","","","html-keyboard-response","396","964994","0.0-13.0-0.0-1.0-0.1-1.92","null","<span style='color:GreenYellow; font-size: 70px;'>正确! </span>","null","","","","","","","","","","","","","","","","","","","","","","","feedback_test"
"","","","","","psychophysics","397","967304","0.0-13.0-0.0-1.0-0.1-0.93","1158","","f","","","","","","","","","","","","","key","f","16.67081884057953","768","428","f","true","img/C_ambi40.png","三角","image_first",""
"","","","","","html-keyboard-response","398","967612","0.0-13.0-0.0-1.0-0.1-1.93","null","<span style='color:GreenYellow; font-size: 70px;'>正确! </span>","null","","","","","","","","","","","","","","","","","","","","","","","feedback_test"
"","","","","","psychophysics","399","969590","0.0-13.0-0.0-1.0-0.1-0.94","826","","f","","","","","","","","","","","","","key","f","16.671145299146087","768","428","f","true","img/S_ambi40.png","圆形","image_first",""
"","","","","","html-keyboard-response","400","969894","0.0-13.0-0.0-1.0-0.1-1.94","null","<span style='color:GreenYellow; font-size: 70px;'>正确! </span>","null","","","","","","","","","","","","","","","","","","","","","","","feedback_test"
"","","","","","psychophysics","401","971546","0.0-13.0-0.0-1.0-0.1-0.95","499","","j","","","","","","","","","","","","","key","j","16.66827551020447","768","428","f","false","img/T_ambi40.png","圆形","image_first",""
"","","","","","html-keyboard-response","402","971852","0.0-13.0-0.0-1.0-0.1-1.95","null","<span style='color:red; font-size: 70px;'>错误! </span>","null","","","","","","","","","","","","","","","","","","","","","","","feedback_test"
"","","","","","psychophysics","403","973672","0.0-13.0-0.0-1.0-0.1-0.96","660","","f","","","","","","","","","","","","","key","f","16.667166666666702","768","428","f","true","img/T_ambi40.png","方形","image_first",""
"","","","","","html-keyboard-response","404","973980","0.0-13.0-0.0-1.0-0.1-1.96","null","<span style='color:GreenYellow; font-size: 70px;'>正确! </span>","null","","","","","","","","","","","","","","","","","","","","","","","feedback_test"
"","","","","","psychophysics","405","975753","0.0-13.0-0.0-1.0-0.1-0.97","618","","j","","","","","","","","","","","","","key","j","16.66896190476227","768","428","j","true","img/T_ambi40.png","三角","image_first",""
"","","","","","html-keyboard-response","406","976059","0.0-13.0-0.0-1.0-0.1-1.97","null","<span style='color:GreenYellow; font-size: 70px;'>正确! </span>","null","","","","","","","","","","","","","","","","","","","","","","","feedback_test"
"","","","","","psychophysics","407","978388","0.0-13.0-0.0-1.0-0.1-0.98","1174","","j","","","","","","","","","","","","","key","j","16.669942446042977","768","428","j","true","img/C_ambi40.png","圆形","image_first",""
"","","","","","html-keyboard-response","408","978693","0.0-13.0-0.0-1.0-0.1-1.98","null","<span style='color:GreenYellow; font-size: 70px;'>正确! </span>","null","","","","","","","","","","","","","","","","","","","","","","","feedback_test"
"","","","","","psychophysics","409","980509","0.0-13.0-0.0-1.0-0.1-0.99","663","","j","","","","","","","","","","","","","key","j","16.67180555555603","768","428","j","true","img/C_ambi40.png","圆形","image_first",""
"","","","","","html-keyboard-response","410","980812","0.0-13.0-0.0-1.0-0.1-1.99","null","<span style='color:GreenYellow; font-size: 70px;'>正确! </span>","null","","","","","","","","","","","","","","","","","","","","","","","feedback_test"
"","","","","","psychophysics","411","982723","0.0-13.0-0.0-1.0-0.1-0.100","759","","f","","","","","","","","","","","","","key","f","16.66755263157916","768","428","f","true","img/S_ambi40.png","三角","image_first",""
"","","","","","html-keyboard-response","412","983031","0.0-13.0-0.0-1.0-0.1-1.100","null","<span style='color:GreenYellow; font-size: 70px;'>正确! </span>","null","","","","","","","","","","","","","","","","","","","","","","","feedback_test"
"","","","","","psychophysics","413","984955","0.0-13.0-0.0-1.0-0.1-0.101","758","","f","","","","","","","","","","","","","key","f","16.6706842105272","768","428","f","true","img/T_ambi40.png","圆形","image_first",""
"","","","","","html-keyboard-response","414","985261","0.0-13.0-0.0-1.0-0.1-1.101","null","<span style='color:GreenYellow; font-size: 70px;'>正确! </span>","null","","","","","","","","","","","","","","","","","","","","","","","feedback_test"
"","","","","","psychophysics","415","987224","0.0-13.0-0.0-1.0-0.1-0.102","810","","j","","","","","","","","","","","","","key","j","16.671427350427606","768","428","j","true","img/S_ambi40.png","方形","image_first",""
"","","","","","html-keyboard-response","416","987539","0.0-13.0-0.0-1.0-0.1-1.102","null","<span style='color:GreenYellow; font-size: 70px;'>正确! </span>","null","","","","","","","","","","","","","","","","","","","","","","","feedback_test"
"","","","","","psychophysics","417","989578","0.0-13.0-0.0-1.0-0.1-0.103","882","","f","","","","","","","","","","","","","key","f","16.666917355372263","768","428","f","true","img/C_ambi40.png","方形","image_first",""
"","","","","","html-keyboard-response","418","989897","0.0-13.0-0.0-1.0-0.1-1.103","null","<span style='color:GreenYellow; font-size: 70px;'>正确! </span>","null","","","","","","","","","","","","","","","","","","","","","","","feedback_test"
"","","","","","psychophysics","419","991555","0.0-13.0-0.0-1.0-0.1-0.104","507","","j","","","","","","","","","","","","","key","j","16.670602040815556","768","428","j","true","img/T_ambi40.png","三角","image_first",""
"","","","","","html-keyboard-response","420","991868","0.0-13.0-0.0-1.0-0.1-1.104","null","<span style='color:GreenYellow; font-size: 70px;'>正确! </span>","null","","","","","","","","","","","","","","","","","","","","","","","feedback_test"
"","","","","","psychophysics","421","994140","0.0-13.0-0.0-1.0-0.1-0.105","1114","","j","","","","","","","","","","","","","key","j","16.669318518518573","768","428","j","true","img/S_ambi40.png","方形","image_first",""
"","","","","","html-keyboard-response","422","994444","0.0-13.0-0.0-1.0-0.1-1.105","null","<span style='color:GreenYellow; font-size: 70px;'>正确! </span>","null","","","","","","","","","","","","","","","","","","","","","","","feedback_test"
"","","","","","psychophysics","423","996229","0.0-13.0-0.0-1.0-0.1-0.106","630","","f","","","","","","","","","","","","","key","f","16.667773584905518","768","428","f","true","img/C_ambi40.png","三角","image_first",""
"","","","","","html-keyboard-response","424","996532","0.0-13.0-0.0-1.0-0.1-1.106","null","<span style='color:GreenYellow; font-size: 70px;'>正确! </span>","null","","","","","","","","","","","","","","","","","","","","","","","feedback_test"
"","","","","","psychophysics","425","998550","0.0-13.0-0.0-1.0-0.1-0.107","867","","f","","","","","","","","","","","","","key","f","16.666391666666218","768","428","f","true","img/S_ambi40.png","圆形","image_first",""
"","","","","","html-keyboard-response","426","998857","0.0-13.0-0.0-1.0-0.1-1.107","null","<span style='color:GreenYellow; font-size: 70px;'>正确! </span>","null","","","","","","","","","","","","","","","","","","","","","","","feedback_test"
"","","","","","psychophysics","427","1000827","0.0-13.0-0.0-1.0-0.1-0.108","811","","f","","","","","","","","","","","","","key","f","16.66758119658185","768","428","j","false","img/C_ambi40.png","圆形","image_first",""
"","","","","","html-keyboard-response","428","1001134","0.0-13.0-0.0-1.0-0.1-1.108","null","<span style='color:red; font-size: 70px;'>错误! </span>","null","","","","","","","","","","","","","","","","","","","","","","","feedback_test"
"","","","","","psychophysics","429","1003009","0.0-13.0-0.0-1.0-0.1-0.109","710","","f","","","","","","","","","","","","","key","f","16.669846846846873","768","428","f","true","img/T_ambi40.png","方形","image_first",""
"","","","","","html-keyboard-response","430","1003331","0.0-13.0-0.0-1.0-0.1-1.109","null","<span style='color:GreenYellow; font-size: 70px;'>正确! </span>","null","","","","","","","","","","","","","","","","","","","","","","","feedback_test"
"","","","","","psychophysics","431","1005133","0.0-13.0-0.0-1.0-0.1-0.110","651","","j","","","","","","","","","","","","","key","j","16.668355140186602","768","428","j","true","img/S_ambi40.png","方形","image_first",""
"","","","","","html-keyboard-response","432","1005436","0.0-13.0-0.0-1.0-0.1-1.110","null","<span style='color:GreenYellow; font-size: 70px;'>正确! </span>","null","","","","","","","","","","","","","","","","","","","","","","","feedback_test"
