"success","timeout","failed_images","failed_audio","failed_video","trial_type","trial_index","time_elapsed","internal_node_id","rt","stimulus","response","value","item_width_mm","item_height_mm","item_width_px","px2mm","view_dist_mm","item_width_deg","px2deg","scale_factor","win_width_deg","win_height_deg","view_history","response_type","key_press","avg_frame_time","center_x","center_y","correct_response","correct","Image","word","condition","screen_id"
"true","false","[]","[]","[]","preload","0","413","0.0-0.0","","","","","","","","","","","","","","","","","","","","","","","","","",""
"","","","","","html-keyboard-response","1","23382","0.0-1.0","22969","
   <p>您好，欢迎参加本次实验。</p>
   <p>为充分保障您的权利，请确保您已经知晓并同意《参与实验同意书》以及《数据公开知情同意书》。</p>
   <p>如果您未见过上述内容，请咨询实验员。</p>
   <p>如果您选择继续实验，则表示您已经清楚两份知情同意书的内容并同意。</p>
   <p> <div style = ""color: green""><按任意键至下页></div> </p>
   ","audiovolumedown","","","","","","","","","","","","","","","","","","","","","","",""
"","","","","","html-keyboard-response","2","53698","0.0-2.0","30315","
   <p>本实验首先需要您填写一些基本个人信息。</p>
   <p> <div style = ""color: green""><按任意键至下页></div></p>
   ","audiovolumedown","","","","","","","","","","","","","","","","","","","","","","",""
"","","","","","call-function","3","53698","0.0-3.0-0.0","","","","","","","","","","","","","","","","","","","","","","","","","",""
"","","","","","survey-html-form","4","84078","0.0-3.0-1.0","30378","","{""Q0"":""23""}","","","","","","","","","","","","","","","","","","","","","","",""
"","","","","","html-button-response","5","87820","0.0-3.0-2.0","3740","<p style = 'color : white'>您的性别</p>","1","","","","","","","","","","","","","","","","","","","","","","",""
"","","","","","survey-html-form","6","96093","0.0-3.0-3.0","8272","","{""Q0"":""2003""}","","","","","","","","","","","","","","","","","","","","","","",""
"","","","","","survey-html-form","7","101800","0.0-3.0-4.0","5706","","{""Q0"":""5""}","","","","","","","","","","","","","","","","","","","","","","",""
"","","","","","virtual-chinrest","8","289244","0.0-4.0","187443","","","","85.6","53.98","421.5314808816103","4.925262566090394","580.7","8.430629617632206","50","0.9014747823940706","25.5","14.22","","","","","","","","","","","",""
"true","","","","","fullscreen","9","293722","0.0-5.0","","","","","","","","","","","","","","","","","","","","","","","","","",""
"","","","","","instructions","10","339843","0.0-6.0","46121","","","","","","","","","","","","","","[{""page_index"":0,""viewing_time"":4654},{""page_index"":1,""viewing_time"":31221},{""page_index"":2,""viewing_time"":6834},{""page_index"":3,""viewing_time"":3411}]","","","","","","","","","","",""
"","","","","","psychophysics","11","341613","0.0-7.0-0.0-0.0","615","","j","","","","","","","","","","","","","key","j","11.110797468354392","660.779796278986","408.94494160549533","j","true","img/C_ambi40.png","圆形","prac_image_first",""
"","","","","","html-keyboard-response","12","341916","0.0-7.0-0.0-1.0","null","<span style='color:GreenYellow; font-size: 70px;'>正确! </span>","null","","","","","","","","","","","","","","","","","","","","","","","feedback_test"
"","","","","","psychophysics","13","343736","0.0-7.0-0.0-0.1","667","","j","","","","","","","","","","","","","key","j","11.110932098765552","660.779796278986","408.94494160549533","j","true","img/T_ambi40.png","三角","prac_image_first",""
"","","","","","html-keyboard-response","14","344047","0.0-7.0-0.0-1.1","null","<span style='color:GreenYellow; font-size: 70px;'>正确! </span>","null","","","","","","","","","","","","","","","","","","","","","","","feedback_test"
"","","","","","psychophysics","15","346110","0.0-7.0-0.0-0.2","907","","f","","","","","","","","","","","","","key","f","11.11089673913027","660.779796278986","408.94494160549533","f","true","img/S_ambi40.png","圆形","prac_image_first",""
"","","","","","html-keyboard-response","16","346425","0.0-7.0-0.0-1.2","null","<span style='color:GreenYellow; font-size: 70px;'>正确! </span>","null","","","","","","","","","","","","","","","","","","","","","","","feedback_test"
"","","","","","psychophysics","17","348439","0.0-7.0-0.0-0.3","859","","j","","","","","","","","","","","","","key","j","11.110861111111202","660.779796278986","408.94494160549533","f","false","img/C_ambi40.png","方形","prac_image_first",""
"","","","","","html-keyboard-response","18","348747","0.0-7.0-0.0-1.3","null","<span style='color:red; font-size: 70px;'>错误! </span>","null","","","","","","","","","","","","","","","","","","","","","","","feedback_test"
"","","","","","psychophysics","19","350697","0.0-7.0-0.0-0.4","798","","j","","","","","","","","","","","","","key","j","11.111063218390871","660.779796278986","408.94494160549533","j","true","img/T_ambi40.png","三角","prac_image_first",""
"","","","","","html-keyboard-response","20","351008","0.0-7.0-0.0-1.4","null","<span style='color:GreenYellow; font-size: 70px;'>正确! </span>","null","","","","","","","","","","","","","","","","","","","","","","","feedback_test"
"","","","","","psychophysics","21","353055","0.0-7.0-0.0-0.5","897","","j","","","","","","","","","","","","","key","j","11.110863387978144","660.779796278986","408.94494160549533","j","true","img/S_ambi40.png","方形","prac_image_first",""
"","","","","","html-keyboard-response","22","353357","0.0-7.0-0.0-1.5","null","<span style='color:GreenYellow; font-size: 70px;'>正确! </span>","null","","","","","","","","","","","","","","","","","","","","","","","feedback_test"
"","","","","","psychophysics","23","355229","0.0-7.0-0.0-0.6","720","","f","","","","","","","","","","","","","key","f","11.094155688623028","660.779796278986","408.94494160549533","f","true","img/S_ambi40.png","三角","prac_image_first",""
"","","","","","html-keyboard-response","24","355536","0.0-7.0-0.0-1.6","null","<span style='color:GreenYellow; font-size: 70px;'>正确! </span>","null","","","","","","","","","","","","","","","","","","","","","","","feedback_test"
"","","","","","psychophysics","25","357408","0.0-7.0-0.0-0.7","717","","f","","","","","","","","","","","","","key","f","11.111005988023955","660.779796278986","408.94494160549533","f","true","img/T_ambi40.png","方形","prac_image_first",""
"","","","","","html-keyboard-response","26","357722","0.0-7.0-0.0-1.7","null","<span style='color:GreenYellow; font-size: 70px;'>正确! </span>","null","","","","","","","","","","","","","","","","","","","","","","","feedback_test"
"","","","","","psychophysics","27","359986","0.0-7.0-0.0-0.8","1112","","j","","","","","","","","","","","","","key","j","11.11081280788175","660.779796278986","408.94494160549533","j","true","img/S_ambi40.png","方形","prac_image_first",""
"","","","","","html-keyboard-response","28","360288","0.0-7.0-0.0-1.8","null","<span style='color:GreenYellow; font-size: 70px;'>正确! </span>","null","","","","","","","","","","","","","","","","","","","","","","","feedback_test"
"","","","","","psychophysics","29","362215","0.0-7.0-0.0-0.9","772","","j","","","","","","","","","","","","","key","j","11.111046242774625","660.779796278986","408.94494160549533","j","true","img/C_ambi40.png","圆形","prac_image_first",""
"","","","","","html-keyboard-response","30","362529","0.0-7.0-0.0-1.9","null","<span style='color:GreenYellow; font-size: 70px;'>正确! </span>","null","","","","","","","","","","","","","","","","","","","","","","","feedback_test"
"","","","","","psychophysics","31","364367","0.0-7.0-0.0-0.10","688","","f","","","","","","","","","","","","","key","f","11.111158536585608","660.779796278986","408.94494160549533","f","true","img/T_ambi40.png","圆形","prac_image_first",""
"","","","","","html-keyboard-response","32","364677","0.0-7.0-0.0-1.10","null","<span style='color:GreenYellow; font-size: 70px;'>正确! </span>","null","","","","","","","","","","","","","","","","","","","","","","","feedback_test"
"","","","","","psychophysics","33","366571","0.0-7.0-0.0-0.11","743","","f","","","","","","","","","","","","","key","f","11.110894117647138","660.779796278986","408.94494160549533","f","true","img/C_ambi40.png","三角","prac_image_first",""
"","","","","","html-keyboard-response","34","366877","0.0-7.0-0.0-1.11","null","<span style='color:GreenYellow; font-size: 70px;'>正确! </span>","null","","","","","","","","","","","","","","","","","","","","","","","feedback_test"
"","","","","","psychophysics","35","368834","0.0-7.0-0.0-0.12","799","","j","","","","","","","","","","","","","key","j","11.110902857143167","660.779796278986","408.94494160549533","j","true","img/C_ambi40.png","圆形","prac_image_first",""
"","","","","","html-keyboard-response","36","369136","0.0-7.0-0.0-1.12","null","<span style='color:GreenYellow; font-size: 70px;'>正确! </span>","null","","","","","","","","","","","","","","","","","","","","","","","feedback_test"
"","","","","","psychophysics","37","370948","0.0-7.0-0.0-0.13","657","","f","","","","","","","","","","","","","key","f","11.110907407407433","660.779796278986","408.94494160549533","f","true","img/T_ambi40.png","圆形","prac_image_first",""
"","","","","","html-keyboard-response","38","371256","0.0-7.0-0.0-1.13","null","<span style='color:GreenYellow; font-size: 70px;'>正确! </span>","null","","","","","","","","","","","","","","","","","","","","","","","feedback_test"
"","","","","","psychophysics","39","373083","0.0-7.0-0.0-0.14","675","","j","","","","","","","","","","","","","key","j","11.110835365853811","660.779796278986","408.94494160549533","j","true","img/T_ambi40.png","三角","prac_image_first",""
"","","","","","html-keyboard-response","40","373385","0.0-7.0-0.0-1.14","null","<span style='color:GreenYellow; font-size: 70px;'>正确! </span>","null","","","","","","","","","","","","","","","","","","","","","","","feedback_test"
"","","","","","psychophysics","41","375462","0.0-7.0-0.0-0.15","926","","j","","","","","","","","","","","","","key","j","11.11085483870971","660.779796278986","408.94494160549533","j","true","img/S_ambi40.png","方形","prac_image_first",""
"","","","","","html-keyboard-response","42","375769","0.0-7.0-0.0-1.15","null","<span style='color:GreenYellow; font-size: 70px;'>正确! </span>","null","","","","","","","","","","","","","","","","","","","","","","","feedback_test"
"","","","","","psychophysics","43","377604","0.0-7.0-0.0-0.16","679","","f","","","","","","","","","","","","","key","f","11.110871951219629","660.779796278986","408.94494160549533","f","true","img/C_ambi40.png","三角","prac_image_first",""
"","","","","","html-keyboard-response","44","377908","0.0-7.0-0.0-1.16","null","<span style='color:GreenYellow; font-size: 70px;'>正确! </span>","null","","","","","","","","","","","","","","","","","","","","","","","feedback_test"
"","","","","","psychophysics","45","379683","0.0-7.0-0.0-0.17","614","","j","","","","","","","","","","","","","key","j","11.110974842767412","660.779796278986","408.94494160549533","j","true","img/T_ambi40.png","三角","prac_image_first",""
"","","","","","html-keyboard-response","46","379990","0.0-7.0-0.0-1.17","null","<span style='color:GreenYellow; font-size: 70px;'>正确! </span>","null","","","","","","","","","","","","","","","","","","","","","","","feedback_test"
"","","","","","psychophysics","47","381751","0.0-7.0-0.0-0.18","610","","j","","","","","","","","","","","","","key","j","11.085585987260995","660.779796278986","408.94494160549533","j","true","img/C_ambi40.png","圆形","prac_image_first",""
"","","","","","html-keyboard-response","48","382060","0.0-7.0-0.0-1.18","null","<span style='color:GreenYellow; font-size: 70px;'>正确! </span>","null","","","","","","","","","","","","","","","","","","","","","","","feedback_test"
"","","","","","psychophysics","49","383981","0.0-7.0-0.0-0.19","767","","f","","","","","","","","","","","","","key","f","11.111412790697678","660.779796278986","408.94494160549533","f","true","img/C_ambi40.png","方形","prac_image_first",""
"","","","","","html-keyboard-response","50","384295","0.0-7.0-0.0-1.19","null","<span style='color:GreenYellow; font-size: 70px;'>正确! </span>","null","","","","","","","","","","","","","","","","","","","","","","","feedback_test"
"","","","","","psychophysics","51","386419","0.0-7.0-0.0-0.20","973","","j","","","","","","","","","","","","","key","j","11.110836842105307","660.779796278986","408.94494160549533","f","false","img/S_ambi40.png","圆形","prac_image_first",""
"","","","","","html-keyboard-response","52","386727","0.0-7.0-0.0-1.20","null","<span style='color:red; font-size: 70px;'>错误! </span>","null","","","","","","","","","","","","","","","","","","","","","","","feedback_test"
"","","","","","psychophysics","53","388837","0.0-7.0-0.0-0.21","956","","j","","","","","","","","","","","","","key","j","11.11097354497348","660.779796278986","408.94494160549533","f","false","img/T_ambi40.png","方形","prac_image_first",""
"","","","","","html-keyboard-response","54","389142","0.0-7.0-0.0-1.21","null","<span style='color:red; font-size: 70px;'>错误! </span>","null","","","","","","","","","","","","","","","","","","","","","","","feedback_test"
"","","","","","psychophysics","55","391186","0.0-7.0-0.0-0.22","893","","f","","","","","","","","","","","","","key","f","11.11104918032779","660.779796278986","408.94494160549533","f","true","img/S_ambi40.png","三角","prac_image_first",""
"","","","","","html-keyboard-response","56","391498","0.0-7.0-0.0-1.22","null","<span style='color:GreenYellow; font-size: 70px;'>正确! </span>","null","","","","","","","","","","","","","","","","","","","","","","","feedback_test"
"","","","","","psychophysics","57","393574","0.0-7.0-0.0-0.23","916","","j","","","","","","","","","","","","","key","j","11.110860215053739","660.779796278986","408.94494160549533","j","true","img/S_ambi40.png","方形","prac_image_first",""
"","","","","","html-keyboard-response","58","393884","0.0-7.0-0.0-1.23","null","<span style='color:GreenYellow; font-size: 70px;'>正确! </span>","null","","","","","","","","","","","","","","","","","","","","","","","feedback_test"
"","","","","","html-keyboard-response","59","404433","0.0-8.0","10547","<style>.context{color:white; font-size: 35px; line-height:40px}</style>                            <div><p class='context'>您正确回答了88% 的试次。</p><p class='context'>您的平均反应时为770毫秒。</p><p class='context'>恭喜您完成这一阶段的练习。按任意键进入<span style='color: yellow;'>先文字后图形条件</span>的练习。</p></div>"," ","","","","","","","","","","","","","","","","","","","","","","",""
"","","","","","psychophysics","60","406465","0.0-9.0-0.0-0.0","874","","f","","","","","","","","","","","","","key","f","11.110901098901145","660.779796278986","408.94494160549533","j","false","img/C_ambi40.png","圆形","prac_word_first",""
"","","","","","html-keyboard-response","61","406768","0.0-9.0-0.0-1.0","null","<span style='color:red; font-size: 70px;'>错误! </span>","null","","","","","","","","","","","","","","","","","","","","","","","feedback_test"
"","","","","","psychophysics","62","408609","0.0-9.0-0.0-0.1","684","","f","","","","","","","","","","","","","key","f","11.084506097560956","660.779796278986","408.94494160549533","f","true","img/C_ambi40.png","三角","prac_word_first",""
"","","","","","html-keyboard-response","63","408917","0.0-9.0-0.0-1.1","null","<span style='color:GreenYellow; font-size: 70px;'>正确! </span>","null","","","","","","","","","","","","","","","","","","","","","","","feedback_test"
"","","","","","psychophysics","64","411368","0.0-9.0-0.0-0.2","1299","","j","","","","","","","","","","","","","key","j","11.110968036529796","660.779796278986","408.94494160549533","j","true","img/T_ambi40.png","三角","prac_word_first",""
"","","","","","html-keyboard-response","65","411674","0.0-9.0-0.0-1.2","null","<span style='color:GreenYellow; font-size: 70px;'>正确! </span>","null","","","","","","","","","","","","","","","","","","","","","","","feedback_test"
"","","","","","psychophysics","66","413585","0.0-9.0-0.0-0.3","761","","f","","","","","","","","","","","","","key","f","11.110964912280565","660.779796278986","408.94494160549533","f","true","img/T_ambi40.png","圆形","prac_word_first",""
"","","","","","html-keyboard-response","67","413894","0.0-9.0-0.0-1.3","null","<span style='color:GreenYellow; font-size: 70px;'>正确! </span>","null","","","","","","","","","","","","","","","","","","","","","","","feedback_test"
"","","","","","psychophysics","68","415780","0.0-9.0-0.0-0.4","733","","j","","","","","","","","","","","","","key","j","11.110958333333006","660.779796278986","408.94494160549533","j","true","img/S_ambi40.png","方形","prac_word_first",""
"","","","","","html-keyboard-response","69","416090","0.0-9.0-0.0-1.4","null","<span style='color:GreenYellow; font-size: 70px;'>正确! </span>","null","","","","","","","","","","","","","","","","","","","","","","","feedback_test"
"","","","","","psychophysics","70","417867","0.0-9.0-0.0-0.5","621","","f","","","","","","","","","","","","","key","f","11.090987341772085","660.779796278986","408.94494160549533","f","true","img/C_ambi40.png","方形","prac_word_first",""
"","","","","","html-keyboard-response","71","418171","0.0-9.0-0.0-1.5","null","<span style='color:GreenYellow; font-size: 70px;'>正确! </span>","null","","","","","","","","","","","","","","","","","","","","","","","feedback_test"
"","","","","","psychophysics","72","420041","0.0-9.0-0.0-0.6","719","","j","","","","","","","","","","","","","key","j","11.110988023951942","660.779796278986","408.94494160549533","j","true","img/C_ambi40.png","圆形","prac_word_first",""
"","","","","","html-keyboard-response","73","420350","0.0-9.0-0.0-1.6","null","<span style='color:GreenYellow; font-size: 70px;'>正确! </span>","null","","","","","","","","","","","","","","","","","","","","","","","feedback_test"
"","","","","","psychophysics","74","422385","0.0-9.0-0.0-0.7","883","","j","","","","","","","","","","","","","key","j","11.110928571428643","660.779796278986","408.94494160549533","j","true","img/T_ambi40.png","三角","prac_word_first",""
"","","","","","html-keyboard-response","75","422696","0.0-9.0-0.0-1.7","null","<span style='color:GreenYellow; font-size: 70px;'>正确! </span>","null","","","","","","","","","","","","","","","","","","","","","","","feedback_test"
"","","","","","psychophysics","76","424658","0.0-9.0-0.0-0.8","812","","j","","","","","","","","","","","","","key","j","11.110732954545462","660.779796278986","408.94494160549533","j","true","img/S_ambi40.png","方形","prac_word_first",""
"","","","","","html-keyboard-response","77","424966","0.0-9.0-0.0-1.8","null","<span style='color:GreenYellow; font-size: 70px;'>正确! </span>","null","","","","","","","","","","","","","","","","","","","","","","","feedback_test"
"","","","","","psychophysics","78","427103","0.0-9.0-0.0-0.9","983","","f","","","","","","","","","","","","","key","f","11.110958333333352","660.779796278986","408.94494160549533","f","true","img/S_ambi40.png","圆形","prac_word_first",""
"","","","","","html-keyboard-response","79","427413","0.0-9.0-0.0-1.9","null","<span style='color:GreenYellow; font-size: 70px;'>正确! </span>","null","","","","","","","","","","","","","","","","","","","","","","","feedback_test"
"","","","","","psychophysics","80","429105","0.0-9.0-0.0-0.10","538","","j","","","","","","","","","","","","","key","j","11.111079470198586","660.779796278986","408.94494160549533","f","false","img/T_ambi40.png","方形","prac_word_first",""
"","","","","","html-keyboard-response","81","429411","0.0-9.0-0.0-1.10","null","<span style='color:red; font-size: 70px;'>错误! </span>","null","","","","","","","","","","","","","","","","","","","","","","","feedback_test"
"","","","","","psychophysics","82","431608","0.0-9.0-0.0-0.11","1046","","f","","","","","","","","","","","","","key","f","11.110944162436695","660.779796278986","408.94494160549533","f","true","img/S_ambi40.png","三角","prac_word_first",""
"","","","","","html-keyboard-response","83","431916","0.0-9.0-0.0-1.11","null","<span style='color:GreenYellow; font-size: 70px;'>正确! </span>","null","","","","","","","","","","","","","","","","","","","","","","","feedback_test"
"","","","","","psychophysics","84","433742","0.0-9.0-0.0-0.12","674","","f","","","","","","","","","","","","","key","f","11.110840490797786","660.779796278986","408.94494160549533","f","true","img/C_ambi40.png","方形","prac_word_first",""
"","","","","","html-keyboard-response","85","434056","0.0-9.0-0.0-1.12","null","<span style='color:GreenYellow; font-size: 70px;'>正确! </span>","null","","","","","","","","","","","","","","","","","","","","","","","feedback_test"
"","","","","","psychophysics","86","435926","0.0-9.0-0.0-0.13","713","","j","","","","","","","","","","","","","key","j","11.08880239520933","660.779796278986","408.94494160549533","j","true","img/S_ambi40.png","方形","prac_word_first",""
"","","","","","html-keyboard-response","87","436231","0.0-9.0-0.0-1.13","null","<span style='color:GreenYellow; font-size: 70px;'>正确! </span>","null","","","","","","","","","","","","","","","","","","","","","","","feedback_test"
"","","","","","psychophysics","88","437975","0.0-9.0-0.0-0.14","584","","f","","","","","","","","","","","","","key","f","11.111006410256287","660.779796278986","408.94494160549533","f","true","img/T_ambi40.png","圆形","prac_word_first",""
"","","","","","html-keyboard-response","89","438282","0.0-9.0-0.0-1.14","null","<span style='color:GreenYellow; font-size: 70px;'>正确! </span>","null","","","","","","","","","","","","","","","","","","","","","","","feedback_test"
"","","","","","psychophysics","90","440043","0.0-9.0-0.0-0.15","607","","f","","","","","","","","","","","","","key","f","11.110942675159269","660.779796278986","408.94494160549533","f","true","img/T_ambi40.png","方形","prac_word_first",""
"","","","","","html-keyboard-response","91","440345","0.0-9.0-0.0-1.15","null","<span style='color:GreenYellow; font-size: 70px;'>正确! </span>","null","","","","","","","","","","","","","","","","","","","","","","","feedback_test"
"","","","","","psychophysics","92","442141","0.0-9.0-0.0-0.16","642","","j","","","","","","","","","","","","","key","j","11.110608695651932","660.779796278986","408.94494160549533","j","true","img/C_ambi40.png","圆形","prac_word_first",""
"","","","","","html-keyboard-response","93","442444","0.0-9.0-0.0-1.16","null","<span style='color:GreenYellow; font-size: 70px;'>正确! </span>","null","","","","","","","","","","","","","","","","","","","","","","","feedback_test"
"","","","","","psychophysics","94","444195","0.0-9.0-0.0-0.17","595","","j","","","","","","","","","","","","","key","j","11.111171974522465","660.779796278986","408.94494160549533","j","true","img/C_ambi40.png","圆形","prac_word_first",""
"","","","","","html-keyboard-response","95","444499","0.0-9.0-0.0-1.17","null","<span style='color:GreenYellow; font-size: 70px;'>正确! </span>","null","","","","","","","","","","","","","","","","","","","","","","","feedback_test"
"","","","","","psychophysics","96","446320","0.0-9.0-0.0-0.18","667","","j","","","","","","","","","","","","","key","j","11.111202453987664","660.779796278986","408.94494160549533","j","true","img/S_ambi40.png","方形","prac_word_first",""
"","","","","","html-keyboard-response","97","446628","0.0-9.0-0.0-1.18","null","<span style='color:GreenYellow; font-size: 70px;'>正确! </span>","null","","","","","","","","","","","","","","","","","","","","","","","feedback_test"
"","","","","","psychophysics","98","448321","0.0-9.0-0.0-0.19","542","","f","","","","","","","","","","","","","key","f","11.11097350993405","660.779796278986","408.94494160549533","f","true","img/S_ambi40.png","圆形","prac_word_first",""
"","","","","","html-keyboard-response","99","448624","0.0-9.0-0.0-1.19","null","<span style='color:GreenYellow; font-size: 70px;'>正确! </span>","null","","","","","","","","","","","","","","","","","","","","","","","feedback_test"
"","","","","","psychophysics","100","450246","0.0-9.0-0.0-0.20","468","","j","","","","","","","","","","","","","key","j","11.110888888888844","660.779796278986","408.94494160549533","j","true","img/T_ambi40.png","三角","prac_word_first",""
"","","","","","html-keyboard-response","101","450553","0.0-9.0-0.0-1.20","null","<span style='color:GreenYellow; font-size: 70px;'>正确! </span>","null","","","","","","","","","","","","","","","","","","","","","","","feedback_test"
"","","","","","psychophysics","102","452190","0.0-9.0-0.0-0.21","484","","f","","","","","","","","","","","","","key","f","11.110952054794673","660.779796278986","408.94494160549533","f","true","img/C_ambi40.png","三角","prac_word_first",""
"","","","","","html-keyboard-response","103","452493","0.0-9.0-0.0-1.21","null","<span style='color:GreenYellow; font-size: 70px;'>正确! </span>","null","","","","","","","","","","","","","","","","","","","","","","","feedback_test"
"","","","","","psychophysics","104","454253","0.0-9.0-0.0-0.22","608","","f","","","","","","","","","","","","","key","f","11.110923566878848","660.779796278986","408.94494160549533","f","true","img/S_ambi40.png","三角","prac_word_first",""
"","","","","","html-keyboard-response","105","454559","0.0-9.0-0.0-1.22","null","<span style='color:GreenYellow; font-size: 70px;'>正确! </span>","null","","","","","","","","","","","","","","","","","","","","","","","feedback_test"
"","","","","","psychophysics","106","456223","0.0-9.0-0.0-0.23","510","","j","","","","","","","","","","","","","key","j","11.111006756756781","660.779796278986","408.94494160549533","j","true","img/T_ambi40.png","三角","prac_word_first",""
"","","","","","html-keyboard-response","107","456532","0.0-9.0-0.0-1.23","null","<span style='color:GreenYellow; font-size: 70px;'>正确! </span>","null","","","","","","","","","","","","","","","","","","","","","","","feedback_test"
"","","","","","html-keyboard-response","108","463919","0.0-10.0","7385","<style>.context{color:white; font-size: 35px; line-height:40px}</style>                            <div><p class='context'>您正确回答了92% 的试次。</p><p class='context'>您的平均反应时为711毫秒。</p><p class='context'>恭喜您完成练习。按任意键进入<span style='color: yellow;'>图形和文字同时呈现条件</span>的练习。</p></div>"," ","","","","","","","","","","","","","","","","","","","","","","",""
"","","","","","psychophysics","109","466131","0.0-11.0-0.0-0.0","1207","","j","","","","","","","","","","","","","key","j","11.110813131313089","660.779796278986","408.94494160549533","j","true","img/T_ambi40.png","三角","prac_simultaneous",""
"","","","","","html-keyboard-response","110","466441","0.0-11.0-0.0-1.0","null","<span style='color:GreenYellow; font-size: 70px;'>正确! </span>","null","","","","","","","","","","","","","","","","","","","","","","","feedback_test"
"","","","","","psychophysics","111","468409","0.0-11.0-0.0-0.1","964","","j","","","","","","","","","","","","","key","j","11.110914772727318","660.779796278986","408.94494160549533","f","false","img/S_ambi40.png","圆形","prac_simultaneous",""
"","","","","","html-keyboard-response","112","468716","0.0-11.0-0.0-1.1","null","<span style='color:red; font-size: 70px;'>错误! </span>","null","","","","","","","","","","","","","","","","","","","","","","","feedback_test"
"","","","","","psychophysics","113","470608","0.0-11.0-0.0-0.2","884","","f","","","","","","","","","","","","","key","f","11.110822485207054","660.779796278986","408.94494160549533","f","true","img/S_ambi40.png","三角","prac_simultaneous",""
"","","","","","html-keyboard-response","114","470920","0.0-11.0-0.0-1.2","null","<span style='color:GreenYellow; font-size: 70px;'>正确! </span>","null","","","","","","","","","","","","","","","","","","","","","","","feedback_test"
"","","","","","psychophysics","115","472651","0.0-11.0-0.0-0.3","728","","j","","","","","","","","","","","","","key","j","11.110967741935559","660.779796278986","408.94494160549533","j","true","img/T_ambi40.png","三角","prac_simultaneous",""
"","","","","","html-keyboard-response","116","472956","0.0-11.0-0.0-1.3","null","<span style='color:GreenYellow; font-size: 70px;'>正确! </span>","null","","","","","","","","","","","","","","","","","","","","","","","feedback_test"
"","","","","","psychophysics","117","474921","0.0-11.0-0.0-0.4","953","","j","","","","","","","","","","","","","key","j","11.09","660.779796278986","408.94494160549533","j","true","img/S_ambi40.png","方形","prac_simultaneous",""
"","","","","","html-keyboard-response","118","475226","0.0-11.0-0.0-1.4","null","<span style='color:GreenYellow; font-size: 70px;'>正确! </span>","null","","","","","","","","","","","","","","","","","","","","","","","feedback_test"
"","","","","","psychophysics","119","476950","0.0-11.0-0.0-0.5","721","","f","","","","","","","","","","","","","key","f","11.110967532467768","660.779796278986","408.94494160549533","f","true","img/T_ambi40.png","方形","prac_simultaneous",""
"","","","","","html-keyboard-response","120","477257","0.0-11.0-0.0-1.5","null","<span style='color:GreenYellow; font-size: 70px;'>正确! </span>","null","","","","","","","","","","","","","","","","","","","","","","","feedback_test"
"","","","","","psychophysics","121","479018","0.0-11.0-0.0-0.6","761","","f","","","","","","","","","","","","","key","f","11.110885350318377","660.779796278986","408.94494160549533","f","true","img/T_ambi40.png","圆形","prac_simultaneous",""
"","","","","","html-keyboard-response","122","479329","0.0-11.0-0.0-1.6","null","<span style='color:GreenYellow; font-size: 70px;'>正确! </span>","null","","","","","","","","","","","","","","","","","","","","","","","feedback_test"
"","","","","","psychophysics","123","481042","0.0-11.0-0.0-0.7","707","","j","","","","","","","","","","","","","key","j","11.111104575163468","660.779796278986","408.94494160549533","j","true","img/C_ambi40.png","圆形","prac_simultaneous",""
"","","","","","html-keyboard-response","124","481351","0.0-11.0-0.0-1.7","null","<span style='color:GreenYellow; font-size: 70px;'>正确! </span>","null","","","","","","","","","","","","","","","","","","","","","","","feedback_test"
"","","","","","psychophysics","125","483327","0.0-11.0-0.0-0.8","970","","f","","","","","","","","","","","","","key","f","11.110881355932143","660.779796278986","408.94494160549533","f","true","img/C_ambi40.png","三角","prac_simultaneous",""
"","","","","","html-keyboard-response","126","483638","0.0-11.0-0.0-1.8","null","<span style='color:GreenYellow; font-size: 70px;'>正确! </span>","null","","","","","","","","","","","","","","","","","","","","","","","feedback_test"
"","","","","","psychophysics","127","485750","0.0-11.0-0.0-0.9","1105","","j","","","","","","","","","","","","","key","j","11.11098941798949","660.779796278986","408.94494160549533","j","true","img/S_ambi40.png","方形","prac_simultaneous",""
"","","","","","html-keyboard-response","128","486056","0.0-11.0-0.0-1.9","null","<span style='color:GreenYellow; font-size: 70px;'>正确! </span>","null","","","","","","","","","","","","","","","","","","","","","","","feedback_test"
"","","","","","psychophysics","129","487977","0.0-11.0-0.0-0.10","921","","j","","","","","","","","","","","","","key","j","11.088631578947469","660.779796278986","408.94494160549533","j","true","img/C_ambi40.png","圆形","prac_simultaneous",""
"","","","","","html-keyboard-response","130","488283","0.0-11.0-0.0-1.10","null","<span style='color:GreenYellow; font-size: 70px;'>正确! </span>","null","","","","","","","","","","","","","","","","","","","","","","","feedback_test"
"","","","","","psychophysics","131","490156","0.0-11.0-0.0-0.11","866","","f","","","","","","","","","","","","","key","f","11.110880239521261","660.779796278986","408.94494160549533","f","true","img/C_ambi40.png","方形","prac_simultaneous",""
"","","","","","html-keyboard-response","132","490460","0.0-11.0-0.0-1.11","null","<span style='color:GreenYellow; font-size: 70px;'>正确! </span>","null","","","","","","","","","","","","","","","","","","","","","","","feedback_test"
"","","","","","psychophysics","133","492180","0.0-11.0-0.0-0.12","712","","f","","","","","","","","","","","","","key","f","11.111006493506313","660.779796278986","408.94494160549533","f","true","img/C_ambi40.png","三角","prac_simultaneous",""
"","","","","","html-keyboard-response","134","492484","0.0-11.0-0.0-1.12","null","<span style='color:GreenYellow; font-size: 70px;'>正确! </span>","null","","","","","","","","","","","","","","","","","","","","","","","feedback_test"
"","","","","","psychophysics","135","494278","0.0-11.0-0.0-0.13","789","","j","","","","","","","","","","","","","key","j","11.110931250000068","660.779796278986","408.94494160549533","f","false","img/S_ambi40.png","圆形","prac_simultaneous",""
"","","","","","html-keyboard-response","136","494579","0.0-11.0-0.0-1.13","null","<span style='color:red; font-size: 70px;'>错误! </span>","null","","","","","","","","","","","","","","","","","","","","","","","feedback_test"
"","","","","","psychophysics","137","496498","0.0-11.0-0.0-0.14","909","","j","","","","","","","","","","","","","key","j","11.110994152046676","660.779796278986","408.94494160549533","j","true","img/S_ambi40.png","方形","prac_simultaneous",""
"","","","","","html-keyboard-response","138","496800","0.0-11.0-0.0-1.14","null","<span style='color:GreenYellow; font-size: 70px;'>正确! </span>","null","","","","","","","","","","","","","","","","","","","","","","","feedback_test"
"","","","","","psychophysics","139","498521","0.0-11.0-0.0-0.15","720","","j","","","","","","","","","","","","","key","j","11.090300653594717","660.779796278986","408.94494160549533","j","true","img/T_ambi40.png","三角","prac_simultaneous",""
"","","","","","html-keyboard-response","140","498827","0.0-11.0-0.0-1.15","null","<span style='color:GreenYellow; font-size: 70px;'>正确! </span>","null","","","","","","","","","","","","","","","","","","","","","","","feedback_test"
"","","","","","psychophysics","141","500680","0.0-11.0-0.0-0.16","846","","j","","","","","","","","","","","","","key","j","11.111012048192507","660.779796278986","408.94494160549533","j","true","img/S_ambi40.png","方形","prac_simultaneous",""
"","","","","","html-keyboard-response","142","500987","0.0-11.0-0.0-1.16","null","<span style='color:GreenYellow; font-size: 70px;'>正确! </span>","null","","","","","","","","","","","","","","","","","","","","","","","feedback_test"
"","","","","","psychophysics","143","502739","0.0-11.0-0.0-0.17","749","","f","","","","","","","","","","","","","key","f","11.110968152866002","660.779796278986","408.94494160549533","f","true","img/S_ambi40.png","三角","prac_simultaneous",""
"","","","","","html-keyboard-response","144","503043","0.0-11.0-0.0-1.17","null","<span style='color:GreenYellow; font-size: 70px;'>正确! </span>","null","","","","","","","","","","","","","","","","","","","","","","","feedback_test"
"","","","","","psychophysics","145","505182","0.0-11.0-0.0-0.18","1137","","f","","","","","","","","","","","","","key","f","11.110859374999867","660.779796278986","408.94494160549533","f","true","img/T_ambi40.png","方形","prac_simultaneous",""
"","","","","","html-keyboard-response","146","505495","0.0-11.0-0.0-1.18","null","<span style='color:GreenYellow; font-size: 70px;'>正确! </span>","null","","","","","","","","","","","","","","","","","","","","","","","feedback_test"
"","","","","","psychophysics","147","507427","0.0-11.0-0.0-0.19","926","","f","","","","","","","","","","","","","key","f","11.110971098266088","660.779796278986","408.94494160549533","f","true","img/C_ambi40.png","方形","prac_simultaneous",""
"","","","","","html-keyboard-response","148","507737","0.0-11.0-0.0-1.19","null","<span style='color:GreenYellow; font-size: 70px;'>正确! </span>","null","","","","","","","","","","","","","","","","","","","","","","","feedback_test"
"","","","","","psychophysics","149","509515","0.0-11.0-0.0-0.20","769","","j","","","","","","","","","","","","","key","j","11.110547169811259","660.779796278986","408.94494160549533","j","true","img/C_ambi40.png","圆形","prac_simultaneous",""
"","","","","","html-keyboard-response","150","509830","0.0-11.0-0.0-1.20","null","<span style='color:GreenYellow; font-size: 70px;'>正确! </span>","null","","","","","","","","","","","","","","","","","","","","","","","feedback_test"
"","","","","","psychophysics","151","511728","0.0-11.0-0.0-0.21","894","","j","","","","","","","","","","","","","key","j","11.110852941176649","660.779796278986","408.94494160549533","j","true","img/T_ambi40.png","三角","prac_simultaneous",""
"","","","","","html-keyboard-response","152","512030","0.0-11.0-0.0-1.21","null","<span style='color:GreenYellow; font-size: 70px;'>正确! </span>","null","","","","","","","","","","","","","","","","","","","","","","","feedback_test"
"","","","","","psychophysics","153","513792","0.0-11.0-0.0-0.22","758","","j","","","","","","","","","","","","","key","j","11.110981012658435","660.779796278986","408.94494160549533","j","true","img/C_ambi40.png","圆形","prac_simultaneous",""
"","","","","","html-keyboard-response","154","514102","0.0-11.0-0.0-1.22","null","<span style='color:GreenYellow; font-size: 70px;'>正确! </span>","null","","","","","","","","","","","","","","","","","","","","","","","feedback_test"
"","","","","","psychophysics","155","515865","0.0-11.0-0.0-0.23","754","","f","","","","","","","","","","","","","key","f","11.110859872611643","660.779796278986","408.94494160549533","f","true","img/T_ambi40.png","圆形","prac_simultaneous",""
"","","","","","html-keyboard-response","156","516169","0.0-11.0-0.0-1.23","null","<span style='color:GreenYellow; font-size: 70px;'>正确! </span>","null","","","","","","","","","","","","","","","","","","","","","","","feedback_test"
"","","","","","html-keyboard-response","157","520183","0.0-12.0","4013","<style>.context{color:white; font-size: 35px; line-height:40px}</style>                            <div><p class='context'>您正确回答了92% 的试次。</p><p class='context'>您的平均反应时为864毫秒。</p><p class='context'>恭喜您完成练习。按任意键进入正式实验。</p><p class='footer' style='font-size: 35px; line-height:40px;'>请在进入正式实验实验之前将您的<span style='color: lightgreen;'>食指</span>放在电脑键盘的相应键位上进行按键。</p>"," ","","","","","","","","","","","","","","","","","","","","","","",""
"","","","","","html-keyboard-response","158","525072","0.0-13.0-1.0-0.0","4886","
    <p>请您将手指放在按键上，准备进入呈现顺序为<span style='color: yellow;'>先文字后图形条件</span>的正式匹配任务</p>
    <p> <div style = ""color: green""><按任意键进入下一阶段的匹配任务></div></p>
    "," ","","","","","","","","","","","","","","","","","","","","","","",""
"","","","","","psychophysics","159","526849","0.0-13.0-1.0-1.0-0.0-0.0","626","","j","","","","","","","","","","","","","key","j","11.11106918238941","660.779796278986","408.94494160549533","j","true","img/C_ambi40.png","圆形","word_first",""
"","","","","","html-keyboard-response","160","527151","0.0-13.0-1.0-1.0-0.0-1.0","null","<span style='color:GreenYellow; font-size: 70px;'>正确! </span>","null","","","","","","","","","","","","","","","","","","","","","","","feedback_test"
"","","","","","psychophysics","161","528928","0.0-13.0-1.0-1.0-0.0-0.1","616","","f","","","","","","","","","","","","","key","f","11.110899371068644","660.779796278986","408.94494160549533","f","true","img/T_ambi40.png","圆形","word_first",""
"","","","","","html-keyboard-response","162","529242","0.0-13.0-1.0-1.0-0.0-1.1","null","<span style='color:GreenYellow; font-size: 70px;'>正确! </span>","null","","","","","","","","","","","","","","","","","","","","","","","feedback_test"
"","","","","","psychophysics","163","531122","0.0-13.0-1.0-1.0-0.0-0.2","722","","j","","","","","","","","","","","","","key","j","11.110821428571528","660.779796278986","408.94494160549533","j","true","img/S_ambi40.png","方形","word_first",""
"","","","","","html-keyboard-response","164","531428","0.0-13.0-1.0-1.0-0.0-1.2","null","<span style='color:GreenYellow; font-size: 70px;'>正确! </span>","null","","","","","","","","","","","","","","","","","","","","","","","feedback_test"
"","","","","","psychophysics","165","533135","0.0-13.0-1.0-1.0-0.0-0.3","557","","j","","","","","","","","","","","","","key","j","11.110888888888987","660.779796278986","408.94494160549533","j","true","img/T_ambi40.png","三角","word_first",""
"","","","","","html-keyboard-response","166","533451","0.0-13.0-1.0-1.0-0.0-1.3","null","<span style='color:GreenYellow; font-size: 70px;'>正确! </span>","null","","","","","","","","","","","","","","","","","","","","","","","feedback_test"
"","","","","","psychophysics","167","535139","0.0-13.0-1.0-1.0-0.0-0.4","537","","f","","","","","","","","","","","","","key","f","11.110582781456786","660.779796278986","408.94494160549533","f","true","img/S_ambi40.png","圆形","word_first",""
"","","","","","html-keyboard-response","168","535444","0.0-13.0-1.0-1.0-0.0-1.4","null","<span style='color:GreenYellow; font-size: 70px;'>正确! </span>","null","","","","","","","","","","","","","","","","","","","","","","","feedback_test"
"","","","","","psychophysics","169","537203","0.0-13.0-1.0-1.0-0.0-0.5","607","","j","","","","","","","","","","","","","key","j","11.110745222929859","660.779796278986","408.94494160549533","f","false","img/C_ambi40.png","方形","word_first",""
"","","","","","html-keyboard-response","170","537515","0.0-13.0-1.0-1.0-0.0-1.5","null","<span style='color:red; font-size: 70px;'>错误! </span>","null","","","","","","","","","","","","","","","","","","","","","","","feedback_test"
"","","","","","psychophysics","171","539251","0.0-13.0-1.0-1.0-0.0-0.6","585","","f","","","","","","","","","","","","","key","f","11.110980645160852","660.779796278986","408.94494160549533","f","true","img/S_ambi40.png","三角","word_first",""
"","","","","","html-keyboard-response","172","539564","0.0-13.0-1.0-1.0-0.0-1.6","null","<span style='color:GreenYellow; font-size: 70px;'>正确! </span>","null","","","","","","","","","","","","","","","","","","","","","","","feedback_test"
"","","","","","psychophysics","173","541536","0.0-13.0-1.0-1.0-0.0-0.7","814","","j","","","","","","","","","","","","","key","j","11.110887005649596","660.779796278986","408.94494160549533","j","true","img/S_ambi40.png","方形","word_first",""
"","","","","","html-keyboard-response","174","541848","0.0-13.0-1.0-1.0-0.0-1.7","null","<span style='color:GreenYellow; font-size: 70px;'>正确! </span>","null","","","","","","","","","","","","","","","","","","","","","","","feedback_test"
"","","","","","psychophysics","175","543609","0.0-13.0-1.0-1.0-0.0-0.8","609","","f","","","","","","","","","","","","","key","f","11.110866242037956","660.779796278986","408.94494160549533","f","true","img/C_ambi40.png","三角","word_first",""
"","","","","","html-keyboard-response","176","543918","0.0-13.0-1.0-1.0-0.0-1.8","null","<span style='color:GreenYellow; font-size: 70px;'>正确! </span>","null","","","","","","","","","","","","","","","","","","","","","","","feedback_test"
"","","","","","psychophysics","177","545873","0.0-13.0-1.0-1.0-0.0-0.9","795","","f","","","","","","","","","","","","","key","f","11.111034285714185","660.779796278986","408.94494160549533","f","true","img/T_ambi40.png","方形","word_first",""
"","","","","","html-keyboard-response","178","546181","0.0-13.0-1.0-1.0-0.0-1.9","null","<span style='color:GreenYellow; font-size: 70px;'>正确! </span>","null","","","","","","","","","","","","","","","","","","","","","","","feedback_test"
"","","","","","psychophysics","179","548116","0.0-13.0-1.0-1.0-0.0-0.10","783","","j","","","","","","","","","","","","","key","j","11.11059537572272","660.779796278986","408.94494160549533","j","true","img/C_ambi40.png","圆形","word_first",""
"","","","","","html-keyboard-response","180","548425","0.0-13.0-1.0-1.0-0.0-1.10","null","<span style='color:GreenYellow; font-size: 70px;'>正确! </span>","null","","","","","","","","","","","","","","","","","","","","","","","feedback_test"
"","","","","","psychophysics","181","550225","0.0-13.0-1.0-1.0-0.0-0.11","647","","j","","","","","","","","","","","","","key","j","11.111055900621148","660.779796278986","408.94494160549533","j","true","img/T_ambi40.png","三角","word_first",""
"","","","","","html-keyboard-response","182","550526","0.0-13.0-1.0-1.0-0.0-1.11","null","<span style='color:GreenYellow; font-size: 70px;'>正确! </span>","null","","","","","","","","","","","","","","","","","","","","","","","feedback_test"
"","","","","","psychophysics","183","552425","0.0-13.0-1.0-1.0-0.0-0.12","747","","j","","","","","","","","","","","","","key","j","11.111035294117926","660.779796278986","408.94494160549533","j","true","img/S_ambi40.png","方形","word_first",""
"","","","","","html-keyboard-response","184","552728","0.0-13.0-1.0-1.0-0.0-1.12","null","<span style='color:GreenYellow; font-size: 70px;'>正确! </span>","null","","","","","","","","","","","","","","","","","","","","","","","feedback_test"
"","","","","","psychophysics","185","554447","0.0-13.0-1.0-1.0-0.0-0.13","565","","j","","","","","","","","","","","","","key","j","11.11068181818209","660.779796278986","408.94494160549533","j","true","img/T_ambi40.png","三角","word_first",""
"","","","","","html-keyboard-response","186","554752","0.0-13.0-1.0-1.0-0.0-1.13","null","<span style='color:GreenYellow; font-size: 70px;'>正确! </span>","null","","","","","","","","","","","","","","","","","","","","","","","feedback_test"
"","","","","","psychophysics","187","556406","0.0-13.0-1.0-1.0-0.0-0.14","495","","j","","","","","","","","","","","","","key","j","11.110932432432861","660.779796278986","408.94494160549533","j","true","img/T_ambi40.png","三角","word_first",""
"","","","","","html-keyboard-response","188","556709","0.0-13.0-1.0-1.0-0.0-1.14","null","<span style='color:GreenYellow; font-size: 70px;'>正确! </span>","null","","","","","","","","","","","","","","","","","","","","","","","feedback_test"
"","","","","","psychophysics","189","558475","0.0-13.0-1.0-1.0-0.0-0.15","608","","j","","","","","","","","","","","","","key","j","11.110721518987011","660.779796278986","408.94494160549533","j","true","img/C_ambi40.png","圆形","word_first",""
"","","","","","html-keyboard-response","190","558778","0.0-13.0-1.0-1.0-0.0-1.15","null","<span style='color:GreenYellow; font-size: 70px;'>正确! </span>","null","","","","","","","","","","","","","","","","","","","","","","","feedback_test"
"","","","","","psychophysics","191","560549","0.0-13.0-1.0-1.0-0.0-0.16","616","","j","","","","","","","","","","","","","key","j","11.110841772152122","660.779796278986","408.94494160549533","j","true","img/S_ambi40.png","方形","word_first",""
"","","","","","html-keyboard-response","192","560853","0.0-13.0-1.0-1.0-0.0-1.16","null","<span style='color:GreenYellow; font-size: 70px;'>正确! </span>","null","","","","","","","","","","","","","","","","","","","","","","","feedback_test"
"","","","","","psychophysics","193","562658","0.0-13.0-1.0-1.0-0.0-0.17","651","","f","","","","","","","","","","","","","key","f","11.110808641975314","660.779796278986","408.94494160549533","f","true","img/S_ambi40.png","圆形","word_first",""
"","","","","","html-keyboard-response","194","562959","0.0-13.0-1.0-1.0-0.0-1.17","null","<span style='color:GreenYellow; font-size: 70px;'>正确! </span>","null","","","","","","","","","","","","","","","","","","","","","","","feedback_test"
"","","","","","psychophysics","195","564861","0.0-13.0-1.0-1.0-0.0-0.18","750","","f","","","","","","","","","","","","","key","f","11.110876470588504","660.779796278986","408.94494160549533","f","true","img/C_ambi40.png","三角","word_first",""
"","","","","","html-keyboard-response","196","565167","0.0-13.0-1.0-1.0-0.0-1.18","null","<span style='color:GreenYellow; font-size: 70px;'>正确! </span>","null","","","","","","","","","","","","","","","","","","","","","","","feedback_test"
"","","","","","psychophysics","197","566999","0.0-13.0-1.0-1.0-0.0-0.19","681","","f","","","","","","","","","","","","","key","f","11.110858895705922","660.779796278986","408.94494160549533","f","true","img/C_ambi40.png","方形","word_first",""
"","","","","","html-keyboard-response","198","567310","0.0-13.0-1.0-1.0-0.0-1.19","null","<span style='color:GreenYellow; font-size: 70px;'>正确! </span>","null","","","","","","","","","","","","","","","","","","","","","","","feedback_test"
"","","","","","psychophysics","199","569072","0.0-13.0-1.0-1.0-0.0-0.20","608","","f","","","","","","","","","","","","","key","f","11.110949044585952","660.779796278986","408.94494160549533","f","true","img/S_ambi40.png","三角","word_first",""
"","","","","","html-keyboard-response","200","569383","0.0-13.0-1.0-1.0-0.0-1.20","null","<span style='color:GreenYellow; font-size: 70px;'>正确! </span>","null","","","","","","","","","","","","","","","","","","","","","","","feedback_test"
"","","","","","psychophysics","201","571327","0.0-13.0-1.0-1.0-0.0-0.21","790","","f","","","","","","","","","","","","","key","f","11.110879310345192","660.779796278986","408.94494160549533","f","true","img/T_ambi40.png","圆形","word_first",""
"","","","","","html-keyboard-response","202","571629","0.0-13.0-1.0-1.0-0.0-1.21","null","<span style='color:GreenYellow; font-size: 70px;'>正确! </span>","null","","","","","","","","","","","","","","","","","","","","","","","feedback_test"
"","","","","","psychophysics","203","573316","0.0-13.0-1.0-1.0-0.0-0.22","534","","f","","","","","","","","","","","","","key","f","11.110980132450536","660.779796278986","408.94494160549533","f","true","img/T_ambi40.png","方形","word_first",""
"","","","","","html-keyboard-response","204","573628","0.0-13.0-1.0-1.0-0.0-1.22","null","<span style='color:GreenYellow; font-size: 70px;'>正确! </span>","null","","","","","","","","","","","","","","","","","","","","","","","feedback_test"
"","","","","","psychophysics","205","575459","0.0-13.0-1.0-1.0-0.0-0.23","679","","j","","","","","","","","","","","","","key","j","11.11090243902418","660.779796278986","408.94494160549533","j","true","img/C_ambi40.png","圆形","word_first",""
"","","","","","html-keyboard-response","206","575761","0.0-13.0-1.0-1.0-0.0-1.23","null","<span style='color:GreenYellow; font-size: 70px;'>正确! </span>","null","","","","","","","","","","","","","","","","","","","","","","","feedback_test"
"","","","","","psychophysics","207","577527","0.0-13.0-1.0-1.0-0.0-0.24","612","","j","","","","","","","","","","","","","key","j","11.110715189873524","660.779796278986","408.94494160549533","j","true","img/T_ambi40.png","三角","word_first",""
"","","","","","html-keyboard-response","208","577833","0.0-13.0-1.0-1.0-0.0-1.24","null","<span style='color:GreenYellow; font-size: 70px;'>正确! </span>","null","","","","","","","","","","","","","","","","","","","","","","","feedback_test"
"","","","","","psychophysics","209","579712","0.0-13.0-1.0-1.0-0.0-0.25","724","","j","","","","","","","","","","","","","key","j","11.111214285714336","660.779796278986","408.94494160549533","j","true","img/C_ambi40.png","圆形","word_first",""
"","","","","","html-keyboard-response","210","580024","0.0-13.0-1.0-1.0-0.0-1.25","null","<span style='color:GreenYellow; font-size: 70px;'>正确! </span>","null","","","","","","","","","","","","","","","","","","","","","","","feedback_test"
"","","","","","psychophysics","211","581800","0.0-13.0-1.0-1.0-0.0-0.26","623","","f","","","","","","","","","","","","","key","f","11.110937106918028","660.779796278986","408.94494160549533","f","true","img/T_ambi40.png","方形","word_first",""
"","","","","","html-keyboard-response","212","582107","0.0-13.0-1.0-1.0-0.0-1.26","null","<span style='color:GreenYellow; font-size: 70px;'>正确! </span>","null","","","","","","","","","","","","","","","","","","","","","","","feedback_test"
"","","","","","psychophysics","213","584064","0.0-13.0-1.0-1.0-0.0-0.27","803","","j","","","","","","","","","","","","","key","j","11.110857142857276","660.779796278986","408.94494160549533","j","true","img/S_ambi40.png","方形","word_first",""
"","","","","","html-keyboard-response","214","584367","0.0-13.0-1.0-1.0-0.0-1.27","null","<span style='color:GreenYellow; font-size: 70px;'>正确! </span>","null","","","","","","","","","","","","","","","","","","","","","","","feedback_test"
"","","","","","psychophysics","215","586013","0.0-13.0-1.0-1.0-0.0-0.28","492","","j","","","","","","","","","","","","","key","j","11.110829931972896","660.779796278986","408.94494160549533","j","true","img/S_ambi40.png","方形","word_first",""
"","","","","","html-keyboard-response","216","586316","0.0-13.0-1.0-1.0-0.0-1.28","null","<span style='color:GreenYellow; font-size: 70px;'>正确! </span>","null","","","","","","","","","","","","","","","","","","","","","","","feedback_test"
"","","","","","psychophysics","217","587986","0.0-13.0-1.0-1.0-0.0-0.29","519","","j","","","","","","","","","","","","","key","j","11.111006711409646","660.779796278986","408.94494160549533","j","true","img/T_ambi40.png","三角","word_first",""
"","","","","","html-keyboard-response","218","588294","0.0-13.0-1.0-1.0-0.0-1.29","null","<span style='color:GreenYellow; font-size: 70px;'>正确! </span>","null","","","","","","","","","","","","","","","","","","","","","","","feedback_test"
"","","","","","psychophysics","219","590035","0.0-13.0-1.0-1.0-0.0-0.30","581","","j","","","","","","","","","","","","","key","j","11.110916666666386","660.779796278986","408.94494160549533","f","false","img/T_ambi40.png","圆形","word_first",""
"","","","","","html-keyboard-response","220","590345","0.0-13.0-1.0-1.0-0.0-1.30","null","<span style='color:red; font-size: 70px;'>错误! </span>","null","","","","","","","","","","","","","","","","","","","","","","","feedback_test"
"","","","","","psychophysics","221","592184","0.0-13.0-1.0-1.0-0.0-0.31","688","","f","","","","","","","","","","","","","key","f","11.11090243902418","660.779796278986","408.94494160549533","f","true","img/S_ambi40.png","圆形","word_first",""
"","","","","","html-keyboard-response","222","592492","0.0-13.0-1.0-1.0-0.0-1.31","null","<span style='color:GreenYellow; font-size: 70px;'>正确! </span>","null","","","","","","","","","","","","","","","","","","","","","","","feedback_test"
"","","","","","psychophysics","223","594413","0.0-13.0-1.0-1.0-0.0-0.32","770","","f","","","","","","","","","","","","","key","f","11.110982558139746","660.779796278986","408.94494160549533","f","true","img/C_ambi40.png","三角","word_first",""
"","","","","","html-keyboard-response","224","594719","0.0-13.0-1.0-1.0-0.0-1.32","null","<span style='color:GreenYellow; font-size: 70px;'>正确! </span>","null","","","","","","","","","","","","","","","","","","","","","","","feedback_test"
"","","","","","psychophysics","225","596376","0.0-13.0-1.0-1.0-0.0-0.33","505","","f","","","","","","","","","","","","","key","f","11.110918918918705","660.779796278986","408.94494160549533","f","true","img/S_ambi40.png","三角","word_first",""
"","","","","","html-keyboard-response","226","596681","0.0-13.0-1.0-1.0-0.0-1.33","null","<span style='color:GreenYellow; font-size: 70px;'>正确! </span>","null","","","","","","","","","","","","","","","","","","","","","","","feedback_test"
"","","","","","psychophysics","227","598390","0.0-13.0-1.0-1.0-0.0-0.34","558","","f","","","","","","","","","","","","","key","f","11.110934640522864","660.779796278986","408.94494160549533","f","true","img/C_ambi40.png","方形","word_first",""
"","","","","","html-keyboard-response","228","598706","0.0-13.0-1.0-1.0-0.0-1.34","null","<span style='color:GreenYellow; font-size: 70px;'>正确! </span>","null","","","","","","","","","","","","","","","","","","","","","","","feedback_test"
"","","","","","psychophysics","229","600444","0.0-13.0-1.0-1.0-0.0-0.35","587","","j","","","","","","","","","","","","","key","j","11.110948717948467","660.779796278986","408.94494160549533","j","true","img/C_ambi40.png","圆形","word_first",""
"","","","","","html-keyboard-response","230","600745","0.0-13.0-1.0-1.0-0.0-1.35","null","<span style='color:GreenYellow; font-size: 70px;'>正确! </span>","null","","","","","","","","","","","","","","","","","","","","","","","feedback_test"
"","","","","","psychophysics","231","602587","0.0-13.0-1.0-1.0-0.0-0.36","689","","f","","","","","","","","","","","","","key","f","11.11092682926853","660.779796278986","408.94494160549533","f","true","img/C_ambi40.png","三角","word_first",""
"","","","","","html-keyboard-response","232","602893","0.0-13.0-1.0-1.0-0.0-1.36","null","<span style='color:GreenYellow; font-size: 70px;'>正确! </span>","null","","","","","","","","","","","","","","","","","","","","","","","feedback_test"
"","","","","","psychophysics","233","604786","0.0-13.0-1.0-1.0-0.0-0.37","743","","f","","","","","","","","","","","","","key","f","11.110917159763286","660.779796278986","408.94494160549533","f","true","img/C_ambi40.png","方形","word_first",""
"","","","","","html-keyboard-response","234","605102","0.0-13.0-1.0-1.0-0.0-1.37","null","<span style='color:GreenYellow; font-size: 70px;'>正确! </span>","null","","","","","","","","","","","","","","","","","","","","","","","feedback_test"
"","","","","","psychophysics","235","606765","0.0-13.0-1.0-1.0-0.0-0.38","511","","f","","","","","","","","","","","","","key","f","11.110966216216676","660.779796278986","408.94494160549533","f","true","img/S_ambi40.png","三角","word_first",""
"","","","","","html-keyboard-response","236","607077","0.0-13.0-1.0-1.0-0.0-1.38","null","<span style='color:GreenYellow; font-size: 70px;'>正确! </span>","null","","","","","","","","","","","","","","","","","","","","","","","feedback_test"
"","","","","","psychophysics","237","608809","0.0-13.0-1.0-1.0-0.0-0.39","577","","j","","","","","","","","","","","","","key","j","11.110896103895971","660.779796278986","408.94494160549533","j","true","img/S_ambi40.png","方形","word_first",""
"","","","","","html-keyboard-response","238","609115","0.0-13.0-1.0-1.0-0.0-1.39","null","<span style='color:GreenYellow; font-size: 70px;'>正确! </span>","null","","","","","","","","","","","","","","","","","","","","","","","feedback_test"
"","","","","","psychophysics","239","610852","0.0-13.0-1.0-1.0-0.0-0.40","587","","f","","","","","","","","","","","","","key","f","11.110948387096306","660.779796278986","408.94494160549533","j","false","img/S_ambi40.png","方形","word_first",""
"","","","","","html-keyboard-response","240","611167","0.0-13.0-1.0-1.0-0.0-1.40","null","<span style='color:red; font-size: 70px;'>错误! </span>","null","","","","","","","","","","","","","","","","","","","","","","","feedback_test"
"","","","","","psychophysics","241","612916","0.0-13.0-1.0-1.0-0.0-0.41","596","","j","","","","","","","","","","","","","key","j","11.110801282051492","660.779796278986","408.94494160549533","j","true","img/T_ambi40.png","三角","word_first",""
"","","","","","html-keyboard-response","242","613226","0.0-13.0-1.0-1.0-0.0-1.41","null","<span style='color:GreenYellow; font-size: 70px;'>正确! </span>","null","","","","","","","","","","","","","","","","","","","","","","","feedback_test"
"","","","","","psychophysics","243","614926","0.0-13.0-1.0-1.0-0.0-0.42","549","","f","","","","","","","","","","","","","key","f","11.1108815789477","660.779796278986","408.94494160549533","f","true","img/T_ambi40.png","方形","word_first",""
"","","","","","html-keyboard-response","244","615237","0.0-13.0-1.0-1.0-0.0-1.42","null","<span style='color:GreenYellow; font-size: 70px;'>正确! </span>","null","","","","","","","","","","","","","","","","","","","","","","","feedback_test"
"","","","","","psychophysics","245","616964","0.0-13.0-1.0-1.0-0.0-0.43","576","","f","","","","","","","","","","","","","key","f","11.111045454545613","660.779796278986","408.94494160549533","f","true","img/T_ambi40.png","圆形","word_first",""
"","","","","","html-keyboard-response","246","617272","0.0-13.0-1.0-1.0-0.0-1.43","null","<span style='color:GreenYellow; font-size: 70px;'>正确! </span>","null","","","","","","","","","","","","","","","","","","","","","","","feedback_test"
"","","","","","psychophysics","247","618973","0.0-13.0-1.0-1.0-0.0-0.44","546","","j","","","","","","","","","","","","","key","j","11.110796052631677","660.779796278986","408.94494160549533","j","true","img/T_ambi40.png","三角","word_first",""
"","","","","","html-keyboard-response","248","619281","0.0-13.0-1.0-1.0-0.0-1.44","null","<span style='color:GreenYellow; font-size: 70px;'>正确! </span>","null","","","","","","","","","","","","","","","","","","","","","","","feedback_test"
"","","","","","psychophysics","249","621026","0.0-13.0-1.0-1.0-0.0-0.45","594","","j","","","","","","","","","","","","","key","j","11.110833333333572","660.779796278986","408.94494160549533","j","true","img/C_ambi40.png","圆形","word_first",""
"","","","","","html-keyboard-response","250","621337","0.0-13.0-1.0-1.0-0.0-1.45","null","<span style='color:GreenYellow; font-size: 70px;'>正确! </span>","null","","","","","","","","","","","","","","","","","","","","","","","feedback_test"
"","","","","","psychophysics","251","622975","0.0-13.0-1.0-1.0-0.0-0.46","488","","j","","","","","","","","","","","","","key","j","11.111034246575413","660.779796278986","408.94494160549533","j","true","img/C_ambi40.png","圆形","word_first",""
"","","","","","html-keyboard-response","252","623280","0.0-13.0-1.0-1.0-0.0-1.46","null","<span style='color:GreenYellow; font-size: 70px;'>正确! </span>","null","","","","","","","","","","","","","","","","","","","","","","","feedback_test"
"","","","","","psychophysics","253","625012","0.0-13.0-1.0-1.0-0.0-0.47","580","","f","","","","","","","","","","","","","key","f","11.110948387097057","660.779796278986","408.94494160549533","f","true","img/S_ambi40.png","圆形","word_first",""
"","","","","","html-keyboard-response","254","625315","0.0-13.0-1.0-1.0-0.0-1.47","null","<span style='color:GreenYellow; font-size: 70px;'>正确! </span>","null","","","","","","","","","","","","","","","","","","","","","","","feedback_test"
"","","","","","psychophysics","255","626983","0.0-13.0-1.0-1.0-0.0-0.48","514","","f","","","","","","","","","","","","","key","f","11.111026845637227","660.779796278986","408.94494160549533","f","true","img/S_ambi40.png","圆形","word_first",""
"","","","","","html-keyboard-response","256","627295","0.0-13.0-1.0-1.0-0.0-1.48","null","<span style='color:GreenYellow; font-size: 70px;'>正确! </span>","null","","","","","","","","","","","","","","","","","","","","","","","feedback_test"
"","","","","","psychophysics","257","628967","0.0-13.0-1.0-1.0-0.0-0.49","517","","f","","","","","","","","","","","","","key","f","11.110973333332998","660.779796278986","408.94494160549533","f","true","img/T_ambi40.png","圆形","word_first",""
"","","","","","html-keyboard-response","258","629275","0.0-13.0-1.0-1.0-0.0-1.49","null","<span style='color:GreenYellow; font-size: 70px;'>正确! </span>","null","","","","","","","","","","","","","","","","","","","","","","","feedback_test"
"","","","","","psychophysics","259","630996","0.0-13.0-1.0-1.0-0.0-0.50","564","","j","","","","","","","","","","","","","key","j","11.090516339868818","660.779796278986","408.94494160549533","j","true","img/S_ambi40.png","方形","word_first",""
"","","","","","html-keyboard-response","260","631307","0.0-13.0-1.0-1.0-0.0-1.50","null","<span style='color:GreenYellow; font-size: 70px;'>正确! </span>","null","","","","","","","","","","","","","","","","","","","","","","","feedback_test"
"","","","","","psychophysics","261","633000","0.0-13.0-1.0-1.0-0.0-0.51","540","","j","","","","","","","","","","","","","key","j","11.110914473684572","660.779796278986","408.94494160549533","j","true","img/C_ambi40.png","圆形","word_first",""
"","","","","","html-keyboard-response","262","633304","0.0-13.0-1.0-1.0-0.0-1.51","null","<span style='color:GreenYellow; font-size: 70px;'>正确! </span>","null","","","","","","","","","","","","","","","","","","","","","","","feedback_test"
"","","","","","psychophysics","263","634894","0.0-13.0-1.0-1.0-0.0-0.52","439","","f","","","","","","","","","","","","","key","f","11.110971830985312","660.779796278986","408.94494160549533","f","true","img/C_ambi40.png","三角","word_first",""
"","","","","","html-keyboard-response","264","635206","0.0-13.0-1.0-1.0-0.0-1.52","null","<span style='color:GreenYellow; font-size: 70px;'>正确! </span>","null","","","","","","","","","","","","","","","","","","","","","","","feedback_test"
"","","","","","psychophysics","265","636869","0.0-13.0-1.0-1.0-0.0-0.53","509","","j","","","","","","","","","","","","","key","j","11.110872483221602","660.779796278986","408.94494160549533","j","true","img/T_ambi40.png","三角","word_first",""
"","","","","","html-keyboard-response","266","637185","0.0-13.0-1.0-1.0-0.0-1.53","null","<span style='color:GreenYellow; font-size: 70px;'>正确! </span>","null","","","","","","","","","","","","","","","","","","","","","","","feedback_test"
"","","","","","psychophysics","267","638876","0.0-13.0-1.0-1.0-0.0-0.54","536","","f","","","","","","","","","","","","","key","f","11.111052980132259","660.779796278986","408.94494160549533","f","true","img/C_ambi40.png","方形","word_first",""
"","","","","","html-keyboard-response","268","639182","0.0-13.0-1.0-1.0-0.0-1.54","null","<span style='color:GreenYellow; font-size: 70px;'>正确! </span>","null","","","","","","","","","","","","","","","","","","","","","","","feedback_test"
"","","","","","psychophysics","269","640760","0.0-13.0-1.0-1.0-0.0-0.55","428","","j","","","","","","","","","","","","","key","j","11.110957446808643","660.779796278986","408.94494160549533","j","true","img/T_ambi40.png","三角","word_first",""
"","","","","","html-keyboard-response","270","641068","0.0-13.0-1.0-1.0-0.0-1.55","null","<span style='color:GreenYellow; font-size: 70px;'>正确! </span>","null","","","","","","","","","","","","","","","","","","","","","","","feedback_test"
"","","","","","psychophysics","271","642824","0.0-13.0-1.0-1.0-0.0-0.56","604","","f","","","","","","","","","","","","","key","f","11.110987261146793","660.779796278986","408.94494160549533","f","true","img/S_ambi40.png","三角","word_first",""
"","","","","","html-keyboard-response","272","643138","0.0-13.0-1.0-1.0-0.0-1.56","null","<span style='color:GreenYellow; font-size: 70px;'>正确! </span>","null","","","","","","","","","","","","","","","","","","","","","","","feedback_test"
"","","","","","psychophysics","273","644803","0.0-13.0-1.0-1.0-0.0-0.57","515","","j","","","","","","","","","","","","","key","j","11.110939597315625","660.779796278986","408.94494160549533","j","true","img/S_ambi40.png","方形","word_first",""
"","","","","","html-keyboard-response","274","645113","0.0-13.0-1.0-1.0-0.0-1.57","null","<span style='color:GreenYellow; font-size: 70px;'>正确! </span>","null","","","","","","","","","","","","","","","","","","","","","","","feedback_test"
"","","","","","psychophysics","275","646761","0.0-13.0-1.0-1.0-0.0-0.58","497","","f","","","","","","","","","","","","","key","f","11.11112925170075","660.779796278986","408.94494160549533","f","true","img/T_ambi40.png","方形","word_first",""
"","","","","","html-keyboard-response","276","647069","0.0-13.0-1.0-1.0-0.0-1.58","null","<span style='color:GreenYellow; font-size: 70px;'>正确! </span>","null","","","","","","","","","","","","","","","","","","","","","","","feedback_test"
"","","","","","psychophysics","277","648831","0.0-13.0-1.0-1.0-0.0-0.59","610","","j","","","","","","","","","","","","","key","j","11.110783439490701","660.779796278986","408.94494160549533","j","true","img/C_ambi40.png","圆形","word_first",""
"","","","","","html-keyboard-response","278","649133","0.0-13.0-1.0-1.0-0.0-1.59","null","<span style='color:GreenYellow; font-size: 70px;'>正确! </span>","null","","","","","","","","","","","","","","","","","","","","","","","feedback_test"
"","","","","","html-keyboard-response","279","652108","0.0-13.0-1.0-1.0-1.0","2974","<style>.context{color:white; font-size: 35px; line-height:40px}</style>                            <div><p class='context'>您正确回答了95% 的试次。</p><p class='context'>您的平均反应时为607毫秒。</p><p class='context'>请按任意键进入休息</p></div>"," ","","","","","","","","","","","","","","","","","","","","","","",""
"","","","","","html-button-response","280","677966","0.0-13.0-1.0-1.0-2.0","25857","
                    <p>您当前还剩余3组实验</p>
                    <p>现在是休息时间，当您结束休息后，您可以点击 结束休息 按钮 继续</p>
                    <p>建议休息时间还剩余<span id=""iii"">60</span>秒</p>","0","","","","","","","","","","","","","","","","","","","","","","",""
"","","","","","psychophysics","281","679768","0.0-13.0-1.0-1.0-0.1-0.60","648","","j","","","","","","","","","","","","","key","j","11.110795031055831","660.779796278986","408.94494160549533","j","true","img/S_ambi40.png","方形","word_first",""
"","","","","","html-keyboard-response","282","680076","0.0-13.0-1.0-1.0-0.1-1.60","null","<span style='color:GreenYellow; font-size: 70px;'>正确! </span>","null","","","","","","","","","","","","","","","","","","","","","","","feedback_test"
"","","","","","psychophysics","283","681996","0.0-13.0-1.0-1.0-0.1-0.61","765","","f","","","","","","","","","","","","","key","f","11.110923976608149","660.779796278986","408.94494160549533","f","true","img/S_ambi40.png","圆形","word_first",""
"","","","","","html-keyboard-response","284","682299","0.0-13.0-1.0-1.0-0.1-1.61","null","<span style='color:GreenYellow; font-size: 70px;'>正确! </span>","null","","","","","","","","","","","","","","","","","","","","","","","feedback_test"
"","","","","","psychophysics","285","683960","0.0-13.0-1.0-1.0-0.1-0.62","507","","f","","","","","","","","","","","","","key","f","11.11133108108078","660.779796278986","408.94494160549533","f","true","img/S_ambi40.png","三角","word_first",""
"","","","","","html-keyboard-response","286","684263","0.0-13.0-1.0-1.0-0.1-1.62","null","<span style='color:GreenYellow; font-size: 70px;'>正确! </span>","null","","","","","","","","","","","","","","","","","","","","","","","feedback_test"
"","","","","","psychophysics","287","685869","0.0-13.0-1.0-1.0-0.1-0.63","449","","j","","","","","","","","","","","","","key","j","11.085048951048215","660.779796278986","408.94494160549533","j","true","img/T_ambi40.png","三角","word_first",""
"","","","","","html-keyboard-response","288","686185","0.0-13.0-1.0-1.0-0.1-1.63","null","<span style='color:GreenYellow; font-size: 70px;'>正确! </span>","null","","","","","","","","","","","","","","","","","","","","","","","feedback_test"
"","","","","","psychophysics","289","687825","0.0-13.0-1.0-1.0-0.1-0.64","483","","j","","","","","","","","","","","","","key","j","11.083794520548322","660.779796278986","408.94494160549533","j","true","img/S_ambi40.png","方形","word_first",""
"","","","","","html-keyboard-response","290","688140","0.0-13.0-1.0-1.0-0.1-1.64","null","<span style='color:GreenYellow; font-size: 70px;'>正确! </span>","null","","","","","","","","","","","","","","","","","","","","","","","feedback_test"
"","","","","","psychophysics","291","689763","0.0-13.0-1.0-1.0-0.1-0.65","472","","f","","","","","","","","","","","","","key","f","11.110972413793206","660.779796278986","408.94494160549533","f","true","img/C_ambi40.png","三角","word_first",""
"","","","","","html-keyboard-response","292","690065","0.0-13.0-1.0-1.0-0.1-1.65","null","<span style='color:GreenYellow; font-size: 70px;'>正确! </span>","null","","","","","","","","","","","","","","","","","","","","","","","feedback_test"
"","","","","","psychophysics","293","691741","0.0-13.0-1.0-1.0-0.1-0.66","522","","f","","","","","","","","","","","","","key","f","11.110865771811886","660.779796278986","408.94494160549533","f","true","img/T_ambi40.png","圆形","word_first",""
"","","","","","html-keyboard-response","294","692042","0.0-13.0-1.0-1.0-0.1-1.66","null","<span style='color:GreenYellow; font-size: 70px;'>正确! </span>","null","","","","","","","","","","","","","","","","","","","","","","","feedback_test"
"","","","","","psychophysics","295","693715","0.0-13.0-1.0-1.0-0.1-0.67","520","","f","","","","","","","","","","","","","key","f","11.11093288590669","660.779796278986","408.94494160549533","f","true","img/C_ambi40.png","方形","word_first",""
"","","","","","html-keyboard-response","296","694020","0.0-13.0-1.0-1.0-0.1-1.67","null","<span style='color:GreenYellow; font-size: 70px;'>正确! </span>","null","","","","","","","","","","","","","","","","","","","","","","","feedback_test"
"","","","","","psychophysics","297","695714","0.0-13.0-1.0-1.0-0.1-0.68","538","","j","","","","","","","","","","","","","key","j","11.11122516556242","660.779796278986","408.94494160549533","j","true","img/C_ambi40.png","圆形","word_first",""
"","","","","","html-keyboard-response","298","696025","0.0-13.0-1.0-1.0-0.1-1.68","null","<span style='color:GreenYellow; font-size: 70px;'>正确! </span>","null","","","","","","","","","","","","","","","","","","","","","","","feedback_test"
"","","","","","psychophysics","299","697732","0.0-13.0-1.0-1.0-0.1-0.69","557","","j","","","","","","","","","","","","","key","j","11.110934640522864","660.779796278986","408.94494160549533","f","false","img/T_ambi40.png","方形","word_first",""
"","","","","","html-keyboard-response","300","698035","0.0-13.0-1.0-1.0-0.1-1.69","null","<span style='color:red; font-size: 70px;'>错误! </span>","null","","","","","","","","","","","","","","","","","","","","","","","feedback_test"
"","","","","","psychophysics","301","699832","0.0-13.0-1.0-1.0-0.1-0.70","646","","j","","","","","","","","","","","","","key","j","11.1105217391304","660.779796278986","408.94494160549533","j","true","img/C_ambi40.png","圆形","word_first",""
"","","","","","html-keyboard-response","302","700135","0.0-13.0-1.0-1.0-0.1-1.70","null","<span style='color:GreenYellow; font-size: 70px;'>正确! </span>","null","","","","","","","","","","","","","","","","","","","","","","","feedback_test"
"","","","","","psychophysics","303","701775","0.0-13.0-1.0-1.0-0.1-0.71","489","","j","","","","","","","","","","","","","key","j","11.11093150684929","660.779796278986","408.94494160549533","j","true","img/T_ambi40.png","三角","word_first",""
"","","","","","html-keyboard-response","304","702084","0.0-13.0-1.0-1.0-0.1-1.71","null","<span style='color:GreenYellow; font-size: 70px;'>正确! </span>","null","","","","","","","","","","","","","","","","","","","","","","","feedback_test"
"","","","","","psychophysics","305","703725","0.0-13.0-1.0-1.0-0.1-0.72","485","","f","","","","","","","","","","","","","key","f","11.11077551020398","660.779796278986","408.94494160549533","f","true","img/S_ambi40.png","三角","word_first",""
"","","","","","html-keyboard-response","306","704030","0.0-13.0-1.0-1.0-0.1-1.72","null","<span style='color:GreenYellow; font-size: 70px;'>正确! </span>","null","","","","","","","","","","","","","","","","","","","","","","","feedback_test"
"","","","","","psychophysics","307","705743","0.0-13.0-1.0-1.0-0.1-0.73","562","","j","","","","","","","","","","","","","key","j","11.083856209150053","660.779796278986","408.94494160549533","j","true","img/C_ambi40.png","圆形","word_first",""
"","","","","","html-keyboard-response","308","706058","0.0-13.0-1.0-1.0-0.1-1.73","null","<span style='color:GreenYellow; font-size: 70px;'>正确! </span>","null","","","","","","","","","","","","","","","","","","","","","","","feedback_test"
"","","","","","psychophysics","309","707672","0.0-13.0-1.0-1.0-0.1-0.74","463","","j","","","","","","","","","","","","","key","j","11.11086805555533","660.779796278986","408.94494160549533","j","true","img/T_ambi40.png","三角","word_first",""
"","","","","","html-keyboard-response","310","707974","0.0-13.0-1.0-1.0-0.1-1.74","null","<span style='color:GreenYellow; font-size: 70px;'>正确! </span>","null","","","","","","","","","","","","","","","","","","","","","","","feedback_test"
"","","","","","psychophysics","311","709552","0.0-13.0-1.0-1.0-0.1-0.75","427","","f","","","","","","","","","","","","","key","f","11.110843971630901","660.779796278986","408.94494160549533","j","false","img/S_ambi40.png","方形","word_first",""
"","","","","","html-keyboard-response","312","709868","0.0-13.0-1.0-1.0-0.1-1.75","null","<span style='color:red; font-size: 70px;'>错误! </span>","null","","","","","","","","","","","","","","","","","","","","","","","feedback_test"
"","","","","","psychophysics","313","711575","0.0-13.0-1.0-1.0-0.1-0.76","556","","j","","","","","","","","","","","","","key","j","11.110901960784272","660.779796278986","408.94494160549533","j","true","img/C_ambi40.png","圆形","word_first",""
"","","","","","html-keyboard-response","314","711885","0.0-13.0-1.0-1.0-0.1-1.76","null","<span style='color:GreenYellow; font-size: 70px;'>正确! </span>","null","","","","","","","","","","","","","","","","","","","","","","","feedback_test"
"","","","","","psychophysics","315","713659","0.0-13.0-1.0-1.0-0.1-0.77","618","","f","","","","","","","","","","","","","key","f","11.090234177215084","660.779796278986","408.94494160549533","f","true","img/C_ambi40.png","三角","word_first",""
"","","","","","html-keyboard-response","316","713961","0.0-13.0-1.0-1.0-0.1-1.77","null","<span style='color:GreenYellow; font-size: 70px;'>正确! </span>","null","","","","","","","","","","","","","","","","","","","","","","","feedback_test"
"","","","","","psychophysics","317","715628","0.0-13.0-1.0-1.0-0.1-0.78","514","","f","","","","","","","","","","","","","key","f","11.11125503355659","660.779796278986","408.94494160549533","f","true","img/T_ambi40.png","圆形","word_first",""
"","","","","","html-keyboard-response","318","715945","0.0-13.0-1.0-1.0-0.1-1.78","null","<span style='color:GreenYellow; font-size: 70px;'>正确! </span>","null","","","","","","","","","","","","","","","","","","","","","","","feedback_test"
"","","","","","psychophysics","319","717777","0.0-13.0-1.0-1.0-0.1-0.79","679","","f","","","","","","","","","","","","","key","f","11.111000000000164","660.779796278986","408.94494160549533","f","true","img/S_ambi40.png","圆形","word_first",""
"","","","","","html-keyboard-response","320","718090","0.0-13.0-1.0-1.0-0.1-1.79","null","<span style='color:GreenYellow; font-size: 70px;'>正确! </span>","null","","","","","","","","","","","","","","","","","","","","","","","feedback_test"
"","","","","","psychophysics","321","720056","0.0-13.0-1.0-1.0-0.1-0.80","814","","f","","","","","","","","","","","","","key","f","11.110755681818278","660.779796278986","408.94494160549533","f","true","img/T_ambi40.png","方形","word_first",""
"","","","","","html-keyboard-response","322","720365","0.0-13.0-1.0-1.0-0.1-1.80","null","<span style='color:GreenYellow; font-size: 70px;'>正确! </span>","null","","","","","","","","","","","","","","","","","","","","","","","feedback_test"
"","","","","","psychophysics","323","721985","0.0-13.0-1.0-1.0-0.1-0.81","465","","f","","","","","","","","","","","","","key","f","11.110506944444044","660.779796278986","408.94494160549533","f","true","img/C_ambi40.png","方形","word_first",""
"","","","","","html-keyboard-response","324","722297","0.0-13.0-1.0-1.0-0.1-1.81","null","<span style='color:GreenYellow; font-size: 70px;'>正确! </span>","null","","","","","","","","","","","","","","","","","","","","","","","feedback_test"
"","","","","","psychophysics","325","723783","0.0-13.0-1.0-1.0-0.1-0.82","330","","f","","","","","","","","","","","","","key","f","11.08220454545473","660.779796278986","408.94494160549533","j","false","img/S_ambi40.png","方形","word_first",""
"","","","","","html-keyboard-response","326","724097","0.0-13.0-1.0-1.0-0.1-1.82","null","<span style='color:red; font-size: 70px;'>错误! </span>","null","","","","","","","","","","","","","","","","","","","","","","","feedback_test"
"","","","","","psychophysics","327","725732","0.0-13.0-1.0-1.0-0.1-0.83","481","","j","","","","","","","","","","","","","key","j","11.11067808219168","660.779796278986","408.94494160549533","j","true","img/T_ambi40.png","三角","word_first",""
"","","","","","html-keyboard-response","328","726034","0.0-13.0-1.0-1.0-0.1-1.83","null","<span style='color:GreenYellow; font-size: 70px;'>正确! </span>","null","","","","","","","","","","","","","","","","","","","","","","","feedback_test"
"","","","","","psychophysics","329","727771","0.0-13.0-1.0-1.0-0.1-0.84","585","","j","","","","","","","","","","","","","key","j","11.110877419354754","660.779796278986","408.94494160549533","j","true","img/C_ambi40.png","圆形","word_first",""
"","","","","","html-keyboard-response","330","728074","0.0-13.0-1.0-1.0-0.1-1.84","null","<span style='color:GreenYellow; font-size: 70px;'>正确! </span>","null","","","","","","","","","","","","","","","","","","","","","","","feedback_test"
"","","","","","psychophysics","331","729720","0.0-13.0-1.0-1.0-0.1-0.85","495","","j","","","","","","","","","","","","","key","j","11.091925170068269","660.779796278986","408.94494160549533","f","false","img/C_ambi40.png","方形","word_first",""
"","","","","","html-keyboard-response","332","730030","0.0-13.0-1.0-1.0-0.1-1.85","null","<span style='color:red; font-size: 70px;'>错误! </span>","null","","","","","","","","","","","","","","","","","","","","","","","feedback_test"
"","","","","","psychophysics","333","731639","0.0-13.0-1.0-1.0-0.1-0.86","453","","j","","","","","","","","","","","","","key","j","11.110937062937479","660.779796278986","408.94494160549533","j","true","img/T_ambi40.png","三角","word_first",""
"","","","","","html-keyboard-response","334","731940","0.0-13.0-1.0-1.0-0.1-1.86","null","<span style='color:GreenYellow; font-size: 70px;'>正确! </span>","null","","","","","","","","","","","","","","","","","","","","","","","feedback_test"
"","","","","","psychophysics","335","733528","0.0-13.0-1.0-1.0-0.1-0.87","437","","f","","","","","","","","","","","","","key","f","11.110739436619554","660.779796278986","408.94494160549533","j","false","img/S_ambi40.png","方形","word_first",""
"","","","","","html-keyboard-response","336","733840","0.0-13.0-1.0-1.0-0.1-1.87","null","<span style='color:red; font-size: 70px;'>错误! </span>","null","","","","","","","","","","","","","","","","","","","","","","","feedback_test"
"","","","","","psychophysics","337","735542","0.0-13.0-1.0-1.0-0.1-0.88","551","","f","","","","","","","","","","","","","key","f","11.091361842105183","660.779796278986","408.94494160549533","f","true","img/T_ambi40.png","圆形","word_first",""
"","","","","","html-keyboard-response","338","735848","0.0-13.0-1.0-1.0-0.1-1.88","null","<span style='color:GreenYellow; font-size: 70px;'>正确! </span>","null","","","","","","","","","","","","","","","","","","","","","","","feedback_test"
"","","","","","psychophysics","339","737616","0.0-13.0-1.0-1.0-0.1-0.89","608","","j","","","","","","","","","","","","","key","j","11.111056962025446","660.779796278986","408.94494160549533","j","true","img/C_ambi40.png","圆形","word_first",""
"","","","","","html-keyboard-response","340","737917","0.0-13.0-1.0-1.0-0.1-1.89","null","<span style='color:GreenYellow; font-size: 70px;'>正确! </span>","null","","","","","","","","","","","","","","","","","","","","","","","feedback_test"
"","","","","","psychophysics","341","739615","0.0-13.0-1.0-1.0-0.1-0.90","547","","f","","","","","","","","","","","","","key","f","11.110875000000018","660.779796278986","408.94494160549533","f","true","img/C_ambi40.png","三角","word_first",""
"","","","","","html-keyboard-response","342","739925","0.0-13.0-1.0-1.0-0.1-1.90","null","<span style='color:GreenYellow; font-size: 70px;'>正确! </span>","null","","","","","","","","","","","","","","","","","","","","","","","feedback_test"
"","","","","","psychophysics","343","741544","0.0-13.0-1.0-1.0-0.1-0.91","458","","f","","","","","","","","","","","","","key","f","11.111089655172465","660.779796278986","408.94494160549533","f","true","img/S_ambi40.png","三角","word_first",""
"","","","","","html-keyboard-response","344","741851","0.0-13.0-1.0-1.0-0.1-1.91","null","<span style='color:GreenYellow; font-size: 70px;'>正确! </span>","null","","","","","","","","","","","","","","","","","","","","","","","feedback_test"
"","","","","","psychophysics","345","743507","0.0-13.0-1.0-1.0-0.1-0.92","504","","f","","","","","","","","","","","","","key","f","11.1106351351356","660.779796278986","408.94494160549533","f","true","img/T_ambi40.png","方形","word_first",""
"","","","","","html-keyboard-response","346","743809","0.0-13.0-1.0-1.0-0.1-1.92","null","<span style='color:GreenYellow; font-size: 70px;'>正确! </span>","null","","","","","","","","","","","","","","","","","","","","","","","feedback_test"
"","","","","","psychophysics","347","745542","0.0-13.0-1.0-1.0-0.1-0.93","582","","f","","","","","","","","","","","","","key","f","11.110890322580422","660.779796278986","408.94494160549533","f","true","img/S_ambi40.png","圆形","word_first",""
"","","","","","html-keyboard-response","348","745845","0.0-13.0-1.0-1.0-0.1-1.93","null","<span style='color:GreenYellow; font-size: 70px;'>正确! </span>","null","","","","","","","","","","","","","","","","","","","","","","","feedback_test"
"","","","","","psychophysics","349","747555","0.0-13.0-1.0-1.0-0.1-0.94","559","","j","","","","","","","","","","","","","key","j","11.110725490196023","660.779796278986","408.94494160549533","j","true","img/S_ambi40.png","方形","word_first",""
"","","","","","html-keyboard-response","350","747869","0.0-13.0-1.0-1.0-0.1-1.94","null","<span style='color:GreenYellow; font-size: 70px;'>正确! </span>","null","","","","","","","","","","","","","","","","","","","","","","","feedback_test"
"","","","","","psychophysics","351","749445","0.0-13.0-1.0-1.0-0.1-0.95","425","","j","","","","","","","","","","","","","key","j","11.111035460993444","660.779796278986","408.94494160549533","j","true","img/T_ambi40.png","三角","word_first",""
"","","","","","html-keyboard-response","352","749749","0.0-13.0-1.0-1.0-0.1-1.95","null","<span style='color:GreenYellow; font-size: 70px;'>正确! </span>","null","","","","","","","","","","","","","","","","","","","","","","","feedback_test"
"","","","","","psychophysics","353","751273","0.0-13.0-1.0-1.0-0.1-0.96","370","","f","","","","","","","","","","","","","key","f","11.110705882353667","660.779796278986","408.94494160549533","j","false","img/C_ambi40.png","圆形","word_first",""
"","","","","","html-keyboard-response","354","751576","0.0-13.0-1.0-1.0-0.1-1.96","null","<span style='color:red; font-size: 70px;'>错误! </span>","null","","","","","","","","","","","","","","","","","","","","","","","feedback_test"
"","","","","","psychophysics","355","753143","0.0-13.0-1.0-1.0-0.1-0.97","414","","j","","","","","","","","","","","","","key","j","11.11072857142842","660.779796278986","408.94494160549533","j","true","img/S_ambi40.png","方形","word_first",""
"","","","","","html-keyboard-response","356","753460","0.0-13.0-1.0-1.0-0.1-1.97","null","<span style='color:GreenYellow; font-size: 70px;'>正确! </span>","null","","","","","","","","","","","","","","","","","","","","","","","feedback_test"
"","","","","","psychophysics","357","755006","0.0-13.0-1.0-1.0-0.1-0.98","389","","j","","","","","","","","","","","","","key","j","11.110978260870004","660.779796278986","408.94494160549533","j","true","img/T_ambi40.png","三角","word_first",""
"","","","","","html-keyboard-response","358","755317","0.0-13.0-1.0-1.0-0.1-1.98","null","<span style='color:GreenYellow; font-size: 70px;'>正确! </span>","null","","","","","","","","","","","","","","","","","","","","","","","feedback_test"
"","","","","","psychophysics","359","756912","0.0-13.0-1.0-1.0-0.1-0.99","437","","f","","","","","","","","","","","","","key","f","11.11084615384551","660.779796278986","408.94494160549533","f","true","img/S_ambi40.png","圆形","word_first",""
"","","","","","html-keyboard-response","360","757215","0.0-13.0-1.0-1.0-0.1-1.99","null","<span style='color:GreenYellow; font-size: 70px;'>正确! </span>","null","","","","","","","","","","","","","","","","","","","","","","","feedback_test"
"","","","","","psychophysics","361","758775","0.0-13.0-1.0-1.0-0.1-0.100","405","","j","","","","","","","","","","","","","key","j","11.111028571428532","660.779796278986","408.94494160549533","f","false","img/C_ambi40.png","三角","word_first",""
"","","","","","html-keyboard-response","362","759086","0.0-13.0-1.0-1.0-0.1-1.100","null","<span style='color:red; font-size: 70px;'>错误! </span>","null","","","","","","","","","","","","","","","","","","","","","","","feedback_test"
"","","","","","psychophysics","363","760654","0.0-13.0-1.0-1.0-0.1-0.101","416","","j","","","","","","","","","","","","","key","j","11.110892857143023","660.779796278986","408.94494160549533","j","true","img/C_ambi40.png","圆形","word_first",""
"","","","","","html-keyboard-response","364","760967","0.0-13.0-1.0-1.0-0.1-1.101","null","<span style='color:GreenYellow; font-size: 70px;'>正确! </span>","null","","","","","","","","","","","","","","","","","","","","","","","feedback_test"
"","","","","","psychophysics","365","762563","0.0-13.0-1.0-1.0-0.1-0.102","444","","f","","","","","","","","","","","","","key","f","11.111077464789048","660.779796278986","408.94494160549533","f","true","img/T_ambi40.png","圆形","word_first",""
"","","","","","html-keyboard-response","366","762878","0.0-13.0-1.0-1.0-0.1-1.102","null","<span style='color:GreenYellow; font-size: 70px;'>正确! </span>","null","","","","","","","","","","","","","","","","","","","","","","","feedback_test"
"","","","","","psychophysics","367","764657","0.0-13.0-1.0-1.0-0.1-0.103","627","","f","","","","","","","","","","","","","key","f","11.110849056603774","660.779796278986","408.94494160549533","f","true","img/C_ambi40.png","方形","word_first",""
"","","","","","html-keyboard-response","368","764967","0.0-13.0-1.0-1.0-0.1-1.103","null","<span style='color:GreenYellow; font-size: 70px;'>正确! </span>","null","","","","","","","","","","","","","","","","","","","","","","","feedback_test"
"","","","","","psychophysics","369","766711","0.0-13.0-1.0-1.0-0.1-0.104","592","","f","","","","","","","","","","","","","key","f","11.11097435897458","660.779796278986","408.94494160549533","f","true","img/S_ambi40.png","三角","word_first",""
"","","","","","html-keyboard-response","370","767014","0.0-13.0-1.0-1.0-0.1-1.104","null","<span style='color:GreenYellow; font-size: 70px;'>正确! </span>","null","","","","","","","","","","","","","","","","","","","","","","","feedback_test"
"","","","","","psychophysics","371","768632","0.0-13.0-1.0-1.0-0.1-0.105","464","","f","","","","","","","","","","","","","key","f","11.111158620689771","660.779796278986","408.94494160549533","f","true","img/T_ambi40.png","方形","word_first",""
"","","","","","html-keyboard-response","372","768936","0.0-13.0-1.0-1.0-0.1-1.105","null","<span style='color:GreenYellow; font-size: 70px;'>正确! </span>","null","","","","","","","","","","","","","","","","","","","","","","","feedback_test"
"","","","","","psychophysics","373","770484","0.0-13.0-1.0-1.0-0.1-0.106","387","","j","","","","","","","","","","","","","key","j","11.110898550724665","660.779796278986","408.94494160549533","j","true","img/T_ambi40.png","三角","word_first",""
"","","","","","html-keyboard-response","374","770799","0.0-13.0-1.0-1.0-0.1-1.106","null","<span style='color:GreenYellow; font-size: 70px;'>正确! </span>","null","","","","","","","","","","","","","","","","","","","","","","","feedback_test"
"","","","","","psychophysics","375","772458","0.0-13.0-1.0-1.0-0.1-0.107","508","","j","","","","","","","","","","","","","key","j","11.110905405405337","660.779796278986","408.94494160549533","j","true","img/S_ambi40.png","方形","word_first",""
"","","","","","html-keyboard-response","376","772771","0.0-13.0-1.0-1.0-0.1-1.107","null","<span style='color:GreenYellow; font-size: 70px;'>正确! </span>","null","","","","","","","","","","","","","","","","","","","","","","","feedback_test"
"","","","","","psychophysics","377","774397","0.0-13.0-1.0-1.0-0.1-0.108","467","","j","","","","","","","","","","","","","key","j","11.110773972603205","660.779796278986","408.94494160549533","j","true","img/S_ambi40.png","方形","word_first",""
"","","","","","html-keyboard-response","378","774699","0.0-13.0-1.0-1.0-0.1-1.108","null","<span style='color:GreenYellow; font-size: 70px;'>正确! </span>","null","","","","","","","","","","","","","","","","","","","","","","","feedback_test"
"","","","","","psychophysics","379","776306","0.0-13.0-1.0-1.0-0.1-0.109","454","","f","","","","","","","","","","","","","key","f","11.110972027971663","660.779796278986","408.94494160549533","f","true","img/C_ambi40.png","方形","word_first",""
"","","","","","html-keyboard-response","380","776611","0.0-13.0-1.0-1.0-0.1-1.109","null","<span style='color:GreenYellow; font-size: 70px;'>正确! </span>","null","","","","","","","","","","","","","","","","","","","","","","","feedback_test"
"","","","","","psychophysics","381","778197","0.0-13.0-1.0-1.0-0.1-0.110","434","","j","","","","","","","","","","","","","key","j","11.110816901408686","660.779796278986","408.94494160549533","j","true","img/T_ambi40.png","三角","word_first",""
"","","","","","html-keyboard-response","382","778500","0.0-13.0-1.0-1.0-0.1-1.110","null","<span style='color:GreenYellow; font-size: 70px;'>正确! </span>","null","","","","","","","","","","","","","","","","","","","","","","","feedback_test"
"","","","","","psychophysics","383","780171","0.0-13.0-1.0-1.0-0.1-0.111","519","","f","","","","","","","","","","","","","key","f","11.110906040268613","660.779796278986","408.94494160549533","f","true","img/T_ambi40.png","圆形","word_first",""
"","","","","","html-keyboard-response","384","780480","0.0-13.0-1.0-1.0-0.1-1.111","null","<span style='color:GreenYellow; font-size: 70px;'>正确! </span>","null","","","","","","","","","","","","","","","","","","","","","","","feedback_test"
"","","","","","psychophysics","385","782190","0.0-13.0-1.0-1.0-0.1-0.112","559","","j","","","","","","","","","","","","","key","j","11.110993464052026","660.779796278986","408.94494160549533","j","true","img/T_ambi40.png","三角","word_first",""
"","","","","","html-keyboard-response","386","782499","0.0-13.0-1.0-1.0-0.1-1.112","null","<span style='color:GreenYellow; font-size: 70px;'>正确! </span>","null","","","","","","","","","","","","","","","","","","","","","","","feedback_test"
"","","","","","psychophysics","387","784139","0.0-13.0-1.0-1.0-0.1-0.113","487","","f","","","","","","","","","","","","","key","f","11.110945205480077","660.779796278986","408.94494160549533","f","true","img/S_ambi40.png","三角","word_first",""
"","","","","","html-keyboard-response","388","784443","0.0-13.0-1.0-1.0-0.1-1.113","null","<span style='color:GreenYellow; font-size: 70px;'>正确! </span>","null","","","","","","","","","","","","","","","","","","","","","","","feedback_test"
"","","","","","psychophysics","389","786137","0.0-13.0-1.0-1.0-0.1-0.114","541","","j","","","","","","","","","","","","","key","j","11.111006622516475","660.779796278986","408.94494160549533","j","true","img/C_ambi40.png","圆形","word_first",""
"","","","","","html-keyboard-response","390","786446","0.0-13.0-1.0-1.0-0.1-1.114","null","<span style='color:GreenYellow; font-size: 70px;'>正确! </span>","null","","","","","","","","","","","","","","","","","","","","","","","feedback_test"
"","","","","","psychophysics","391","788066","0.0-13.0-1.0-1.0-0.1-0.115","460","","f","","","","","","","","","","","","","key","f","11.111089655172465","660.779796278986","408.94494160549533","f","true","img/C_ambi40.png","三角","word_first",""
"","","","","","html-keyboard-response","392","788371","0.0-13.0-1.0-1.0-0.1-1.115","null","<span style='color:GreenYellow; font-size: 70px;'>正确! </span>","null","","","","","","","","","","","","","","","","","","","","","","","feedback_test"
"","","","","","psychophysics","393","790020","0.0-13.0-1.0-1.0-0.1-0.116","496","","j","","","","","","","","","","","","","key","j","11.11088513513489","660.779796278986","408.94494160549533","j","true","img/C_ambi40.png","圆形","word_first",""
"","","","","","html-keyboard-response","394","790333","0.0-13.0-1.0-1.0-0.1-1.116","null","<span style='color:GreenYellow; font-size: 70px;'>正确! </span>","null","","","","","","","","","","","","","","","","","","","","","","","feedback_test"
"","","","","","psychophysics","395","791960","0.0-13.0-1.0-1.0-0.1-0.117","475","","f","","","","","","","","","","","","","key","f","11.111110344827818","660.779796278986","408.94494160549533","f","true","img/S_ambi40.png","圆形","word_first",""
"","","","","","html-keyboard-response","396","792263","0.0-13.0-1.0-1.0-0.1-1.117","null","<span style='color:GreenYellow; font-size: 70px;'>正确! </span>","null","","","","","","","","","","","","","","","","","","","","","","","feedback_test"
"","","","","","psychophysics","397","793978","0.0-13.0-1.0-1.0-0.1-0.118","563","","j","","","","","","","","","","","","","key","j","11.110901960784272","660.779796278986","408.94494160549533","j","true","img/S_ambi40.png","方形","word_first",""
"","","","","","html-keyboard-response","398","794285","0.0-13.0-1.0-1.0-0.1-1.118","null","<span style='color:GreenYellow; font-size: 70px;'>正确! </span>","null","","","","","","","","","","","","","","","","","","","","","","","feedback_test"
"","","","","","psychophysics","399","795911","0.0-13.0-1.0-1.0-0.1-0.119","471","","f","","","","","","","","","","","","","key","f","11.110986206896508","660.779796278986","408.94494160549533","f","true","img/T_ambi40.png","方形","word_first",""
"","","","","","html-keyboard-response","400","796219","0.0-13.0-1.0-1.0-0.1-1.119","null","<span style='color:GreenYellow; font-size: 70px;'>正确! </span>","null","","","","","","","","","","","","","","","","","","","","","","","feedback_test"
"","","","","","html-keyboard-response","401","797930","0.0-13.0-1.0-1.0-1.1","1710","<style>.context{color:white; font-size: 35px; line-height:40px}</style>                            <div><p class='context'>您正确回答了88% 的试次。</p><p class='context'>您的平均反应时为520毫秒。</p><p class='context'>请按任意键进入休息</p></div>"," ","","","","","","","","","","","","","","","","","","","","","","",""
"","","","","","html-button-response","402","817796","0.0-13.0-1.0-1.0-2.1","19864","
                    <p>您当前还剩余2组实验</p>
                    <p>现在是休息时间，当您结束休息后，您可以点击 结束休息 按钮 继续</p>
                    <p>建议休息时间还剩余<span id=""iii"">60</span>秒</p>","0","","","","","","","","","","","","","","","","","","","","","","",""
"","","","","","psychophysics","403","819373","0.0-13.0-1.0-1.0-0.2-0.120","425","","j","","","","","","","","","","","","","key","j","11.09174285714315","660.779796278986","408.94494160549533","j","true","img/C_ambi40.png","圆形","word_first",""
"","","","","","html-keyboard-response","404","819681","0.0-13.0-1.0-1.0-0.2-1.120","null","<span style='color:GreenYellow; font-size: 70px;'>正确! </span>","null","","","","","","","","","","","","","","","","","","","","","","","feedback_test"
"","","","","","psychophysics","405","821228","0.0-13.0-1.0-1.0-0.2-0.121","390","","j","","","","","","","","","","","","","key","j","11.110913043478133","660.779796278986","408.94494160549533","j","true","img/T_ambi40.png","三角","word_first",""
"","","","","","html-keyboard-response","406","821540","0.0-13.0-1.0-1.0-0.2-1.121","null","<span style='color:GreenYellow; font-size: 70px;'>正确! </span>","null","","","","","","","","","","","","","","","","","","","","","","","feedback_test"
"","","","","","psychophysics","407","823227","0.0-13.0-1.0-1.0-0.2-0.122","532","","j","","","","","","","","","","","","","key","j","11.110833333333334","660.779796278986","408.94494160549533","f","false","img/C_ambi40.png","方形","word_first",""
"","","","","","html-keyboard-response","408","823534","0.0-13.0-1.0-1.0-0.2-1.122","null","<span style='color:red; font-size: 70px;'>错误! </span>","null","","","","","","","","","","","","","","","","","","","","","","","feedback_test"
