"success","timeout","failed_images","failed_audio","failed_video","trial_type","trial_index","time_elapsed","internal_node_id","rt","stimulus","response","value","item_width_mm","item_height_mm","item_width_px","px2mm","view_dist_mm","item_width_deg","px2deg","scale_factor","win_width_deg","win_height_deg","view_history","response_type","key_press","avg_frame_time","center_x","center_y","correct_response","correct","Image","word","condition","screen_id"
"true","false","[]","[]","[]","preload","0","584","0.0-0.0","","","","","","","","","","","","","","","","","","","","","","","","","",""
"","","","","","html-keyboard-response","1","62131","0.0-1.0","61545","
   <p>您好，欢迎参加本次实验。</p>
   <p>为充分保障您的权利，请确保您已经知晓并同意《参与实验同意书》以及《数据公开知情同意书》。</p>
   <p>如果您未见过上述内容，请咨询实验员。</p>
   <p>如果您选择继续实验，则表示您已经清楚两份知情同意书的内容并同意。</p>
   <p> <div style = ""color: green""><按任意键至下页></div> </p>
   "," ","","","","","","","","","","","","","","","","","","","","","","",""
"","","","","","html-keyboard-response","2","65320","0.0-2.0","3188","
   <p>本实验首先需要您填写一些基本个人信息。</p>
   <p> <div style = ""color: green""><按任意键至下页></div></p>
   "," ","","","","","","","","","","","","","","","","","","","","","","",""
"","","","","","call-function","3","65320","0.0-3.0-0.0","","","","","","","","","","","","","","","","","","","","","","","","","",""
"","","","","","survey-html-form","4","72935","0.0-3.0-1.0","7613","","{""Q0"":""4""}","","","","","","","","","","","","","","","","","","","","","","",""
"","","","","","html-button-response","5","74670","0.0-3.0-2.0","1735","<p style = 'color : white'>您的性别</p>","0","","","","","","","","","","","","","","","","","","","","","","",""
"","","","","","survey-html-form","6","79522","0.0-3.0-3.0","4851","","{""Q0"":""2001""}","","","","","","","","","","","","","","","","","","","","","","",""
"","","","","","survey-html-form","7","92350","0.0-3.0-4.0","12827","","{""Q0"":""5""}","","","","","","","","","","","","","","","","","","","","","","",""
"","","","","","virtual-chinrest","8","262482","0.0-4.0","170131","","","","85.6","53.98","414.46237411042944","4.841850164841465","590.64","8.289247482208589","50","1.0326630998015844","34.14","19.12","","","","","","","","","","","",""
"true","","","","","fullscreen","9","270325","0.0-5.0","","","","","","","","","","","","","","","","","","","","","","","","","",""
"","","","","","instructions","10","321661","0.0-6.0","51333","","","","","","","","","","","","","","[{""page_index"":0,""viewing_time"":5000},{""page_index"":1,""viewing_time"":19937},{""page_index"":2,""viewing_time"":26176},{""page_index"":3,""viewing_time"":220}]","","","","","","","","","","",""
"","","","","","psychophysics","11","324321","0.0-7.0-0.0-0.0","null","","null","","","","","","","","","","","","","key","null","16.66672151898737","853.3333333333334","529.3333333333334","f","false","img/S_ambi40.png","方形","prac_image_first",""
"","","","","","html-keyboard-response","12","324630","0.0-7.0-0.0-1.0","null","<span class='add_' style='color:yellow; font-size: 70px;'> 太慢! </span>","null","","","","","","","","","","","","","","","","","","","","","","","feedback_test"
"","","","","","psychophysics","13","327290","0.0-7.0-0.0-0.1","null","","null","","","","","","","","","","","","","key","null","16.667069620253148","853.3333333333334","529.3333333333334","f","false","img/S_ambi40.png","方形","prac_image_first",""
"","","","","","html-keyboard-response","14","327607","0.0-7.0-0.0-1.1","null","<span class='add_' style='color:yellow; font-size: 70px;'> 太慢! </span>","null","","","","","","","","","","","","","","","","","","","","","","","feedback_test"
"","","","","","psychophysics","15","329474","0.0-7.0-0.0-0.2","704","","f","","","","","","","","","","","","","key","f","16.666576576576492","853.3333333333334","529.3333333333334","j","false","img/T_ambi40.png","方形","prac_image_first",""
"","","","","","html-keyboard-response","16","329779","0.0-7.0-0.0-1.2","null","<span style='color:red; font-size: 70px;'>错误! </span>","null","","","","","","","","","","","","","","","","","","","","","","","feedback_test"
"","","","","","psychophysics","17","331532","0.0-7.0-0.0-0.3","595","","j","","","","","","","","","","","","","key","j","16.666855769230796","853.3333333333334","529.3333333333334","f","false","img/C_ambi40.png","圆形","prac_image_first",""
"","","","","","html-keyboard-response","18","331848","0.0-7.0-0.0-1.3","null","<span style='color:red; font-size: 70px;'>错误! </span>","null","","","","","","","","","","","","","","","","","","","","","","","feedback_test"
"","","","","","psychophysics","19","333893","0.0-7.0-0.0-0.4","888","","j","","","","","","","","","","","","","key","j","16.666565573770463","853.3333333333334","529.3333333333334","j","true","img/C_ambi40.png","方形","prac_image_first",""
"","","","","","html-keyboard-response","20","334211","0.0-7.0-0.0-1.4","null","<span style='color:GreenYellow; font-size: 70px;'>正确! </span>","null","","","","","","","","","","","","","","","","","","","","","","","feedback_test"
"","","","","","psychophysics","21","335998","0.0-7.0-0.0-0.5","628","","f","","","","","","","","","","","","","key","f","16.66627358490566","853.3333333333334","529.3333333333334","f","true","img/T_ambi40.png","三角","prac_image_first",""
"","","","","","html-keyboard-response","22","336312","0.0-7.0-0.0-1.5","null","<span style='color:GreenYellow; font-size: 70px;'>正确! </span>","null","","","","","","","","","","","","","","","","","","","","","","","feedback_test"
"","","","","","psychophysics","23","338278","0.0-7.0-0.0-0.6","806","","j","","","","","","","","","","","","","key","j","16.666675213675124","853.3333333333334","529.3333333333334","j","true","img/S_ambi40.png","三角","prac_image_first",""
"","","","","","html-keyboard-response","24","338597","0.0-7.0-0.0-1.6","null","<span style='color:GreenYellow; font-size: 70px;'>正确! </span>","null","","","","","","","","","","","","","","","","","","","","","","","feedback_test"
"","","","","","psychophysics","25","340453","0.0-7.0-0.0-0.7","697","","f","","","","","","","","","","","","","key","f","16.66658181818202","853.3333333333334","529.3333333333334","f","true","img/T_ambi40.png","三角","prac_image_first",""
"","","","","","html-keyboard-response","26","340762","0.0-7.0-0.0-1.7","null","<span style='color:GreenYellow; font-size: 70px;'>正确! </span>","null","","","","","","","","","","","","","","","","","","","","","","","feedback_test"
"","","","","","psychophysics","27","342536","0.0-7.0-0.0-0.8","614","","j","","","","","","","","","","","","","key","j","16.666771428571415","853.3333333333334","529.3333333333334","j","true","img/T_ambi40.png","圆形","prac_image_first",""
"","","","","","html-keyboard-response","28","342854","0.0-7.0-0.0-1.8","null","<span style='color:GreenYellow; font-size: 70px;'>正确! </span>","null","","","","","","","","","","","","","","","","","","","","","","","feedback_test"
"","","","","","psychophysics","29","344707","0.0-7.0-0.0-0.9","702","","f","","","","","","","","","","","","","key","f","16.666720720720665","853.3333333333334","529.3333333333334","j","false","img/S_ambi40.png","圆形","prac_image_first",""
"","","","","","html-keyboard-response","30","345023","0.0-7.0-0.0-1.9","null","<span style='color:red; font-size: 70px;'>错误! </span>","null","","","","","","","","","","","","","","","","","","","","","","","feedback_test"
"","","","","","psychophysics","31","346909","0.0-7.0-0.0-0.10","726","","j","","","","","","","","","","","","","key","j","16.666642857142765","853.3333333333334","529.3333333333334","j","true","img/C_ambi40.png","三角","prac_image_first",""
"","","","","","html-keyboard-response","32","347222","0.0-7.0-0.0-1.10","null","<span style='color:GreenYellow; font-size: 70px;'>正确! </span>","null","","","","","","","","","","","","","","","","","","","","","","","feedback_test"
"","","","","","psychophysics","33","348941","0.0-7.0-0.0-0.11","568","","f","","","","","","","","","","","","","key","f","16.666519607843","853.3333333333334","529.3333333333334","f","true","img/C_ambi40.png","圆形","prac_image_first",""
"","","","","","html-keyboard-response","34","349259","0.0-7.0-0.0-1.11","null","<span style='color:GreenYellow; font-size: 70px;'>正确! </span>","null","","","","","","","","","","","","","","","","","","","","","","","feedback_test"
"","","","","","psychophysics","35","351121","0.0-7.0-0.0-0.12","699","","j","","","","","","","","","","","","","key","j","16.66658181818149","853.3333333333334","529.3333333333334","j","true","img/S_ambi40.png","圆形","prac_image_first",""
"","","","","","html-keyboard-response","36","351438","0.0-7.0-0.0-1.12","null","<span style='color:GreenYellow; font-size: 70px;'>正确! </span>","null","","","","","","","","","","","","","","","","","","","","","","","feedback_test"
"","","","","","psychophysics","37","353715","0.0-7.0-0.0-0.13","1126","","j","","","","","","","","","","","","","key","j","16.666422222222252","853.3333333333334","529.3333333333334","f","false","img/S_ambi40.png","方形","prac_image_first",""
"","","","","","html-keyboard-response","38","354028","0.0-7.0-0.0-1.13","null","<span style='color:red; font-size: 70px;'>错误! </span>","null","","","","","","","","","","","","","","","","","","","","","","","feedback_test"
"","","","","","psychophysics","39","355910","0.0-7.0-0.0-0.14","723","","j","","","","","","","","","","","","","key","j","16.6665535714284","853.3333333333334","529.3333333333334","j","true","img/S_ambi40.png","三角","prac_image_first",""
"","","","","","html-keyboard-response","40","356227","0.0-7.0-0.0-1.14","null","<span style='color:GreenYellow; font-size: 70px;'>正确! </span>","null","","","","","","","","","","","","","","","","","","","","","","","feedback_test"
"","","","","","psychophysics","41","358323","0.0-7.0-0.0-0.15","937","","f","","","","","","","","","","","","","key","f","16.66687999999989","853.3333333333334","529.3333333333334","j","false","img/C_ambi40.png","方形","prac_image_first",""
"","","","","","html-keyboard-response","42","358640","0.0-7.0-0.0-1.15","null","<span style='color:red; font-size: 70px;'>错误! </span>","null","","","","","","","","","","","","","","","","","","","","","","","feedback_test"
"","","","","","psychophysics","43","360910","0.0-7.0-0.0-0.16","1107","","j","","","","","","","","","","","","","key","j","16.666540740740796","853.3333333333334","529.3333333333334","f","false","img/C_ambi40.png","圆形","prac_image_first",""
"","","","","","html-keyboard-response","44","361227","0.0-7.0-0.0-1.16","null","<span style='color:red; font-size: 70px;'>错误! </span>","null","","","","","","","","","","","","","","","","","","","","","","","feedback_test"
"","","","","","psychophysics","45","363263","0.0-7.0-0.0-0.17","874","","j","","","","","","","","","","","","","key","j","16.666454545454574","853.3333333333334","529.3333333333334","j","true","img/T_ambi40.png","方形","prac_image_first",""
"","","","","","html-keyboard-response","46","363579","0.0-7.0-0.0-1.17","null","<span style='color:GreenYellow; font-size: 70px;'>正确! </span>","null","","","","","","","","","","","","","","","","","","","","","","","feedback_test"
"","","","","","psychophysics","47","365342","0.0-7.0-0.0-0.18","603","","f","","","","","","","","","","","","","key","f","16.66670476190491","853.3333333333334","529.3333333333334","f","true","img/T_ambi40.png","三角","prac_image_first",""
"","","","","","html-keyboard-response","48","365645","0.0-7.0-0.0-1.18","null","<span style='color:GreenYellow; font-size: 70px;'>正确! </span>","null","","","","","","","","","","","","","","","","","","","","","","","feedback_test"
"","","","","","psychophysics","49","367487","0.0-7.0-0.0-0.19","682","","j","","","","","","","","","","","","","key","j","16.666788990825623","853.3333333333334","529.3333333333334","j","true","img/T_ambi40.png","圆形","prac_image_first",""
"","","","","","html-keyboard-response","50","367796","0.0-7.0-0.0-1.19","null","<span style='color:GreenYellow; font-size: 70px;'>正确! </span>","null","","","","","","","","","","","","","","","","","","","","","","","feedback_test"
"","","","","","psychophysics","51","369697","0.0-7.0-0.0-0.20","742","","f","","","","","","","","","","","","","key","f","16.666132743362713","853.3333333333334","529.3333333333334","f","true","img/T_ambi40.png","三角","prac_image_first",""
"","","","","","html-keyboard-response","52","370015","0.0-7.0-0.0-1.20","null","<span style='color:GreenYellow; font-size: 70px;'>正确! </span>","null","","","","","","","","","","","","","","","","","","","","","","","feedback_test"
"","","","","","psychophysics","53","371807","0.0-7.0-0.0-0.21","635","","f","","","","","","","","","","","","","key","f","16.66659813084113","853.3333333333334","529.3333333333334","f","true","img/S_ambi40.png","方形","prac_image_first",""
"","","","","","html-keyboard-response","54","372120","0.0-7.0-0.0-1.21","null","<span style='color:GreenYellow; font-size: 70px;'>正确! </span>","null","","","","","","","","","","","","","","","","","","","","","","","feedback_test"
"","","","","","psychophysics","55","373895","0.0-7.0-0.0-0.22","623","","f","","","","","","","","","","","","","key","f","16.66662264150954","853.3333333333334","529.3333333333334","f","true","img/C_ambi40.png","圆形","prac_image_first",""
"","","","","","html-keyboard-response","56","374205","0.0-7.0-0.0-1.22","null","<span style='color:GreenYellow; font-size: 70px;'>正确! </span>","null","","","","","","","","","","","","","","","","","","","","","","","feedback_test"
"","","","","","psychophysics","57","375846","0.0-7.0-0.0-0.23","490","","f","","","","","","","","","","","","","key","f","16.666432989690424","853.3333333333334","529.3333333333334","j","false","img/C_ambi40.png","三角","prac_image_first",""
"","","","","","html-keyboard-response","58","376155","0.0-7.0-0.0-1.23","null","<span style='color:red; font-size: 70px;'>错误! </span>","null","","","","","","","","","","","","","","","","","","","","","","","feedback_test"
"","","","","","html-keyboard-response","59","380822","0.0-8.0","4666","<style>.context{color:white; font-size: 35px; line-height:40px}</style>                            <div><p class='context'>您正确回答了63% 的试次。</p><p class='context'>您的平均反应时为701毫秒。</p><p class='context'>恭喜您完成这一阶段的练习。按任意键进入<span style='color: yellow;'>先文字后图形条件</span>的练习。</p></div>"," ","","","","","","","","","","","","","","","","","","","","","","",""
"","","","","","psychophysics","60","382870","0.0-9.0-0.0-0.0","890","","j","","","","","","","","","","","","","key","j","16.66684297520681","853.3333333333334","529.3333333333334","j","true","img/S_ambi40.png","圆形","prac_word_first",""
"","","","","","html-keyboard-response","61","383189","0.0-9.0-0.0-1.0","null","<span style='color:GreenYellow; font-size: 70px;'>正确! </span>","null","","","","","","","","","","","","","","","","","","","","","","","feedback_test"
"","","","","","psychophysics","62","385170","0.0-9.0-0.0-0.1","818","","j","","","","","","","","","","","","","key","j","16.66633333333342","853.3333333333334","529.3333333333334","j","true","img/T_ambi40.png","圆形","prac_word_first",""
"","","","","","html-keyboard-response","63","385485","0.0-9.0-0.0-1.1","null","<span style='color:GreenYellow; font-size: 70px;'>正确! </span>","null","","","","","","","","","","","","","","","","","","","","","","","feedback_test"
"","","","","","psychophysics","64","387248","0.0-9.0-0.0-0.2","610","","f","","","","","","","","","","","","","key","f","16.66683809523792","853.3333333333334","529.3333333333334","f","true","img/C_ambi40.png","圆形","prac_word_first",""
"","","","","","html-keyboard-response","65","387555","0.0-9.0-0.0-1.2","null","<span style='color:GreenYellow; font-size: 70px;'>正确! </span>","null","","","","","","","","","","","","","","","","","","","","","","","feedback_test"
"","","","","","psychophysics","66","389386","0.0-9.0-0.0-0.3","681","","j","","","","","","","","","","","","","key","j","16.666703703703845","853.3333333333334","529.3333333333334","j","true","img/S_ambi40.png","三角","prac_word_first",""
"","","","","","html-keyboard-response","67","389703","0.0-9.0-0.0-1.3","null","<span style='color:GreenYellow; font-size: 70px;'>正确! </span>","null","","","","","","","","","","","","","","","","","","","","","","","feedback_test"
"","","","","","psychophysics","68","391791","0.0-9.0-0.0-0.4","936","","j","","","","","","","","","","","","","key","j","16.66617599999998","853.3333333333334","529.3333333333334","j","true","img/C_ambi40.png","方形","prac_word_first",""
"","","","","","html-keyboard-response","69","392111","0.0-9.0-0.0-1.4","null","<span style='color:GreenYellow; font-size: 70px;'>正确! </span>","null","","","","","","","","","","","","","","","","","","","","","","","feedback_test"
"","","","","","psychophysics","70","394080","0.0-9.0-0.0-0.5","809","","f","","","","","","","","","","","","","key","f","16.666376068375698","853.3333333333334","529.3333333333334","f","true","img/C_ambi40.png","圆形","prac_word_first",""
"","","","","","html-keyboard-response","71","394390","0.0-9.0-0.0-1.5","null","<span style='color:GreenYellow; font-size: 70px;'>正确! </span>","null","","","","","","","","","","","","","","","","","","","","","","","feedback_test"
"","","","","","psychophysics","72","396196","0.0-9.0-0.0-0.6","644","","f","","","","","","","","","","","","","key","f","16.66650467289712","853.3333333333334","529.3333333333334","f","true","img/T_ambi40.png","三角","prac_word_first",""
"","","","","","html-keyboard-response","73","396512","0.0-9.0-0.0-1.6","null","<span style='color:GreenYellow; font-size: 70px;'>正确! </span>","null","","","","","","","","","","","","","","","","","","","","","","","feedback_test"
"","","","","","psychophysics","74","398383","0.0-9.0-0.0-0.7","711","","j","","","","","","","","","","","","","key","j","16.666738738739017","853.3333333333334","529.3333333333334","f","false","img/S_ambi40.png","方形","prac_word_first",""
"","","","","","html-keyboard-response","75","398700","0.0-9.0-0.0-1.7","null","<span style='color:red; font-size: 70px;'>错误! </span>","null","","","","","","","","","","","","","","","","","","","","","","","feedback_test"
"","","","","","psychophysics","76","400661","0.0-9.0-0.0-0.8","806","","j","","","","","","","","","","","","","key","j","16.666435897435882","853.3333333333334","529.3333333333334","j","true","img/T_ambi40.png","方形","prac_word_first",""
"","","","","","html-keyboard-response","77","400977","0.0-9.0-0.0-1.8","null","<span style='color:GreenYellow; font-size: 70px;'>正确! </span>","null","","","","","","","","","","","","","","","","","","","","","","","feedback_test"
"","","","","","psychophysics","78","402771","0.0-9.0-0.0-0.9","633","","j","","","","","","","","","","","","","key","j","16.66601886792451","853.3333333333334","529.3333333333334","j","true","img/C_ambi40.png","三角","prac_word_first",""
"","","","","","html-keyboard-response","79","403074","0.0-9.0-0.0-1.9","null","<span style='color:GreenYellow; font-size: 70px;'>正确! </span>","null","","","","","","","","","","","","","","","","","","","","","","","feedback_test"
"","","","","","psychophysics","80","405164","0.0-9.0-0.0-0.10","926","","f","","","","","","","","","","","","","key","f","16.666564516128876","853.3333333333334","529.3333333333334","f","true","img/T_ambi40.png","三角","prac_word_first",""
"","","","","","html-keyboard-response","81","405488","0.0-9.0-0.0-1.10","null","<span style='color:GreenYellow; font-size: 70px;'>正确! </span>","null","","","","","","","","","","","","","","","","","","","","","","","feedback_test"
"","","","","","psychophysics","82","407236","0.0-9.0-0.0-0.11","598","","j","","","","","","","","","","","","","key","j","16.52909708737839","853.3333333333334","529.3333333333334","f","false","img/S_ambi40.png","方形","prac_word_first",""
"","","","","","html-keyboard-response","83","407554","0.0-9.0-0.0-1.11","null","<span style='color:red; font-size: 70px;'>错误! </span>","null","","","","","","","","","","","","","","","","","","","","","","","feedback_test"
"","","","","","psychophysics","84","409248","0.0-9.0-0.0-0.12","527","","f","","","","","","","","","","","","","key","f","16.516010000000243","853.3333333333334","529.3333333333334","f","true","img/T_ambi40.png","三角","prac_word_first",""
"","","","","","html-keyboard-response","85","409564","0.0-9.0-0.0-1.12","null","<span style='color:GreenYellow; font-size: 70px;'>正确! </span>","null","","","","","","","","","","","","","","","","","","","","","","","feedback_test"
"","","","","","psychophysics","86","411331","0.0-9.0-0.0-0.13","610","","j","","","","","","","","","","","","","key","j","16.66697142857149","853.3333333333334","529.3333333333334","j","true","img/C_ambi40.png","方形","prac_word_first",""
"","","","","","html-keyboard-response","87","411644","0.0-9.0-0.0-1.13","null","<span style='color:GreenYellow; font-size: 70px;'>正确! </span>","null","","","","","","","","","","","","","","","","","","","","","","","feedback_test"
"","","","","","psychophysics","88","413415","0.0-9.0-0.0-0.14","610","","j","","","","","","","","","","","","","key","j","16.666438095237773","853.3333333333334","529.3333333333334","j","true","img/C_ambi40.png","三角","prac_word_first",""
"","","","","","html-keyboard-response","89","413728","0.0-9.0-0.0-1.14","null","<span style='color:GreenYellow; font-size: 70px;'>正确! </span>","null","","","","","","","","","","","","","","","","","","","","","","","feedback_test"
"","","","","","psychophysics","90","415718","0.0-9.0-0.0-0.15","830","","f","","","","","","","","","","","","","key","f","16.66668644067841","853.3333333333334","529.3333333333334","j","false","img/S_ambi40.png","三角","prac_word_first",""
"","","","","","html-keyboard-response","91","416036","0.0-9.0-0.0-1.15","null","<span style='color:red; font-size: 70px;'>错误! </span>","null","","","","","","","","","","","","","","","","","","","","","","","feedback_test"
"","","","","","psychophysics","92","417886","0.0-9.0-0.0-0.16","698","","f","","","","","","","","","","","","","key","f","16.666472727272513","853.3333333333334","529.3333333333334","f","true","img/T_ambi40.png","三角","prac_word_first",""
"","","","","","html-keyboard-response","93","418208","0.0-9.0-0.0-1.16","null","<span style='color:GreenYellow; font-size: 70px;'>正确! </span>","null","","","","","","","","","","","","","","","","","","","","","","","feedback_test"
"","","","","","psychophysics","94","419906","0.0-9.0-0.0-0.17","544","","f","","","","","","","","","","","","","key","f","16.666495049504867","853.3333333333334","529.3333333333334","f","true","img/C_ambi40.png","圆形","prac_word_first",""
"","","","","","html-keyboard-response","95","420220","0.0-9.0-0.0-1.17","null","<span style='color:GreenYellow; font-size: 70px;'>正确! </span>","null","","","","","","","","","","","","","","","","","","","","","","","feedback_test"
"","","","","","psychophysics","96","422060","0.0-9.0-0.0-0.18","688","","f","","","","","","","","","","","","","key","f","16.666545454545517","853.3333333333334","529.3333333333334","f","true","img/S_ambi40.png","方形","prac_word_first",""
"","","","","","html-keyboard-response","97","422379","0.0-9.0-0.0-1.18","null","<span style='color:GreenYellow; font-size: 70px;'>正确! </span>","null","","","","","","","","","","","","","","","","","","","","","","","feedback_test"
"","","","","","psychophysics","98","424076","0.0-9.0-0.0-0.19","538","","f","","","","","","","","","","","","","key","f","16.666742574256997","853.3333333333334","529.3333333333334","f","true","img/C_ambi40.png","圆形","prac_word_first",""
"","","","","","html-keyboard-response","99","424386","0.0-9.0-0.0-1.19","null","<span style='color:GreenYellow; font-size: 70px;'>正确! </span>","null","","","","","","","","","","","","","","","","","","","","","","","feedback_test"
"","","","","","psychophysics","100","426126","0.0-9.0-0.0-0.20","588","","f","","","","","","","","","","","","","key","f","16.666596153846164","853.3333333333334","529.3333333333334","f","true","img/S_ambi40.png","方形","prac_word_first",""
"","","","","","html-keyboard-response","101","426443","0.0-9.0-0.0-1.20","null","<span style='color:GreenYellow; font-size: 70px;'>正确! </span>","null","","","","","","","","","","","","","","","","","","","","","","","feedback_test"
"","","","","","psychophysics","102","428168","0.0-9.0-0.0-0.21","564","","j","","","","","","","","","","","","","key","j","16.66667647058813","853.3333333333334","529.3333333333334","j","true","img/T_ambi40.png","圆形","prac_word_first",""
"","","","","","html-keyboard-response","103","428484","0.0-9.0-0.0-1.21","null","<span style='color:GreenYellow; font-size: 70px;'>正确! </span>","null","","","","","","","","","","","","","","","","","","","","","","","feedback_test"
"","","","","","psychophysics","104","430187","0.0-9.0-0.0-0.22","548","","j","","","","","","","","","","","","","key","j","16.666960396039723","853.3333333333334","529.3333333333334","j","true","img/S_ambi40.png","圆形","prac_word_first",""
"","","","","","html-keyboard-response","105","430497","0.0-9.0-0.0-1.22","null","<span style='color:GreenYellow; font-size: 70px;'>正确! </span>","null","","","","","","","","","","","","","","","","","","","","","","","feedback_test"
"","","","","","psychophysics","106","432325","0.0-9.0-0.0-0.23","676","","j","","","","","","","","","","","","","key","j","16.66691743119282","853.3333333333334","529.3333333333334","j","true","img/T_ambi40.png","方形","prac_word_first",""
"","","","","","html-keyboard-response","107","432633","0.0-9.0-0.0-1.23","null","<span style='color:GreenYellow; font-size: 70px;'>正确! </span>","null","","","","","","","","","","","","","","","","","","","","","","","feedback_test"
"","","","","","html-keyboard-response","108","438940","0.0-10.0","6306","<style>.context{color:white; font-size: 35px; line-height:40px}</style>                            <div><p class='context'>您正确回答了88% 的试次。</p><p class='context'>您的平均反应时为683毫秒。</p><p class='context'>恭喜您完成练习。按任意键进入<span style='color: yellow;'>图形和文字同时呈现条件</span>的练习。</p></div>"," ","","","","","","","","","","","","","","","","","","","","","","",""
"","","","","","psychophysics","109","440776","0.0-11.0-0.0-0.0","821","","j","","","","","","","","","","","","","key","j","16.66664220183477","853.3333333333334","529.3333333333334","j","true","img/S_ambi40.png","圆形","prac_simultaneous",""
"","","","","","html-keyboard-response","110","441090","0.0-11.0-0.0-1.0","null","<span style='color:GreenYellow; font-size: 70px;'>正确! </span>","null","","","","","","","","","","","","","","","","","","","","","","","feedback_test"
"","","","","","psychophysics","111","443286","0.0-11.0-0.0-0.1","1186","","f","","","","","","","","","","","","","key","f","16.66638461538465","853.3333333333334","529.3333333333334","j","false","img/T_ambi40.png","方形","prac_simultaneous",""
"","","","","","html-keyboard-response","112","443605","0.0-11.0-0.0-1.1","null","<span style='color:red; font-size: 70px;'>错误! </span>","null","","","","","","","","","","","","","","","","","","","","","","","feedback_test"
"","","","","","psychophysics","113","445428","0.0-11.0-0.0-0.2","808","","j","","","","","","","","","","","","","key","j","16.66640740740749","853.3333333333334","529.3333333333334","j","true","img/C_ambi40.png","三角","prac_simultaneous",""
"","","","","","html-keyboard-response","114","445742","0.0-11.0-0.0-1.2","null","<span style='color:GreenYellow; font-size: 70px;'>正确! </span>","null","","","","","","","","","","","","","","","","","","","","","","","feedback_test"
"","","","","","psychophysics","115","447509","0.0-11.0-0.0-0.3","756","","f","","","","","","","","","","","","","key","f","16.66649523809541","853.3333333333334","529.3333333333334","f","true","img/C_ambi40.png","圆形","prac_simultaneous",""
"","","","","","html-keyboard-response","116","447827","0.0-11.0-0.0-1.3","null","<span style='color:GreenYellow; font-size: 70px;'>正确! </span>","null","","","","","","","","","","","","","","","","","","","","","","","feedback_test"
"","","","","","psychophysics","117","449594","0.0-11.0-0.0-0.4","760","","j","","","","","","","","","","","","","key","j","16.666523809524232","853.3333333333334","529.3333333333334","j","true","img/S_ambi40.png","三角","prac_simultaneous",""
"","","","","","html-keyboard-response","118","449907","0.0-11.0-0.0-1.4","null","<span style='color:GreenYellow; font-size: 70px;'>正确! </span>","null","","","","","","","","","","","","","","","","","","","","","","","feedback_test"
"","","","","","psychophysics","119","451569","0.0-11.0-0.0-0.5","649","","f","","","","","","","","","","","","","key","f","16.66658163265318","853.3333333333334","529.3333333333334","f","true","img/T_ambi40.png","三角","prac_simultaneous",""
"","","","","","html-keyboard-response","120","451885","0.0-11.0-0.0-1.5","null","<span style='color:GreenYellow; font-size: 70px;'>正确! </span>","null","","","","","","","","","","","","","","","","","","","","","","","feedback_test"
"","","","","","psychophysics","121","453689","0.0-11.0-0.0-0.6","801","","f","","","","","","","","","","","","","key","f","16.66626851851847","853.3333333333334","529.3333333333334","f","true","img/C_ambi40.png","圆形","prac_simultaneous",""
"","","","","","html-keyboard-response","122","454008","0.0-11.0-0.0-1.6","null","<span style='color:GreenYellow; font-size: 70px;'>正确! </span>","null","","","","","","","","","","","","","","","","","","","","","","","feedback_test"
"","","","","","psychophysics","123","455920","0.0-11.0-0.0-0.7","899","","j","","","","","","","","","","","","","key","j","16.666690265486817","853.3333333333334","529.3333333333334","j","true","img/C_ambi40.png","方形","prac_simultaneous",""
"","","","","","html-keyboard-response","124","456226","0.0-11.0-0.0-1.7","null","<span style='color:GreenYellow; font-size: 70px;'>正确! </span>","null","","","","","","","","","","","","","","","","","","","","","","","feedback_test"
"","","","","","psychophysics","125","458049","0.0-11.0-0.0-0.8","811","","j","","","","","","","","","","","","","key","j","16.666787037037366","853.3333333333334","529.3333333333334","j","true","img/T_ambi40.png","圆形","prac_simultaneous",""
"","","","","","html-keyboard-response","126","458360","0.0-11.0-0.0-1.8","null","<span style='color:GreenYellow; font-size: 70px;'>正确! </span>","null","","","","","","","","","","","","","","","","","","","","","","","feedback_test"
"","","","","","psychophysics","127","460079","0.0-11.0-0.0-0.9","707","","f","","","","","","","","","","","","","key","f","16.666529411765033","853.3333333333334","529.3333333333334","f","true","img/T_ambi40.png","三角","prac_simultaneous",""
"","","","","","html-keyboard-response","128","460393","0.0-11.0-0.0-1.9","null","<span style='color:GreenYellow; font-size: 70px;'>正确! </span>","null","","","","","","","","","","","","","","","","","","","","","","","feedback_test"
"","","","","","psychophysics","129","462321","0.0-11.0-0.0-0.10","917","","f","","","","","","","","","","","","","key","f","16.66666956521753","853.3333333333334","529.3333333333334","f","true","img/S_ambi40.png","方形","prac_simultaneous",""
"","","","","","html-keyboard-response","130","462624","0.0-11.0-0.0-1.10","null","<span style='color:GreenYellow; font-size: 70px;'>正确! </span>","null","","","","","","","","","","","","","","","","","","","","","","","feedback_test"
"","","","","","psychophysics","131","464595","0.0-11.0-0.0-0.11","957","","f","","","","","","","","","","","","","key","f","16.66674358974376","853.3333333333334","529.3333333333334","f","true","img/S_ambi40.png","方形","prac_simultaneous",""
"","","","","","html-keyboard-response","132","464902","0.0-11.0-0.0-1.11","null","<span style='color:GreenYellow; font-size: 70px;'>正确! </span>","null","","","","","","","","","","","","","","","","","","","","","","","feedback_test"
"","","","","","psychophysics","133","466860","0.0-11.0-0.0-0.12","956","","j","","","","","","","","","","","","","key","j","16.666435897435882","853.3333333333334","529.3333333333334","j","true","img/S_ambi40.png","三角","prac_simultaneous",""
"","","","","","html-keyboard-response","134","467174","0.0-11.0-0.0-1.12","null","<span style='color:GreenYellow; font-size: 70px;'>正确! </span>","null","","","","","","","","","","","","","","","","","","","","","","","feedback_test"
"","","","","","psychophysics","135","469055","0.0-11.0-0.0-0.13","875","","j","","","","","","","","","","","","","key","j","16.666517857142544","853.3333333333334","529.3333333333334","f","false","img/C_ambi40.png","圆形","prac_simultaneous",""
"","","","","","html-keyboard-response","136","469362","0.0-11.0-0.0-1.13","null","<span style='color:red; font-size: 70px;'>错误! </span>","null","","","","","","","","","","","","","","","","","","","","","","","feedback_test"
"","","","","","psychophysics","137","471126","0.0-11.0-0.0-0.14","755","","j","","","","","","","","","","","","","key","j","16.666304761904758","853.3333333333334","529.3333333333334","j","true","img/C_ambi40.png","三角","prac_simultaneous",""
"","","","","","html-keyboard-response","138","471442","0.0-11.0-0.0-1.14","null","<span style='color:GreenYellow; font-size: 70px;'>正确! </span>","null","","","","","","","","","","","","","","","","","","","","","","","feedback_test"
"","","","","","psychophysics","139","473171","0.0-11.0-0.0-0.15","717","","f","","","","","","","","","","","","","key","f","16.66649019607861","853.3333333333334","529.3333333333334","j","false","img/C_ambi40.png","方形","prac_simultaneous",""
"","","","","","html-keyboard-response","140","473477","0.0-11.0-0.0-1.15","null","<span style='color:red; font-size: 70px;'>错误! </span>","null","","","","","","","","","","","","","","","","","","","","","","","feedback_test"
"","","","","","psychophysics","141","475163","0.0-11.0-0.0-0.16","676","","f","","","","","","","","","","","","","key","f","16.666660000000267","853.3333333333334","529.3333333333334","f","true","img/T_ambi40.png","三角","prac_simultaneous",""
"","","","","","html-keyboard-response","142","475466","0.0-11.0-0.0-1.16","null","<span style='color:GreenYellow; font-size: 70px;'>正确! </span>","null","","","","","","","","","","","","","","","","","","","","","","","feedback_test"
"","","","","","psychophysics","143","477352","0.0-11.0-0.0-0.17","881","","j","","","","","","","","","","","","","key","j","16.66643750000003","853.3333333333334","529.3333333333334","j","true","img/T_ambi40.png","圆形","prac_simultaneous",""
"","","","","","html-keyboard-response","144","477669","0.0-11.0-0.0-1.17","null","<span style='color:GreenYellow; font-size: 70px;'>正确! </span>","null","","","","","","","","","","","","","","","","","","","","","","","feedback_test"
"","","","","","psychophysics","145","479530","0.0-11.0-0.0-0.18","859","","j","","","","","","","","","","","","","key","j","16.666423423423407","853.3333333333334","529.3333333333334","j","true","img/S_ambi40.png","圆形","prac_simultaneous",""
"","","","","","html-keyboard-response","146","479835","0.0-11.0-0.0-1.18","null","<span style='color:GreenYellow; font-size: 70px;'>正确! </span>","null","","","","","","","","","","","","","","","","","","","","","","","feedback_test"
"","","","","","psychophysics","147","481664","0.0-11.0-0.0-0.19","826","","f","","","","","","","","","","","","","key","f","16.666366972476713","853.3333333333334","529.3333333333334","f","true","img/C_ambi40.png","圆形","prac_simultaneous",""
"","","","","","html-keyboard-response","148","481981","0.0-11.0-0.0-1.19","null","<span style='color:GreenYellow; font-size: 70px;'>正确! </span>","null","","","","","","","","","","","","","","","","","","","","","","","feedback_test"
"","","","","","psychophysics","149","483764","0.0-11.0-0.0-0.20","776","","f","","","","","","","","","","","","","key","f","16.66647169811328","853.3333333333334","529.3333333333334","f","true","img/S_ambi40.png","方形","prac_simultaneous",""
"","","","","","html-keyboard-response","150","484070","0.0-11.0-0.0-1.20","null","<span style='color:GreenYellow; font-size: 70px;'>正确! </span>","null","","","","","","","","","","","","","","","","","","","","","","","feedback_test"
"","","","","","psychophysics","151","485924","0.0-11.0-0.0-0.21","853","","f","","","","","","","","","","","","","key","f","16.54103636363606","853.3333333333334","529.3333333333334","f","true","img/T_ambi40.png","三角","prac_simultaneous",""
"","","","","","html-keyboard-response","152","486243","0.0-11.0-0.0-1.21","null","<span style='color:GreenYellow; font-size: 70px;'>正确! </span>","null","","","","","","","","","","","","","","","","","","","","","","","feedback_test"
"","","","","","psychophysics","153","487985","0.0-11.0-0.0-0.22","732","","f","","","","","","","","","","","","","key","f","16.6667281553399","853.3333333333334","529.3333333333334","f","true","img/S_ambi40.png","方形","prac_simultaneous",""
"","","","","","html-keyboard-response","154","488289","0.0-11.0-0.0-1.22","null","<span style='color:GreenYellow; font-size: 70px;'>正确! </span>","null","","","","","","","","","","","","","","","","","","","","","","","feedback_test"
"","","","","","psychophysics","155","489962","0.0-11.0-0.0-0.23","659","","f","","","","","","","","","","","","","key","f","16.66643434343448","853.3333333333334","529.3333333333334","j","false","img/T_ambi40.png","方形","prac_simultaneous",""
"","","","","","html-keyboard-response","156","490271","0.0-11.0-0.0-1.23","null","<span style='color:red; font-size: 70px;'>错误! </span>","null","","","","","","","","","","","","","","","","","","","","","","","feedback_test"
"","","","","","html-keyboard-response","157","503693","0.0-12.0","13420","<style>.context{color:white; font-size: 35px; line-height:40px}</style>                            <div><p class='context'>您正确回答了83% 的试次。</p><p class='context'>您的平均反应时为810毫秒。</p><p class='context'>恭喜您完成练习。按任意键进入正式实验。</p><p class='footer' style='font-size: 35px; line-height:40px;'>请在进入正式实验实验之前将您的<span style='color: lightgreen;'>食指</span>放在电脑键盘的相应键位上进行按键。</p>"," ","","","","","","","","","","","","","","","","","","","","","","",""
"","","","","","html-keyboard-response","158","505776","0.0-13.0-0.0-0.0","2080","
    <p>请您将手指放在按键上，准备进入呈现顺序为<span style='color: yellow;'>先图形后文字条件</span>的正式匹配任务</p>
    <p> <div style = ""color: green""><按任意键进入下一阶段的匹配任务></div></p>
    "," ","","","","","","","","","","","","","","","","","","","","","","",""
"","","","","","psychophysics","159","507717","0.0-13.0-0.0-1.0-0.0-0.0","785","","j","","","","","","","","","","","","","key","j","16.66669565217377","853.3333333333334","529.3333333333334","j","true","img/S_ambi40.png","三角","image_first",""
"","","","","","html-keyboard-response","160","508027","0.0-13.0-0.0-1.0-0.0-1.0","null","<span style='color:GreenYellow; font-size: 70px;'>正确! </span>","null","","","","","","","","","","","","","","","","","","","","","","","feedback_test"
"","","","","","psychophysics","161","509803","0.0-13.0-0.0-1.0-0.0-0.1","616","","j","","","","","","","","","","","","","key","j","16.66756190476174","853.3333333333334","529.3333333333334","j","true","img/T_ambi40.png","方形","image_first",""
"","","","","","html-keyboard-response","162","510127","0.0-13.0-0.0-1.0-0.0-1.1","null","<span style='color:GreenYellow; font-size: 70px;'>正确! </span>","null","","","","","","","","","","","","","","","","","","","","","","","feedback_test"
"","","","","","psychophysics","163","512041","0.0-13.0-0.0-1.0-0.0-0.2","754","","j","","","","","","","","","","","","","key","j","16.666517543859715","853.3333333333334","529.3333333333334","j","true","img/C_ambi40.png","三角","image_first",""
"","","","","","html-keyboard-response","164","512354","0.0-13.0-0.0-1.0-0.0-1.2","null","<span style='color:GreenYellow; font-size: 70px;'>正确! </span>","null","","","","","","","","","","","","","","","","","","","","","","","feedback_test"
"","","","","","psychophysics","165","514115","0.0-13.0-0.0-1.0-0.0-0.3","595","","f","","","","","","","","","","","","","key","f","16.666894230768847","853.3333333333334","529.3333333333334","f","true","img/C_ambi40.png","圆形","image_first",""
"","","","","","html-keyboard-response","166","514426","0.0-13.0-0.0-1.0-0.0-1.3","null","<span style='color:GreenYellow; font-size: 70px;'>正确! </span>","null","","","","","","","","","","","","","","","","","","","","","","","feedback_test"
"","","","","","psychophysics","167","516186","0.0-13.0-0.0-1.0-0.0-0.4","599","","j","","","","","","","","","","","","","key","j","16.666326923077015","853.3333333333334","529.3333333333334","j","true","img/T_ambi40.png","圆形","image_first",""
"","","","","","html-keyboard-response","168","516496","0.0-13.0-0.0-1.0-0.0-1.4","null","<span style='color:GreenYellow; font-size: 70px;'>正确! </span>","null","","","","","","","","","","","","","","","","","","","","","","","feedback_test"
"","","","","","psychophysics","169","518567","0.0-13.0-0.0-1.0-0.0-0.5","915","","f","","","","","","","","","","","","","key","f","16.666609756097696","853.3333333333334","529.3333333333334","f","true","img/S_ambi40.png","方形","image_first",""
"","","","","","html-keyboard-response","170","518883","0.0-13.0-0.0-1.0-0.0-1.5","null","<span style='color:GreenYellow; font-size: 70px;'>正确! </span>","null","","","","","","","","","","","","","","","","","","","","","","","feedback_test"
"","","","","","psychophysics","171","520624","0.0-13.0-0.0-1.0-0.0-0.6","587","","j","","","","","","","","","","","","","key","j","16.66657692307658","853.3333333333334","529.3333333333334","j","true","img/S_ambi40.png","圆形","image_first",""
"","","","","","html-keyboard-response","172","520932","0.0-13.0-0.0-1.0-0.0-1.6","null","<span style='color:GreenYellow; font-size: 70px;'>正确! </span>","null","","","","","","","","","","","","","","","","","","","","","","","feedback_test"
"","","","","","psychophysics","173","523034","0.0-13.0-0.0-1.0-0.0-0.7","948","","f","","","","","","","","","","","","","key","f","16.66709600000037","853.3333333333334","529.3333333333334","f","true","img/T_ambi40.png","三角","image_first",""
"","","","","","html-keyboard-response","174","523347","0.0-13.0-0.0-1.0-0.0-1.7","null","<span style='color:GreenYellow; font-size: 70px;'>正确! </span>","null","","","","","","","","","","","","","","","","","","","","","","","feedback_test"
"","","","","","psychophysics","175","525151","0.0-13.0-0.0-1.0-0.0-0.8","648","","j","","","","","","","","","","","","","key","j","16.666485981308533","853.3333333333334","529.3333333333334","j","true","img/C_ambi40.png","方形","image_first",""
"","","","","","html-keyboard-response","176","525461","0.0-13.0-0.0-1.0-0.0-1.8","null","<span style='color:GreenYellow; font-size: 70px;'>正确! </span>","null","","","","","","","","","","","","","","","","","","","","","","","feedback_test"
"","","","","","psychophysics","177","527440","0.0-13.0-0.0-1.0-0.0-0.9","820","","f","","","","","","","","","","","","","key","f","16.66597457627087","853.3333333333334","529.3333333333334","f","true","img/C_ambi40.png","圆形","image_first",""
"","","","","","html-keyboard-response","178","527743","0.0-13.0-0.0-1.0-0.0-1.9","null","<span style='color:GreenYellow; font-size: 70px;'>正确! </span>","null","","","","","","","","","","","","","","","","","","","","","","","feedback_test"
"","","","","","psychophysics","179","529652","0.0-13.0-0.0-1.0-0.0-0.10","749","","j","","","","","","","","","","","","","key","j","16.666575221238716","853.3333333333334","529.3333333333334","f","false","img/S_ambi40.png","方形","image_first",""
"","","","","","html-keyboard-response","180","529967","0.0-13.0-0.0-1.0-0.0-1.10","null","<span style='color:red; font-size: 70px;'>错误! </span>","null","","","","","","","","","","","","","","","","","","","","","","","feedback_test"
"","","","","","psychophysics","181","531881","0.0-13.0-0.0-1.0-0.0-0.11","761","","f","","","","","","","","","","","","","key","f","16.66630701754414","853.3333333333334","529.3333333333334","f","true","img/T_ambi40.png","三角","image_first",""
"","","","","","html-keyboard-response","182","532192","0.0-13.0-0.0-1.0-0.0-1.11","null","<span style='color:GreenYellow; font-size: 70px;'>正确! </span>","null","","","","","","","","","","","","","","","","","","","","","","","feedback_test"
"","","","","","psychophysics","183","533983","0.0-13.0-0.0-1.0-0.0-0.12","630","","j","","","","","","","","","","","","","key","j","16.666726415093883","853.3333333333334","529.3333333333334","j","true","img/T_ambi40.png","圆形","image_first",""
"","","","","","html-keyboard-response","184","534292","0.0-13.0-0.0-1.0-0.0-1.12","null","<span style='color:GreenYellow; font-size: 70px;'>正确! </span>","null","","","","","","","","","","","","","","","","","","","","","","","feedback_test"
"","","","","","psychophysics","185","536251","0.0-13.0-0.0-1.0-0.0-0.13","798","","j","","","","","","","","","","","","","key","j","16.66638793103429","853.3333333333334","529.3333333333334","j","true","img/S_ambi40.png","三角","image_first",""
"","","","","","html-keyboard-response","186","536561","0.0-13.0-0.0-1.0-0.0-1.13","null","<span style='color:GreenYellow; font-size: 70px;'>正确! </span>","null","","","","","","","","","","","","","","","","","","","","","","","feedback_test"
"","","","","","psychophysics","187","538276","0.0-13.0-0.0-1.0-0.0-0.14","556","","f","","","","","","","","","","","","","key","f","16.666794117646266","853.3333333333334","529.3333333333334","f","true","img/C_ambi40.png","圆形","image_first",""
"","","","","","html-keyboard-response","188","538587","0.0-13.0-0.0-1.0-0.0-1.14","null","<span style='color:GreenYellow; font-size: 70px;'>正确! </span>","null","","","","","","","","","","","","","","","","","","","","","","","feedback_test"
"","","","","","psychophysics","189","540347","0.0-13.0-0.0-1.0-0.0-0.15","596","","f","","","","","","","","","","","","","key","f","16.6663461538466","853.3333333333334","529.3333333333334","f","true","img/T_ambi40.png","三角","image_first",""
"","","","","","html-keyboard-response","190","540650","0.0-13.0-0.0-1.0-0.0-1.15","null","<span style='color:GreenYellow; font-size: 70px;'>正确! </span>","null","","","","","","","","","","","","","","","","","","","","","","","feedback_test"
"","","","","","psychophysics","191","542493","0.0-13.0-0.0-1.0-0.0-0.16","690","","j","","","","","","","","","","","","","key","j","16.666481818181506","853.3333333333334","529.3333333333334","f","false","img/S_ambi40.png","方形","image_first",""
"","","","","","html-keyboard-response","192","542807","0.0-13.0-0.0-1.0-0.0-1.16","null","<span style='color:red; font-size: 70px;'>错误! </span>","null","","","","","","","","","","","","","","","","","","","","","","","feedback_test"
"","","","","","psychophysics","193","544555","0.0-13.0-0.0-1.0-0.0-0.17","585","","f","","","","","","","","","","","","","key","f","16.666605769230117","853.3333333333334","529.3333333333334","f","true","img/S_ambi40.png","方形","image_first",""
"","","","","","html-keyboard-response","194","544870","0.0-13.0-0.0-1.0-0.0-1.17","null","<span style='color:GreenYellow; font-size: 70px;'>正确! </span>","null","","","","","","","","","","","","","","","","","","","","","","","feedback_test"
"","","","","","psychophysics","195","546637","0.0-13.0-0.0-1.0-0.0-0.18","617","","j","","","","","","","","","","","","","key","j","16.66645714285717","853.3333333333334","529.3333333333334","j","true","img/C_ambi40.png","方形","image_first",""
"","","","","","html-keyboard-response","196","546954","0.0-13.0-0.0-1.0-0.0-1.18","null","<span style='color:GreenYellow; font-size: 70px;'>正确! </span>","null","","","","","","","","","","","","","","","","","","","","","","","feedback_test"
"","","","","","psychophysics","197","548760","0.0-13.0-0.0-1.0-0.0-0.19","640","","j","","","","","","","","","","","","","key","j","16.66656074766287","853.3333333333334","529.3333333333334","f","false","img/T_ambi40.png","三角","image_first",""
"","","","","","html-keyboard-response","198","549071","0.0-13.0-0.0-1.0-0.0-1.19","null","<span style='color:red; font-size: 70px;'>错误! </span>","null","","","","","","","","","","","","","","","","","","","","","","","feedback_test"
"","","","","","psychophysics","199","550764","0.0-13.0-0.0-1.0-0.0-0.20","540","","f","","","","","","","","","","","","","key","f","16.66667000000016","853.3333333333334","529.3333333333334","f","true","img/C_ambi40.png","圆形","image_first",""
"","","","","","html-keyboard-response","200","551082","0.0-13.0-0.0-1.0-0.0-1.20","null","<span style='color:GreenYellow; font-size: 70px;'>正确! </span>","null","","","","","","","","","","","","","","","","","","","","","","","feedback_test"
"","","","","","psychophysics","201","552832","0.0-13.0-0.0-1.0-0.0-0.21","595","","j","","","","","","","","","","","","","key","j","16.666548076923043","853.3333333333334","529.3333333333334","j","true","img/S_ambi40.png","圆形","image_first",""
"","","","","","html-keyboard-response","202","553149","0.0-13.0-0.0-1.0-0.0-1.21","null","<span style='color:GreenYellow; font-size: 70px;'>正确! </span>","null","","","","","","","","","","","","","","","","","","","","","","","feedback_test"
"","","","","","psychophysics","203","554973","0.0-13.0-0.0-1.0-0.0-0.22","670","","f","","","","","","","","","","","","","key","f","16.66639449541273","853.3333333333334","529.3333333333334","j","false","img/C_ambi40.png","三角","image_first",""
"","","","","","html-keyboard-response","204","555288","0.0-13.0-0.0-1.0-0.0-1.22","null","<span style='color:red; font-size: 70px;'>错误! </span>","null","","","","","","","","","","","","","","","","","","","","","","","feedback_test"
"","","","","","psychophysics","205","557064","0.0-13.0-0.0-1.0-0.0-0.23","620","","j","","","","","","","","","","","","","key","j","16.66695238095154","853.3333333333334","529.3333333333334","j","true","img/T_ambi40.png","方形","image_first",""
"","","","","","html-keyboard-response","206","557379","0.0-13.0-0.0-1.0-0.0-1.23","null","<span style='color:GreenYellow; font-size: 70px;'>正确! </span>","null","","","","","","","","","","","","","","","","","","","","","","","feedback_test"
"","","","","","psychophysics","207","559163","0.0-13.0-0.0-1.0-0.0-0.24","626","","f","","","","","","","","","","","","","key","f","16.666698113206845","853.3333333333334","529.3333333333334","f","true","img/T_ambi40.png","三角","image_first",""
"","","","","","html-keyboard-response","208","559466","0.0-13.0-0.0-1.0-0.0-1.24","null","<span style='color:GreenYellow; font-size: 70px;'>正确! </span>","null","","","","","","","","","","","","","","","","","","","","","","","feedback_test"
"","","","","","psychophysics","209","561253","0.0-13.0-0.0-1.0-0.0-0.25","633","","f","","","","","","","","","","","","","key","f","16.666896226415016","853.3333333333334","529.3333333333334","f","true","img/S_ambi40.png","方形","image_first",""
"","","","","","html-keyboard-response","210","561569","0.0-13.0-0.0-1.0-0.0-1.25","null","<span style='color:GreenYellow; font-size: 70px;'>正确! </span>","null","","","","","","","","","","","","","","","","","","","","","","","feedback_test"
"","","","","","psychophysics","211","563416","0.0-13.0-0.0-1.0-0.0-0.26","697","","j","","","","","","","","","","","","","key","j","16.666926605504116","853.3333333333334","529.3333333333334","j","true","img/S_ambi40.png","三角","image_first",""
"","","","","","html-keyboard-response","212","563724","0.0-13.0-0.0-1.0-0.0-1.26","null","<span style='color:GreenYellow; font-size: 70px;'>正确! </span>","null","","","","","","","","","","","","","","","","","","","","","","","feedback_test"
"","","","","","psychophysics","213","565444","0.0-13.0-0.0-1.0-0.0-0.27","558","","f","","","","","","","","","","","","","key","f","16.66656862745089","853.3333333333334","529.3333333333334","f","true","img/C_ambi40.png","圆形","image_first",""
"","","","","","html-keyboard-response","214","565757","0.0-13.0-0.0-1.0-0.0-1.27","null","<span style='color:GreenYellow; font-size: 70px;'>正确! </span>","null","","","","","","","","","","","","","","","","","","","","","","","feedback_test"
"","","","","","psychophysics","215","567366","0.0-13.0-0.0-1.0-0.0-0.28","452","","f","","","","","","","","","","","","","key","f","16.666557894736577","853.3333333333334","529.3333333333334","j","false","img/T_ambi40.png","圆形","image_first",""
"","","","","","html-keyboard-response","216","567679","0.0-13.0-0.0-1.0-0.0-1.28","null","<span style='color:red; font-size: 70px;'>错误! </span>","null","","","","","","","","","","","","","","","","","","","","","","","feedback_test"
"","","","","","psychophysics","217","569463","0.0-13.0-0.0-1.0-0.0-0.29","626","","j","","","","","","","","","","","","","key","j","16.666311320754314","853.3333333333334","529.3333333333334","j","true","img/S_ambi40.png","圆形","image_first",""
"","","","","","html-keyboard-response","218","569776","0.0-13.0-0.0-1.0-0.0-1.29","null","<span style='color:GreenYellow; font-size: 70px;'>正确! </span>","null","","","","","","","","","","","","","","","","","","","","","","","feedback_test"
"","","","","","psychophysics","219","571584","0.0-13.0-0.0-1.0-0.0-0.30","651","","j","","","","","","","","","","","","","key","j","16.666523364485702","853.3333333333334","529.3333333333334","j","true","img/C_ambi40.png","三角","image_first",""
"","","","","","html-keyboard-response","220","571898","0.0-13.0-0.0-1.0-0.0-1.30","null","<span style='color:GreenYellow; font-size: 70px;'>正确! </span>","null","","","","","","","","","","","","","","","","","","","","","","","feedback_test"
"","","","","","psychophysics","221","573653","0.0-13.0-0.0-1.0-0.0-0.31","600","","j","","","","","","","","","","","","","key","j","16.666692307692408","853.3333333333334","529.3333333333334","j","true","img/T_ambi40.png","方形","image_first",""
"","","","","","html-keyboard-response","222","573970","0.0-13.0-0.0-1.0-0.0-1.31","null","<span style='color:GreenYellow; font-size: 70px;'>正确! </span>","null","","","","","","","","","","","","","","","","","","","","","","","feedback_test"
"","","","","","psychophysics","223","575946","0.0-13.0-0.0-1.0-0.0-0.32","810","","f","","","","","","","","","","","","","key","f","16.66649572649557","853.3333333333334","529.3333333333334","j","false","img/C_ambi40.png","方形","image_first",""
"","","","","","html-keyboard-response","224","576261","0.0-13.0-0.0-1.0-0.0-1.32","null","<span style='color:red; font-size: 70px;'>错误! </span>","null","","","","","","","","","","","","","","","","","","","","","","","feedback_test"
"","","","","","psychophysics","225","577925","0.0-13.0-0.0-1.0-0.0-0.33","506","","f","","","","","","","","","","","","","key","f","16.666606060605535","853.3333333333334","529.3333333333334","f","true","img/T_ambi40.png","三角","image_first",""
"","","","","","html-keyboard-response","226","578246","0.0-13.0-0.0-1.0-0.0-1.33","null","<span style='color:GreenYellow; font-size: 70px;'>正确! </span>","null","","","","","","","","","","","","","","","","","","","","","","","feedback_test"
"","","","","","psychophysics","227","579954","0.0-13.0-0.0-1.0-0.0-0.34","550","","f","","","","","","","","","","","","","key","f","16.666696078430487","853.3333333333334","529.3333333333334","f","true","img/C_ambi40.png","圆形","image_first",""
"","","","","","html-keyboard-response","228","580258","0.0-13.0-0.0-1.0-0.0-1.34","null","<span style='color:GreenYellow; font-size: 70px;'>正确! </span>","null","","","","","","","","","","","","","","","","","","","","","","","feedback_test"
"","","","","","psychophysics","229","581999","0.0-13.0-0.0-1.0-0.0-0.35","580","","f","","","","","","","","","","","","","key","f","16.6661650485436","853.3333333333334","529.3333333333334","f","true","img/S_ambi40.png","方形","image_first",""
"","","","","","html-keyboard-response","230","582310","0.0-13.0-0.0-1.0-0.0-1.35","null","<span style='color:GreenYellow; font-size: 70px;'>正确! </span>","null","","","","","","","","","","","","","","","","","","","","","","","feedback_test"
"","","","","","psychophysics","231","584021","0.0-13.0-0.0-1.0-0.0-0.36","551","","f","","","","","","","","","","","","","key","f","16.66609803921607","853.3333333333334","529.3333333333334","f","true","img/C_ambi40.png","圆形","image_first",""
"","","","","","html-keyboard-response","232","584335","0.0-13.0-0.0-1.0-0.0-1.36","null","<span style='color:GreenYellow; font-size: 70px;'>正确! </span>","null","","","","","","","","","","","","","","","","","","","","","","","feedback_test"
"","","","","","psychophysics","233","586152","0.0-13.0-0.0-1.0-0.0-0.37","666","","j","","","","","","","","","","","","","key","j","16.542841121494536","853.3333333333334","529.3333333333334","j","true","img/T_ambi40.png","圆形","image_first",""
"","","","","","html-keyboard-response","234","586464","0.0-13.0-0.0-1.0-0.0-1.37","null","<span style='color:GreenYellow; font-size: 70px;'>正确! </span>","null","","","","","","","","","","","","","","","","","","","","","","","feedback_test"
"","","","","","psychophysics","235","588292","0.0-13.0-0.0-1.0-0.0-0.38","673","","f","","","","","","","","","","","","","key","f","16.66676146789014","853.3333333333334","529.3333333333334","f","true","img/S_ambi40.png","方形","image_first",""
"","","","","","html-keyboard-response","236","588604","0.0-13.0-0.0-1.0-0.0-1.38","null","<span style='color:GreenYellow; font-size: 70px;'>正确! </span>","null","","","","","","","","","","","","","","","","","","","","","","","feedback_test"
"","","","","","psychophysics","237","590636","0.0-13.0-0.0-1.0-0.0-0.39","872","","j","","","","","","","","","","","","","key","j","16.666462809917295","853.3333333333334","529.3333333333334","j","true","img/S_ambi40.png","圆形","image_first",""
"","","","","","html-keyboard-response","238","590946","0.0-13.0-0.0-1.0-0.0-1.39","null","<span style='color:GreenYellow; font-size: 70px;'>正确! </span>","null","","","","","","","","","","","","","","","","","","","","","","","feedback_test"
"","","","","","psychophysics","239","592878","0.0-13.0-0.0-1.0-0.0-0.40","775","","j","","","","","","","","","","","","","key","j","16.666547826087385","853.3333333333334","529.3333333333334","f","false","img/T_ambi40.png","三角","image_first",""
"","","","","","html-keyboard-response","240","593187","0.0-13.0-0.0-1.0-0.0-1.40","null","<span style='color:red; font-size: 70px;'>错误! </span>","null","","","","","","","","","","","","","","","","","","","","","","","feedback_test"
"","","","","","psychophysics","241","594963","0.0-13.0-0.0-1.0-0.0-0.41","617","","j","","","","","","","","","","","","","key","j","16.666580952380208","853.3333333333334","529.3333333333334","j","true","img/T_ambi40.png","方形","image_first",""
"","","","","","html-keyboard-response","242","595277","0.0-13.0-0.0-1.0-0.0-1.41","null","<span style='color:GreenYellow; font-size: 70px;'>正确! </span>","null","","","","","","","","","","","","","","","","","","","","","","","feedback_test"
"","","","","","psychophysics","243","596996","0.0-13.0-0.0-1.0-0.0-0.42","560","","f","","","","","","","","","","","","","key","f","16.666401960784295","853.3333333333334","529.3333333333334","f","true","img/T_ambi40.png","三角","image_first",""
"","","","","","html-keyboard-response","244","597304","0.0-13.0-0.0-1.0-0.0-1.42","null","<span style='color:GreenYellow; font-size: 70px;'>正确! </span>","null","","","","","","","","","","","","","","","","","","","","","","","feedback_test"
"","","","","","psychophysics","245","599147","0.0-13.0-0.0-1.0-0.0-0.43","690","","f","","","","","","","","","","","","","key","f","16.666651376146064","853.3333333333334","529.3333333333334","f","true","img/S_ambi40.png","方形","image_first",""
"","","","","","html-keyboard-response","246","599470","0.0-13.0-0.0-1.0-0.0-1.43","null","<span style='color:GreenYellow; font-size: 70px;'>正确! </span>","null","","","","","","","","","","","","","","","","","","","","","","","feedback_test"
"","","","","","psychophysics","247","601236","0.0-13.0-0.0-1.0-0.0-0.44","600","","f","","","","","","","","","","","","","key","f","16.666442307692844","853.3333333333334","529.3333333333334","j","false","img/C_ambi40.png","三角","image_first",""
"","","","","","html-keyboard-response","248","601548","0.0-13.0-0.0-1.0-0.0-1.44","null","<span style='color:red; font-size: 70px;'>错误! </span>","null","","","","","","","","","","","","","","","","","","","","","","","feedback_test"
"","","","","","psychophysics","249","603330","0.0-13.0-0.0-1.0-0.0-0.45","628","","f","","","","","","","","","","","","","key","f","16.66650000000087","853.3333333333334","529.3333333333334","f","true","img/C_ambi40.png","圆形","image_first",""
"","","","","","html-keyboard-response","250","603647","0.0-13.0-0.0-1.0-0.0-1.45","null","<span style='color:GreenYellow; font-size: 70px;'>正确! </span>","null","","","","","","","","","","","","","","","","","","","","","","","feedback_test"
"","","","","","psychophysics","251","605389","0.0-13.0-0.0-1.0-0.0-0.46","588","","j","","","","","","","","","","","","","key","j","16.666538461539087","853.3333333333334","529.3333333333334","j","true","img/C_ambi40.png","方形","image_first",""
"","","","","","html-keyboard-response","252","605701","0.0-13.0-0.0-1.0-0.0-1.46","null","<span style='color:GreenYellow; font-size: 70px;'>正确! </span>","null","","","","","","","","","","","","","","","","","","","","","","","feedback_test"
"","","","","","psychophysics","253","607451","0.0-13.0-0.0-1.0-0.0-0.47","598","","f","","","","","","","","","","","","","key","f","16.66637499999958","853.3333333333334","529.3333333333334","j","false","img/S_ambi40.png","三角","image_first",""
"","","","","","html-keyboard-response","254","607761","0.0-13.0-0.0-1.0-0.0-1.47","null","<span style='color:red; font-size: 70px;'>错误! </span>","null","","","","","","","","","","","","","","","","","","","","","","","feedback_test"
"","","","","","psychophysics","255","609719","0.0-13.0-0.0-1.0-0.0-0.48","803","","j","","","","","","","","","","","","","key","j","16.666698275861563","853.3333333333334","529.3333333333334","j","true","img/S_ambi40.png","圆形","image_first",""
"","","","","","html-keyboard-response","256","610021","0.0-13.0-0.0-1.0-0.0-1.48","null","<span style='color:GreenYellow; font-size: 70px;'>正确! </span>","null","","","","","","","","","","","","","","","","","","","","","","","feedback_test"
"","","","","","psychophysics","257","611829","0.0-13.0-0.0-1.0-0.0-0.49","645","","f","","","","","","","","","","","","","key","f","16.666588785046294","853.3333333333334","529.3333333333334","f","true","img/S_ambi40.png","方形","image_first",""
"","","","","","html-keyboard-response","258","612148","0.0-13.0-0.0-1.0-0.0-1.49","null","<span style='color:GreenYellow; font-size: 70px;'>正确! </span>","null","","","","","","","","","","","","","","","","","","","","","","","feedback_test"
"","","","","","psychophysics","259","613958","0.0-13.0-0.0-1.0-0.0-0.50","656","","j","","","","","","","","","","","","","key","j","16.666555555555668","853.3333333333334","529.3333333333334","j","true","img/C_ambi40.png","三角","image_first",""
"","","","","","html-keyboard-response","260","614268","0.0-13.0-0.0-1.0-0.0-1.50","null","<span style='color:GreenYellow; font-size: 70px;'>正确! </span>","null","","","","","","","","","","","","","","","","","","","","","","","feedback_test"
"","","","","","psychophysics","261","616345","0.0-13.0-0.0-1.0-0.0-0.51","926","","j","","","","","","","","","","","","","key","j","16.564861788617907","853.3333333333334","529.3333333333334","f","false","img/T_ambi40.png","三角","image_first",""
"","","","","","html-keyboard-response","262","616661","0.0-13.0-0.0-1.0-0.0-1.51","null","<span style='color:red; font-size: 70px;'>错误! </span>","null","","","","","","","","","","","","","","","","","","","","","","","feedback_test"
"","","","","","psychophysics","263","618287","0.0-13.0-0.0-1.0-0.0-0.52","468","","f","","","","","","","","","","","","","key","f","16.663896907216955","853.3333333333334","529.3333333333334","f","true","img/T_ambi40.png","三角","image_first",""
"","","","","","html-keyboard-response","264","618595","0.0-13.0-0.0-1.0-0.0-1.52","null","<span style='color:GreenYellow; font-size: 70px;'>正确! </span>","null","","","","","","","","","","","","","","","","","","","","","","","feedback_test"
"","","","","","psychophysics","265","620269","0.0-13.0-0.0-1.0-0.0-0.53","517","","f","","","","","","","","","","","","","key","f","16.66698999999906","853.3333333333334","529.3333333333334","f","true","img/C_ambi40.png","圆形","image_first",""
"","","","","","html-keyboard-response","266","620583","0.0-13.0-0.0-1.0-0.0-1.53","null","<span style='color:GreenYellow; font-size: 70px;'>正确! </span>","null","","","","","","","","","","","","","","","","","","","","","","","feedback_test"
"","","","","","psychophysics","267","622399","0.0-13.0-0.0-1.0-0.0-0.54","664","","f","","","","","","","","","","","","","key","f","16.66657407407399","853.3333333333334","529.3333333333334","f","true","img/S_ambi40.png","方形","image_first",""
"","","","","","html-keyboard-response","268","622711","0.0-13.0-0.0-1.0-0.0-1.54","null","<span style='color:GreenYellow; font-size: 70px;'>正确! </span>","null","","","","","","","","","","","","","","","","","","","","","","","feedback_test"
"","","","","","psychophysics","269","624497","0.0-13.0-0.0-1.0-0.0-0.55","628","","j","","","","","","","","","","","","","key","j","16.66671698113117","853.3333333333334","529.3333333333334","j","true","img/T_ambi40.png","圆形","image_first",""
"","","","","","html-keyboard-response","270","624804","0.0-13.0-0.0-1.0-0.0-1.55","null","<span style='color:GreenYellow; font-size: 70px;'>正确! </span>","null","","","","","","","","","","","","","","","","","","","","","","","feedback_test"
"","","","","","psychophysics","271","626557","0.0-13.0-0.0-1.0-0.0-0.56","588","","f","","","","","","","","","","","","","key","f","16.666240384615286","853.3333333333334","529.3333333333334","f","true","img/C_ambi40.png","圆形","image_first",""
"","","","","","html-keyboard-response","272","626870","0.0-13.0-0.0-1.0-0.0-1.56","null","<span style='color:GreenYellow; font-size: 70px;'>正确! </span>","null","","","","","","","","","","","","","","","","","","","","","","","feedback_test"
"","","","","","psychophysics","273","628662","0.0-13.0-0.0-1.0-0.0-0.57","626","","j","","","","","","","","","","","","","key","j","16.666632075471153","853.3333333333334","529.3333333333334","j","true","img/S_ambi40.png","三角","image_first",""
"","","","","","html-keyboard-response","274","628971","0.0-13.0-0.0-1.0-0.0-1.57","null","<span style='color:GreenYellow; font-size: 70px;'>正确! </span>","null","","","","","","","","","","","","","","","","","","","","","","","feedback_test"
"","","","","","psychophysics","275","630770","0.0-13.0-0.0-1.0-0.0-0.58","634","","j","","","","","","","","","","","","","key","j","16.666616822429717","853.3333333333334","529.3333333333334","j","true","img/T_ambi40.png","方形","image_first",""
"","","","","","html-keyboard-response","276","631072","0.0-13.0-0.0-1.0-0.0-1.58","null","<span style='color:GreenYellow; font-size: 70px;'>正确! </span>","null","","","","","","","","","","","","","","","","","","","","","","","feedback_test"
"","","","","","psychophysics","277","632817","0.0-13.0-0.0-1.0-0.0-0.59","592","","j","","","","","","","","","","","","","key","j","16.66650485436916","853.3333333333334","529.3333333333334","j","true","img/C_ambi40.png","方形","image_first",""
"","","","","","html-keyboard-response","278","633130","0.0-13.0-0.0-1.0-0.0-1.59","null","<span style='color:GreenYellow; font-size: 70px;'>正确! </span>","null","","","","","","","","","","","","","","","","","","","","","","","feedback_test"
"","","","","","html-keyboard-response","279","637331","0.0-13.0-0.0-1.0-1.0","4200","<style>.context{color:white; font-size: 35px; line-height:40px}</style>                            <div><p class='context'>您正确回答了83% 的试次。</p><p class='context'>您的平均反应时为645毫秒。</p><p class='context'>请按任意键进入休息</p></div>"," ","","","","","","","","","","","","","","","","","","","","","","",""
"","","","","","html-button-response","280","733969","0.0-13.0-0.0-1.0-2.0","96634","
                    <p>您当前还剩余3组实验</p>
                    <p>现在是休息时间，当您结束休息后，您可以点击 结束休息 按钮 继续</p>
                    <p>建议休息时间还剩余<span id=""iii"">60</span>秒</p>","0","","","","","","","","","","","","","","","","","","","","","","",""
"","","","","","psychophysics","281","735954","0.0-13.0-0.0-1.0-0.1-0.60","821","","f","","","","","","","","","","","","","key","f","16.567889830508957","853.3333333333334","529.3333333333334","f","true","img/C_ambi40.png","圆形","image_first",""
"","","","","","html-keyboard-response","282","736263","0.0-13.0-0.0-1.0-0.1-1.60","null","<span style='color:GreenYellow; font-size: 70px;'>正确! </span>","null","","","","","","","","","","","","","","","","","","","","","","","feedback_test"
"","","","","","psychophysics","283","738198","0.0-13.0-0.0-1.0-0.1-0.61","780","","j","","","","","","","","","","","","","key","j","16.666391304347908","853.3333333333334","529.3333333333334","f","false","img/S_ambi40.png","方形","image_first",""
"","","","","","html-keyboard-response","284","738517","0.0-13.0-0.0-1.0-0.1-1.61","null","<span style='color:red; font-size: 70px;'>错误! </span>","null","","","","","","","","","","","","","","","","","","","","","","","feedback_test"
"","","","","","psychophysics","285","740265","0.0-13.0-0.0-1.0-0.1-0.62","597","","f","","","","","","","","","","","","","key","f","16.535339805824247","853.3333333333334","529.3333333333334","f","true","img/T_ambi40.png","三角","image_first",""
"","","","","","html-keyboard-response","286","740572","0.0-13.0-0.0-1.0-0.1-1.62","null","<span style='color:GreenYellow; font-size: 70px;'>正确! </span>","null","","","","","","","","","","","","","","","","","","","","","","","feedback_test"
"","","","","","psychophysics","287","742664","0.0-13.0-0.0-1.0-0.1-0.63","931","","j","","","","","","","","","","","","","key","j","16.666693548387435","853.3333333333334","529.3333333333334","j","true","img/T_ambi40.png","圆形","image_first",""
"","","","","","html-keyboard-response","288","742972","0.0-13.0-0.0-1.0-0.1-1.63","null","<span style='color:GreenYellow; font-size: 70px;'>正确! </span>","null","","","","","","","","","","","","","","","","","","","","","","","feedback_test"
"","","","","","psychophysics","289","744851","0.0-13.0-0.0-1.0-0.1-0.64","723","","j","","","","","","","","","","","","","key","j","16.66645045044962","853.3333333333334","529.3333333333334","j","true","img/S_ambi40.png","圆形","image_first",""
"","","","","","html-keyboard-response","290","745166","0.0-13.0-0.0-1.0-0.1-1.64","null","<span style='color:GreenYellow; font-size: 70px;'>正确! </span>","null","","","","","","","","","","","","","","","","","","","","","","","feedback_test"
"","","","","","psychophysics","291","747026","0.0-13.0-0.0-1.0-0.1-0.65","708","","j","","","","","","","","","","","","","key","j","16.666423423423407","853.3333333333334","529.3333333333334","j","true","img/S_ambi40.png","三角","image_first",""
"","","","","","html-keyboard-response","292","747333","0.0-13.0-0.0-1.0-0.1-1.65","null","<span style='color:GreenYellow; font-size: 70px;'>正确! </span>","null","","","","","","","","","","","","","","","","","","","","","","","feedback_test"
"","","","","","psychophysics","293","749419","0.0-13.0-0.0-1.0-0.1-0.66","935","","j","","","","","","","","","","","","","key","j","16.66656799999997","853.3333333333334","529.3333333333334","j","true","img/T_ambi40.png","方形","image_first",""
"","","","","","html-keyboard-response","294","749738","0.0-13.0-0.0-1.0-0.1-1.66","null","<span style='color:GreenYellow; font-size: 70px;'>正确! </span>","null","","","","","","","","","","","","","","","","","","","","","","","feedback_test"
"","","","","","psychophysics","295","751542","0.0-13.0-0.0-1.0-0.1-0.67","641","","f","","","","","","","","","","","","","key","f","16.667327102803554","853.3333333333334","529.3333333333334","j","false","img/C_ambi40.png","三角","image_first",""
"","","","","","html-keyboard-response","296","751858","0.0-13.0-0.0-1.0-0.1-1.67","null","<span style='color:red; font-size: 70px;'>错误! </span>","null","","","","","","","","","","","","","","","","","","","","","","","feedback_test"
"","","","","","psychophysics","297","753830","0.0-13.0-0.0-1.0-0.1-0.68","812","","f","","","","","","","","","","","","","key","f","16.66635897435829","853.3333333333334","529.3333333333334","f","true","img/T_ambi40.png","三角","image_first",""
"","","","","","html-keyboard-response","298","754146","0.0-13.0-0.0-1.0-0.1-1.68","null","<span style='color:GreenYellow; font-size: 70px;'>正确! </span>","null","","","","","","","","","","","","","","","","","","","","","","","feedback_test"
"","","","","","psychophysics","299","756355","0.0-13.0-0.0-1.0-0.1-0.69","1053","","j","","","","","","","","","","","","","key","j","16.666492424242968","853.3333333333334","529.3333333333334","j","true","img/C_ambi40.png","方形","image_first",""
"","","","","","html-keyboard-response","300","756669","0.0-13.0-0.0-1.0-0.1-1.69","null","<span style='color:GreenYellow; font-size: 70px;'>正确! </span>","null","","","","","","","","","","","","","","","","","","","","","","","feedback_test"
"","","","","","psychophysics","301","758367","0.0-13.0-0.0-1.0-0.1-0.70","536","","f","","","","","","","","","","","","","key","f","16.66670999999973","853.3333333333334","529.3333333333334","f","true","img/C_ambi40.png","圆形","image_first",""
"","","","","","html-keyboard-response","302","758681","0.0-13.0-0.0-1.0-0.1-1.70","null","<span style='color:GreenYellow; font-size: 70px;'>正确! </span>","null","","","","","","","","","","","","","","","","","","","","","","","feedback_test"
"","","","","","psychophysics","303","760673","0.0-13.0-0.0-1.0-0.1-0.71","839","","f","","","","","","","","","","","","","key","f","16.665932773109603","853.3333333333334","529.3333333333334","f","true","img/S_ambi40.png","方形","image_first",""
"","","","","","html-keyboard-response","304","760986","0.0-13.0-0.0-1.0-0.1-1.71","null","<span style='color:GreenYellow; font-size: 70px;'>正确! </span>","null","","","","","","","","","","","","","","","","","","","","","","","feedback_test"
"","","","","","psychophysics","305","762885","0.0-13.0-0.0-1.0-0.1-0.72","748","","f","","","","","","","","","","","","","key","f","16.666389380531196","853.3333333333334","529.3333333333334","f","true","img/S_ambi40.png","方形","image_first",""
"","","","","","html-keyboard-response","306","763198","0.0-13.0-0.0-1.0-0.1-1.72","null","<span style='color:GreenYellow; font-size: 70px;'>正确! </span>","null","","","","","","","","","","","","","","","","","","","","","","","feedback_test"
"","","","","","psychophysics","307","764883","0.0-13.0-0.0-1.0-0.1-0.73","532","","f","","","","","","","","","","","","","key","f","16.66636000000057","853.3333333333334","529.3333333333334","f","true","img/C_ambi40.png","圆形","image_first",""
"","","","","","html-keyboard-response","308","765196","0.0-13.0-0.0-1.0-0.1-1.73","null","<span style='color:GreenYellow; font-size: 70px;'>正确! </span>","null","","","","","","","","","","","","","","","","","","","","","","","feedback_test"
"","","","","","psychophysics","309","766923","0.0-13.0-0.0-1.0-0.1-0.74","572","","f","","","","","","","","","","","","","key","f","16.66669902912662","853.3333333333334","529.3333333333334","f","true","img/T_ambi40.png","三角","image_first",""
"","","","","","html-keyboard-response","310","767230","0.0-13.0-0.0-1.0-0.1-1.74","null","<span style='color:GreenYellow; font-size: 70px;'>正确! </span>","null","","","","","","","","","","","","","","","","","","","","","","","feedback_test"
"","","","","","psychophysics","311","769027","0.0-13.0-0.0-1.0-0.1-0.75","643","","j","","","","","","","","","","","","","key","j","16.66639252336452","853.3333333333334","529.3333333333334","j","true","img/S_ambi40.png","三角","image_first",""
"","","","","","html-keyboard-response","312","769345","0.0-13.0-0.0-1.0-0.1-1.75","null","<span style='color:GreenYellow; font-size: 70px;'>正确! </span>","null","","","","","","","","","","","","","","","","","","","","","","","feedback_test"
"","","","","","psychophysics","313","771256","0.0-13.0-0.0-1.0-0.1-0.76","759","","j","","","","","","","","","","","","","key","j","16.66657017543912","853.3333333333334","529.3333333333334","j","true","img/T_ambi40.png","圆形","image_first",""
"","","","","","html-keyboard-response","314","771570","0.0-13.0-0.0-1.0-0.1-1.76","null","<span style='color:GreenYellow; font-size: 70px;'>正确! </span>","null","","","","","","","","","","","","","","","","","","","","","","","feedback_test"
"","","","","","psychophysics","315","773460","0.0-13.0-0.0-1.0-0.1-0.77","726","","j","","","","","","","","","","","","","key","j","16.66686607142869","853.3333333333334","529.3333333333334","j","true","img/T_ambi40.png","方形","image_first",""
"","","","","","html-keyboard-response","316","773781","0.0-13.0-0.0-1.0-0.1-1.77","null","<span style='color:GreenYellow; font-size: 70px;'>正确! </span>","null","","","","","","","","","","","","","","","","","","","","","","","feedback_test"
"","","","","","psychophysics","317","775612","0.0-13.0-0.0-1.0-0.1-0.78","678","","f","","","","","","","","","","","","","key","f","16.66646788990843","853.3333333333334","529.3333333333334","j","false","img/C_ambi40.png","三角","image_first",""
"","","","","","html-keyboard-response","318","775934","0.0-13.0-0.0-1.0-0.1-1.78","null","<span style='color:red; font-size: 70px;'>错误! </span>","null","","","","","","","","","","","","","","","","","","","","","","","feedback_test"
"","","","","","psychophysics","319","777631","0.0-13.0-0.0-1.0-0.1-0.79","546","","f","","","","","","","","","","","","","key","f","16.666630000000588","853.3333333333334","529.3333333333334","f","true","img/S_ambi40.png","方形","image_first",""
"","","","","","html-keyboard-response","320","777945","0.0-13.0-0.0-1.0-0.1-1.79","null","<span style='color:GreenYellow; font-size: 70px;'>正确! </span>","null","","","","","","","","","","","","","","","","","","","","","","","feedback_test"
"","","","","","psychophysics","321","779791","0.0-13.0-0.0-1.0-0.1-0.80","690","","j","","","","","","","","","","","","","key","j","16.666709090908988","853.3333333333334","529.3333333333334","f","false","img/C_ambi40.png","圆形","image_first",""
"","","","","","html-keyboard-response","322","780096","0.0-13.0-0.0-1.0-0.1-1.80","null","<span style='color:red; font-size: 70px;'>错误! </span>","null","","","","","","","","","","","","","","","","","","","","","","","feedback_test"
"","","","","","psychophysics","323","781894","0.0-13.0-0.0-1.0-0.1-0.81","643","","j","","","","","","","","","","","","","key","j","16.66677570093432","853.3333333333334","529.3333333333334","j","true","img/C_ambi40.png","方形","image_first",""
"","","","","","html-keyboard-response","324","782212","0.0-13.0-0.0-1.0-0.1-1.81","null","<span style='color:GreenYellow; font-size: 70px;'>正确! </span>","null","","","","","","","","","","","","","","","","","","","","","","","feedback_test"
"","","","","","psychophysics","325","783906","0.0-13.0-0.0-1.0-0.1-0.82","538","","f","","","","","","","","","","","","","key","f","16.66676237623756","853.3333333333334","529.3333333333334","f","true","img/T_ambi40.png","三角","image_first",""
"","","","","","html-keyboard-response","326","784222","0.0-13.0-0.0-1.0-0.1-1.82","null","<span style='color:GreenYellow; font-size: 70px;'>正确! </span>","null","","","","","","","","","","","","","","","","","","","","","","","feedback_test"
"","","","","","psychophysics","327","786163","0.0-13.0-0.0-1.0-0.1-0.83","779","","j","","","","","","","","","","","","","key","j","16.666939130434564","853.3333333333334","529.3333333333334","j","true","img/S_ambi40.png","圆形","image_first",""
"","","","","","html-keyboard-response","328","786471","0.0-13.0-0.0-1.0-0.1-1.83","null","<span style='color:GreenYellow; font-size: 70px;'>正确! </span>","null","","","","","","","","","","","","","","","","","","","","","","","feedback_test"
"","","","","","psychophysics","329","788393","0.0-13.0-0.0-1.0-0.1-0.84","759","","j","","","","","","","","","","","","","key","j","16.66646491228133","853.3333333333334","529.3333333333334","j","true","img/S_ambi40.png","圆形","image_first",""
"","","","","","html-keyboard-response","330","788698","0.0-13.0-0.0-1.0-0.1-1.84","null","<span style='color:GreenYellow; font-size: 70px;'>正确! </span>","null","","","","","","","","","","","","","","","","","","","","","","","feedback_test"
"","","","","","psychophysics","331","790706","0.0-13.0-0.0-1.0-0.1-0.85","855","","j","","","","","","","","","","","","","key","j","16.66645833333314","853.3333333333334","529.3333333333334","j","true","img/S_ambi40.png","三角","image_first",""
"","","","","","html-keyboard-response","332","791011","0.0-13.0-0.0-1.0-0.1-1.85","null","<span style='color:GreenYellow; font-size: 70px;'>正确! </span>","null","","","","","","","","","","","","","","","","","","","","","","","feedback_test"
"","","","","","psychophysics","333","792920","0.0-13.0-0.0-1.0-0.1-0.86","752","","j","","","","","","","","","","","","","key","j","16.666763157894213","853.3333333333334","529.3333333333334","j","true","img/C_ambi40.png","三角","image_first",""
"","","","","","html-keyboard-response","334","793235","0.0-13.0-0.0-1.0-0.1-1.86","null","<span style='color:GreenYellow; font-size: 70px;'>正确! </span>","null","","","","","","","","","","","","","","","","","","","","","","","feedback_test"
"","","","","","psychophysics","335","795361","0.0-13.0-0.0-1.0-0.1-0.87","960","","f","","","","","","","","","","","","","key","f","16.66675396825442","853.3333333333334","529.3333333333334","f","true","img/C_ambi40.png","圆形","image_first",""
"","","","","","html-keyboard-response","336","795667","0.0-13.0-0.0-1.0-0.1-1.87","null","<span style='color:GreenYellow; font-size: 70px;'>正确! </span>","null","","","","","","","","","","","","","","","","","","","","","","","feedback_test"
"","","","","","psychophysics","337","797810","0.0-13.0-0.0-1.0-0.1-0.88","992","","f","","","","","","","","","","","","","key","f","16.55726771653487","853.3333333333334","529.3333333333334","f","true","img/S_ambi40.png","方形","image_first",""
"","","","","","html-keyboard-response","338","798123","0.0-13.0-0.0-1.0-0.1-1.88","null","<span style='color:GreenYellow; font-size: 70px;'>正确! </span>","null","","","","","","","","","","","","","","","","","","","","","","","feedback_test"
"","","","","","psychophysics","339","799923","0.0-13.0-0.0-1.0-0.1-0.89","638","","j","","","","","","","","","","","","","key","j","16.66689719626175","853.3333333333334","529.3333333333334","j","true","img/T_ambi40.png","圆形","image_first",""
"","","","","","html-keyboard-response","340","800239","0.0-13.0-0.0-1.0-0.1-1.89","null","<span style='color:GreenYellow; font-size: 70px;'>正确! </span>","null","","","","","","","","","","","","","","","","","","","","","","","feedback_test"
"","","","","","psychophysics","341","802084","0.0-13.0-0.0-1.0-0.1-0.90","683","","f","","","","","","","","","","","","","key","f","16.66662385321111","853.3333333333334","529.3333333333334","f","true","img/T_ambi40.png","三角","image_first",""
"","","","","","html-keyboard-response","342","802398","0.0-13.0-0.0-1.0-0.1-1.90","null","<span style='color:GreenYellow; font-size: 70px;'>正确! </span>","null","","","","","","","","","","","","","","","","","","","","","","","feedback_test"
"","","","","","psychophysics","343","804356","0.0-13.0-0.0-1.0-0.1-0.91","804","","f","","","","","","","","","","","","","key","f","16.66667521367562","853.3333333333334","529.3333333333334","f","true","img/S_ambi40.png","方形","image_first",""
"","","","","","html-keyboard-response","344","804669","0.0-13.0-0.0-1.0-0.1-1.91","null","<span style='color:GreenYellow; font-size: 70px;'>正确! </span>","null","","","","","","","","","","","","","","","","","","","","","","","feedback_test"
"","","","","","psychophysics","345","806778","0.0-13.0-0.0-1.0-0.1-0.92","952","","f","","","","","","","","","","","","","key","f","16.66655200000014","853.3333333333334","529.3333333333334","j","false","img/T_ambi40.png","方形","image_first",""
"","","","","","html-keyboard-response","346","807081","0.0-13.0-0.0-1.0-0.1-1.92","null","<span style='color:red; font-size: 70px;'>错误! </span>","null","","","","","","","","","","","","","","","","","","","","","","","feedback_test"
"","","","","","psychophysics","347","808990","0.0-13.0-0.0-1.0-0.1-0.93","756","","j","","","","","","","","","","","","","key","j","16.666640350876964","853.3333333333334","529.3333333333334","j","true","img/C_ambi40.png","方形","image_first",""
"","","","","","html-keyboard-response","348","809307","0.0-13.0-0.0-1.0-0.1-1.93","null","<span style='color:GreenYellow; font-size: 70px;'>正确! </span>","null","","","","","","","","","","","","","","","","","","","","","","","feedback_test"
"","","","","","psychophysics","349","811185","0.0-13.0-0.0-1.0-0.1-0.94","717","","f","","","","","","","","","","","","","key","f","16.66659821428558","853.3333333333334","529.3333333333334","f","true","img/C_ambi40.png","圆形","image_first",""
"","","","","","html-keyboard-response","350","811501","0.0-13.0-0.0-1.0-0.1-1.94","null","<span style='color:GreenYellow; font-size: 70px;'>正确! </span>","null","","","","","","","","","","","","","","","","","","","","","","","feedback_test"
"","","","","","psychophysics","351","813306","0.0-13.0-0.0-1.0-0.1-0.95","655","","f","","","","","","","","","","","","","key","f","16.666411214953104","853.3333333333334","529.3333333333334","f","true","img/T_ambi40.png","三角","image_first",""
"","","","","","html-keyboard-response","352","813616","0.0-13.0-0.0-1.0-0.1-1.95","null","<span style='color:GreenYellow; font-size: 70px;'>正确! </span>","null","","","","","","","","","","","","","","","","","","","","","","","feedback_test"
"","","","","","psychophysics","353","815629","0.0-13.0-0.0-1.0-0.1-0.96","862","","f","","","","","","","","","","","","","key","f","16.666341666665783","853.3333333333334","529.3333333333334","j","false","img/S_ambi40.png","三角","image_first",""
"","","","","","html-keyboard-response","354","815949","0.0-13.0-0.0-1.0-0.1-1.96","null","<span style='color:red; font-size: 70px;'>错误! </span>","null","","","","","","","","","","","","","","","","","","","","","","","feedback_test"
"","","","","","psychophysics","355","817600","0.0-13.0-0.0-1.0-0.1-0.97","499","","f","","","","","","","","","","","","","key","f","16.666632653060798","853.3333333333334","529.3333333333334","f","true","img/T_ambi40.png","三角","image_first",""
"","","","","","html-keyboard-response","356","817909","0.0-13.0-0.0-1.0-0.1-1.97","null","<span style='color:GreenYellow; font-size: 70px;'>正确! </span>","null","","","","","","","","","","","","","","","","","","","","","","","feedback_test"
"","","","","","psychophysics","357","819754","0.0-13.0-0.0-1.0-0.1-0.98","686","","f","","","","","","","","","","","","","key","f","16.66667272727196","853.3333333333334","529.3333333333334","j","false","img/C_ambi40.png","三角","image_first",""
"","","","","","html-keyboard-response","358","820061","0.0-13.0-0.0-1.0-0.1-1.98","null","<span style='color:red; font-size: 70px;'>错误! </span>","null","","","","","","","","","","","","","","","","","","","","","","","feedback_test"
"","","","","","psychophysics","359","821778","0.0-13.0-0.0-1.0-0.1-0.99","560","","f","","","","","","","","","","","","","key","f","16.666627450980812","853.3333333333334","529.3333333333334","f","true","img/T_ambi40.png","三角","image_first",""
"","","","","","html-keyboard-response","360","822087","0.0-13.0-0.0-1.0-0.1-1.99","null","<span style='color:GreenYellow; font-size: 70px;'>正确! </span>","null","","","","","","","","","","","","","","","","","","","","","","","feedback_test"
"","","","","","psychophysics","361","823825","0.0-13.0-0.0-1.0-0.1-0.100","585","","j","","","","","","","","","","","","","key","j","16.666669902912776","853.3333333333334","529.3333333333334","j","true","img/T_ambi40.png","圆形","image_first",""
"","","","","","html-keyboard-response","362","824144","0.0-13.0-0.0-1.0-0.1-1.100","null","<span style='color:GreenYellow; font-size: 70px;'>正确! </span>","null","","","","","","","","","","","","","","","","","","","","","","","feedback_test"
"","","","","","psychophysics","363","825966","0.0-13.0-0.0-1.0-0.1-0.101","666","","j","","","","","","","","","","","","","key","j","16.66643518518497","853.3333333333334","529.3333333333334","j","true","img/C_ambi40.png","方形","image_first",""
"","","","","","html-keyboard-response","364","826282","0.0-13.0-0.0-1.0-0.1-1.101","null","<span style='color:GreenYellow; font-size: 70px;'>正确! </span>","null","","","","","","","","","","","","","","","","","","","","","","","feedback_test"
"","","","","","psychophysics","365","828220","0.0-13.0-0.0-1.0-0.1-0.102","786","","j","","","","","","","","","","","","","key","j","16.666353448275036","853.3333333333334","529.3333333333334","j","true","img/T_ambi40.png","方形","image_first",""
"","","","","","html-keyboard-response","366","828536","0.0-13.0-0.0-1.0-0.1-1.102","null","<span style='color:GreenYellow; font-size: 70px;'>正确! </span>","null","","","","","","","","","","","","","","","","","","","","","","","feedback_test"
"","","","","","psychophysics","367","830582","0.0-13.0-0.0-1.0-0.1-0.103","883","","f","","","","","","","","","","","","","key","f","16.666355371900472","853.3333333333334","529.3333333333334","f","true","img/S_ambi40.png","方形","image_first",""
"","","","","","html-keyboard-response","368","830890","0.0-13.0-0.0-1.0-0.1-1.103","null","<span style='color:GreenYellow; font-size: 70px;'>正确! </span>","null","","","","","","","","","","","","","","","","","","","","","","","feedback_test"
"","","","","","psychophysics","369","832769","0.0-13.0-0.0-1.0-0.1-0.104","718","","f","","","","","","","","","","","","","key","f","16.6665535714284","853.3333333333334","529.3333333333334","f","true","img/C_ambi40.png","圆形","image_first",""
"","","","","","html-keyboard-response","370","833075","0.0-13.0-0.0-1.0-0.1-1.104","null","<span style='color:GreenYellow; font-size: 70px;'>正确! </span>","null","","","","","","","","","","","","","","","","","","","","","","","feedback_test"
"","","","","","psychophysics","371","834989","0.0-13.0-0.0-1.0-0.1-0.105","755","","f","","","","","","","","","","","","","key","f","16.666719298246072","853.3333333333334","529.3333333333334","f","true","img/S_ambi40.png","方形","image_first",""
"","","","","","html-keyboard-response","372","835304","0.0-13.0-0.0-1.0-0.1-1.105","null","<span style='color:GreenYellow; font-size: 70px;'>正确! </span>","null","","","","","","","","","","","","","","","","","","","","","","","feedback_test"
"","","","","","psychophysics","373","837213","0.0-13.0-0.0-1.0-0.1-0.106","753","","f","","","","","","","","","","","","","key","f","16.666318584070748","853.3333333333334","529.3333333333334","f","true","img/C_ambi40.png","圆形","image_first",""
"","","","","","html-keyboard-response","374","837529","0.0-13.0-0.0-1.0-0.1-1.106","null","<span style='color:GreenYellow; font-size: 70px;'>正确! </span>","null","","","","","","","","","","","","","","","","","","","","","","","feedback_test"
"","","","","","psychophysics","375","839596","0.0-13.0-0.0-1.0-0.1-0.107","912","","f","","","","","","","","","","","","","key","f","16.666398373984247","853.3333333333334","529.3333333333334","j","false","img/S_ambi40.png","圆形","image_first",""
"","","","","","html-keyboard-response","376","839910","0.0-13.0-0.0-1.0-0.1-1.107","null","<span style='color:red; font-size: 70px;'>错误! </span>","null","","","","","","","","","","","","","","","","","","","","","","","feedback_test"
"","","","","","psychophysics","377","842093","0.0-13.0-0.0-1.0-0.1-0.108","1025","","f","","","","","","","","","","","","","key","f","16.66669230769263","853.3333333333334","529.3333333333334","f","true","img/S_ambi40.png","方形","image_first",""
"","","","","","html-keyboard-response","378","842407","0.0-13.0-0.0-1.0-0.1-1.108","null","<span style='color:GreenYellow; font-size: 70px;'>正确! </span>","null","","","","","","","","","","","","","","","","","","","","","","","feedback_test"
"","","","","","psychophysics","379","844099","0.0-13.0-0.0-1.0-0.1-0.109","532","","f","","","","","","","","","","","","","key","f","16.666530000000492","853.3333333333334","529.3333333333334","f","true","img/C_ambi40.png","圆形","image_first",""
"","","","","","html-keyboard-response","380","844415","0.0-13.0-0.0-1.0-0.1-1.109","null","<span style='color:GreenYellow; font-size: 70px;'>正确! </span>","null","","","","","","","","","","","","","","","","","","","","","","","feedback_test"
"","","","","","psychophysics","381","846342","0.0-13.0-0.0-1.0-0.1-0.110","775","","j","","","","","","","","","","","","","key","j","16.666556521739974","853.3333333333334","529.3333333333334","j","true","img/S_ambi40.png","圆形","image_first",""
"","","","","","html-keyboard-response","382","846662","0.0-13.0-0.0-1.0-0.1-1.110","null","<span style='color:GreenYellow; font-size: 70px;'>正确! </span>","null","","","","","","","","","","","","","","","","","","","","","","","feedback_test"
"","","","","","psychophysics","383","848574","0.0-13.0-0.0-1.0-0.1-0.111","757","","j","","","","","","","","","","","","","key","j","16.66682456140386","853.3333333333334","529.3333333333334","f","false","img/S_ambi40.png","方形","image_first",""
"","","","","","html-keyboard-response","384","848890","0.0-13.0-0.0-1.0-0.1-1.111","null","<span style='color:red; font-size: 70px;'>错误! </span>","null","","","","","","","","","","","","","","","","","","","","","","","feedback_test"
"","","","","","psychophysics","385","850555","0.0-13.0-0.0-1.0-0.1-0.112","505","","f","","","","","","","","","","","","","key","f","16.666656565656087","853.3333333333334","529.3333333333334","f","true","img/T_ambi40.png","三角","image_first",""
"","","","","","html-keyboard-response","386","850875","0.0-13.0-0.0-1.0-0.1-1.112","null","<span style='color:GreenYellow; font-size: 70px;'>正确! </span>","null","","","","","","","","","","","","","","","","","","","","","","","feedback_test"
"","","","","","psychophysics","387","852647","0.0-13.0-0.0-1.0-0.1-0.113","613","","j","","","","","","","","","","","","","key","j","16.666695238094377","853.3333333333334","529.3333333333334","j","true","img/C_ambi40.png","方形","image_first",""
"","","","","","html-keyboard-response","388","852955","0.0-13.0-0.0-1.0-0.1-1.113","null","<span style='color:GreenYellow; font-size: 70px;'>正确! </span>","null","","","","","","","","","","","","","","","","","","","","","","","feedback_test"
"","","","","","psychophysics","389","854653","0.0-13.0-0.0-1.0-0.1-0.114","535","","f","","","","","","","","","","","","","key","f","16.666742574257572","853.3333333333334","529.3333333333334","f","true","img/C_ambi40.png","圆形","image_first",""
"","","","","","html-keyboard-response","390","854963","0.0-13.0-0.0-1.0-0.1-1.114","null","<span style='color:GreenYellow; font-size: 70px;'>正确! </span>","null","","","","","","","","","","","","","","","","","","","","","","","feedback_test"
"","","","","","psychophysics","391","857061","0.0-13.0-0.0-1.0-0.1-0.115","944","","f","","","","","","","","","","","","","key","f","16.66659200000018","853.3333333333334","529.3333333333334","j","false","img/C_ambi40.png","三角","image_first",""
"","","","","","html-keyboard-response","392","857383","0.0-13.0-0.0-1.0-0.1-1.115","null","<span style='color:red; font-size: 70px;'>错误! </span>","null","","","","","","","","","","","","","","","","","","","","","","","feedback_test"
"","","","","","psychophysics","393","859615","0.0-13.0-0.0-1.0-0.1-0.116","1081","","j","","","","","","","","","","","","","key","j","16.56005303030234","853.3333333333334","529.3333333333334","j","true","img/T_ambi40.png","圆形","image_first",""
"","","","","","html-keyboard-response","394","859931","0.0-13.0-0.0-1.0-0.1-1.116","null","<span style='color:GreenYellow; font-size: 70px;'>正确! </span>","null","","","","","","","","","","","","","","","","","","","","","","","feedback_test"
"","","","","","psychophysics","395","861835","0.0-13.0-0.0-1.0-0.1-0.117","751","","f","","","","","","","","","","","","","key","f","16.66599122806975","853.3333333333334","529.3333333333334","f","true","img/T_ambi40.png","三角","image_first",""
"","","","","","html-keyboard-response","396","862151","0.0-13.0-0.0-1.0-0.1-1.117","null","<span style='color:GreenYellow; font-size: 70px;'>正确! </span>","null","","","","","","","","","","","","","","","","","","","","","","","feedback_test"
"","","","","","psychophysics","397","864280","0.0-13.0-0.0-1.0-0.1-0.118","975","","j","","","","","","","","","","","","","key","j","16.666555555554897","853.3333333333334","529.3333333333334","j","true","img/T_ambi40.png","方形","image_first",""
"","","","","","html-keyboard-response","398","864584","0.0-13.0-0.0-1.0-0.1-1.118","null","<span style='color:GreenYellow; font-size: 70px;'>正确! </span>","null","","","","","","","","","","","","","","","","","","","","","","","feedback_test"
"","","","","","psychophysics","399","866649","0.0-13.0-0.0-1.0-0.1-0.119","900","","j","","","","","","","","","","","","","key","j","16.666598360655357","853.3333333333334","529.3333333333334","j","true","img/S_ambi40.png","三角","image_first",""
"","","","","","html-keyboard-response","400","866959","0.0-13.0-0.0-1.0-0.1-1.119","null","<span style='color:GreenYellow; font-size: 70px;'>正确! </span>","null","","","","","","","","","","","","","","","","","","","","","","","feedback_test"
"","","","","","html-keyboard-response","401","869291","0.0-13.0-0.0-1.0-1.1","2331","<style>.context{color:white; font-size: 35px; line-height:40px}</style>                            <div><p class='context'>您正确回答了83% 的试次。</p><p class='context'>您的平均反应时为738毫秒。</p><p class='context'>请按任意键进入休息</p></div>"," ","","","","","","","","","","","","","","","","","","","","","","",""
"","","","","","html-button-response","402","883406","0.0-13.0-0.0-1.0-2.1","14113","
                    <p>您当前还剩余2组实验</p>
                    <p>现在是休息时间，当您结束休息后，您可以点击 结束休息 按钮 继续</p>
                    <p>建议休息时间还剩余<span id=""iii"">60</span>秒</p>","0","","","","","","","","","","","","","","","","","","","","","","",""
"","","","","","psychophysics","403","885504","0.0-13.0-0.0-1.0-0.2-0.120","937","","j","","","","","","","","","","","","","key","j","16.666488000000825","853.3333333333334","529.3333333333334","j","true","img/S_ambi40.png","三角","image_first",""
"","","","","","html-keyboard-response","404","885814","0.0-13.0-0.0-1.0-0.2-1.120","null","<span style='color:GreenYellow; font-size: 70px;'>正确! </span>","null","","","","","","","","","","","","","","","","","","","","","","","feedback_test"
"","","","","","psychophysics","405","887605","0.0-13.0-0.0-1.0-0.2-0.121","638","","j","","","","","","","","","","","","","key","j","16.666383177569685","853.3333333333334","529.3333333333334","j","true","img/T_ambi40.png","方形","image_first",""
"","","","","","html-keyboard-response","406","887925","0.0-13.0-0.0-1.0-0.2-1.121","null","<span style='color:GreenYellow; font-size: 70px;'>正确! </span>","null","","","","","","","","","","","","","","","","","","","","","","","feedback_test"
"","","","","","psychophysics","407","890071","0.0-13.0-0.0-1.0-0.2-0.122","987","","j","","","","","","","","","","","","","key","j","16.666820312500022","853.3333333333334","529.3333333333334","j","true","img/C_ambi40.png","方形","image_first",""
"","","","","","html-keyboard-response","408","890385","0.0-13.0-0.0-1.0-0.2-1.122","null","<span style='color:GreenYellow; font-size: 70px;'>正确! </span>","null","","","","","","","","","","","","","","","","","","","","","","","feedback_test"
