"success","timeout","failed_images","failed_audio","failed_video","trial_type","trial_index","time_elapsed","internal_node_id","rt","stimulus","response","value","item_width_mm","item_height_mm","item_width_px","px2mm","view_dist_mm","item_width_deg","px2deg","scale_factor","win_width_deg","win_height_deg","view_history","response_type","key_press","avg_frame_time","center_x","center_y","correct_response","correct","Image","word","condition","screen_id"
"true","false","[]","[]","[]","preload","0","33057","0.0-0.0","","","","","","","","","","","","","","","","","","","","","","","","","",""
"","","","","","html-keyboard-response","1","37761","0.0-1.0","4704","
   <p>您好，欢迎参加本次实验。</p>
   <p>为充分保障您的权利，请确保您已经知晓并同意《参与实验同意书》以及《数据公开知情同意书》。</p>
   <p>如果您未见过上述内容，请咨询实验员。</p>
   <p>如果您选择继续实验，则表示您已经清楚两份知情同意书的内容并同意。</p>
   <p> <div style = ""color: green""><按任意键至下页></div> </p>
   ","arrowdown","","","","","","","","","","","","","","","","","","","","","","",""
"","","","","","html-keyboard-response","2","111047","0.0-2.0","73285","
   <p>本实验首先需要您填写一些基本个人信息。</p>
   <p> <div style = ""color: green""><按任意键至下页></div></p>
   ","arrowdown","","","","","","","","","","","","","","","","","","","","","","",""
"","","","","","call-function","3","111048","0.0-3.0-0.0","","","","","","","","","","","","","","","","","","","","","","","","","",""
"","","","","","survey-html-form","4","118377","0.0-3.0-1.0","7328","","{""Q0"":""21""}","","","","","","","","","","","","","","","","","","","","","","",""
"","","","","","html-button-response","5","120261","0.0-3.0-2.0","1883","<p style = 'color : white'>您的性别</p>","0","","","","","","","","","","","","","","","","","","","","","","",""
"","","","","","survey-html-form","6","125769","0.0-3.0-3.0","5507","","{""Q0"":""2001""}","","","","","","","","","","","","","","","","","","","","","","",""
"","","","","","survey-html-form","7","130109","0.0-3.0-4.0","4339","","{""Q0"":""5""}","","","","","","","","","","","","","","","","","","","","","","",""
"","","","","","virtual-chinrest","8","346515","0.0-4.0","216405","","","","85.6","53.98","430.64198492052583","5.027494800700092","568.37","8.612839698410516","50","0.9985092375035279","21.72","17.2","","","","","","","","","","","",""
"true","","","","","fullscreen","9","360125","0.0-5.0","","","","","","","","","","","","","","","","","","","","","","","","","",""
"","","","","","instructions","10","416679","0.0-6.0","56553","","","","","","","","","","","","","","[{""page_index"":0,""viewing_time"":4047},{""page_index"":1,""viewing_time"":35262},{""page_index"":2,""viewing_time"":12238},{""page_index"":3,""viewing_time"":5006}]","","","","","","","","","","",""
"","","","","","psychophysics","11","419339","0.0-7.0-0.0-0.0","null","","null","","","","","","","","","","","","","key","null","6.176334112149578","853.3333333333334","529.3333333333334","j","false","img/C_ambi40.png","圆形","prac_image_first",""
"","","","","","html-keyboard-response","12","419652","0.0-7.0-0.0-1.0","null","<span class='add_' style='color:yellow; font-size: 70px;'> 太慢! </span>","null","","","","","","","","","","","","","","","","","","","","","","","feedback_test"
"","","","","","psychophysics","13","422304","0.0-7.0-0.0-0.1","null","","null","","","","","","","","","","","","","key","null","6.074412844036738","853.3333333333334","529.3333333333334","f","false","img/S_ambi40.png","三角","prac_image_first",""
"","","","","","html-keyboard-response","14","422604","0.0-7.0-0.0-1.1","null","<span class='add_' style='color:yellow; font-size: 70px;'> 太慢! </span>","null","","","","","","","","","","","","","","","","","","","","","","","feedback_test"
"","","","","","psychophysics","15","425260","0.0-7.0-0.0-0.2","null","","null","","","","","","","","","","","","","key","null","6.060546910755088","853.3333333333334","529.3333333333334","f","false","img/S_ambi40.png","圆形","prac_image_first",""
"","","","","","html-keyboard-response","16","425568","0.0-7.0-0.0-1.2","null","<span class='add_' style='color:yellow; font-size: 70px;'> 太慢! </span>","null","","","","","","","","","","","","","","","","","","","","","","","feedback_test"
"","","","","","psychophysics","17","428224","0.0-7.0-0.0-0.3","null","","null","","","","","","","","","","","","","key","null","6.054374712643791","853.3333333333334","529.3333333333334","f","false","img/T_ambi40.png","圆形","prac_image_first",""
"","","","","","html-keyboard-response","18","428537","0.0-7.0-0.0-1.3","null","<span class='add_' style='color:yellow; font-size: 70px;'> 太慢! </span>","null","","","","","","","","","","","","","","","","","","","","","","","feedback_test"
"","","","","","psychophysics","19","431188","0.0-7.0-0.0-0.4","null","","null","","","","","","","","","","","","","key","null","6.074493119266171","853.3333333333334","529.3333333333334","j","false","img/C_ambi40.png","圆形","prac_image_first",""
"","","","","","html-keyboard-response","20","431489","0.0-7.0-0.0-1.4","null","<span class='add_' style='color:yellow; font-size: 70px;'> 太慢! </span>","null","","","","","","","","","","","","","","","","","","","","","","","feedback_test"
"","","","","","psychophysics","21","433225","0.0-7.0-0.0-0.5","583","","j","","","","","","","","","","","","","key","j","6.0506408450703635","853.3333333333334","529.3333333333334","j","true","img/S_ambi40.png","方形","prac_image_first",""
"","","","","","html-keyboard-response","22","433539","0.0-7.0-0.0-1.5","null","<span style='color:GreenYellow; font-size: 70px;'>正确! </span>","null","","","","","","","","","","","","","","","","","","","","","","","feedback_test"
"","","","","","psychophysics","23","435164","0.0-7.0-0.0-0.6","474","","f","","","","","","","","","","","","","key","f","6.046984962405877","853.3333333333334","529.3333333333334","j","false","img/T_ambi40.png","三角","prac_image_first",""
"","","","","","html-keyboard-response","24","435475","0.0-7.0-0.0-1.6","null","<span style='color:red; font-size: 70px;'>错误! </span>","null","","","","","","","","","","","","","","","","","","","","","","","feedback_test"
"","","","","","psychophysics","25","437247","0.0-7.0-0.0-0.7","618","","j","","","","","","","","","","","","","key","j","6.060518900343758","853.3333333333334","529.3333333333334","j","true","img/T_ambi40.png","三角","prac_image_first",""
"","","","","","html-keyboard-response","26","437549","0.0-7.0-0.0-1.7","null","<span style='color:GreenYellow; font-size: 70px;'>正确! </span>","null","","","","","","","","","","","","","","","","","","","","","","","feedback_test"
"","","","","","psychophysics","27","439436","0.0-7.0-0.0-0.8","734","","j","","","","","","","","","","","","","key","j","6.060446945337618","853.3333333333334","529.3333333333334","j","true","img/S_ambi40.png","方形","prac_image_first",""
"","","","","","html-keyboard-response","28","439738","0.0-7.0-0.0-1.8","null","<span style='color:GreenYellow; font-size: 70px;'>正确! </span>","null","","","","","","","","","","","","","","","","","","","","","","","feedback_test"
"","","","","","psychophysics","29","441483","0.0-7.0-0.0-0.9","593","","f","","","","","","","","","","","","","key","f","6.048361403508757","853.3333333333334","529.3333333333334","f","true","img/T_ambi40.png","方形","prac_image_first",""
"","","","","","html-keyboard-response","30","441793","0.0-7.0-0.0-1.9","null","<span style='color:GreenYellow; font-size: 70px;'>正确! </span>","null","","","","","","","","","","","","","","","","","","","","","","","feedback_test"
"","","","","","psychophysics","31","443566","0.0-7.0-0.0-0.10","621","","f","","","","","","","","","","","","","key","f","6.0605223367698375","853.3333333333334","529.3333333333334","f","true","img/C_ambi40.png","三角","prac_image_first",""
"","","","","","html-keyboard-response","32","443872","0.0-7.0-0.0-1.10","null","<span style='color:GreenYellow; font-size: 70px;'>正确! </span>","null","","","","","","","","","","","","","","","","","","","","","","","feedback_test"
"","","","","","psychophysics","33","445612","0.0-7.0-0.0-0.11","589","","j","","","","","","","","","","","","","key","j","6.048031578947414","853.3333333333334","529.3333333333334","f","false","img/C_ambi40.png","方形","prac_image_first",""
"","","","","","html-keyboard-response","34","445919","0.0-7.0-0.0-1.11","null","<span style='color:red; font-size: 70px;'>错误! </span>","null","","","","","","","","","","","","","","","","","","","","","","","feedback_test"
"","","","","","psychophysics","35","447731","0.0-7.0-0.0-0.12","659","","f","","","","","","","","","","","","","key","f","6.050925675675555","853.3333333333334","529.3333333333334","f","true","img/S_ambi40.png","圆形","prac_image_first",""
"","","","","","html-keyboard-response","36","448034","0.0-7.0-0.0-1.12","null","<span style='color:GreenYellow; font-size: 70px;'>正确! </span>","null","","","","","","","","","","","","","","","","","","","","","","","feedback_test"
"","","","","","psychophysics","37","449688","0.0-7.0-0.0-0.13","501","","f","","","","","","","","","","","","","key","f","6.060444852941146","853.3333333333334","529.3333333333334","j","false","img/S_ambi40.png","方形","prac_image_first",""
"","","","","","html-keyboard-response","38","449994","0.0-7.0-0.0-1.13","null","<span style='color:red; font-size: 70px;'>错误! </span>","null","","","","","","","","","","","","","","","","","","","","","","","feedback_test"
"","","","","","psychophysics","39","451949","0.0-7.0-0.0-0.14","805","","f","","","","","","","","","","","","","key","f","6.0605264797507905","853.3333333333334","529.3333333333334","f","true","img/T_ambi40.png","圆形","prac_image_first",""
"","","","","","html-keyboard-response","40","452260","0.0-7.0-0.0-1.14","null","<span style='color:GreenYellow; font-size: 70px;'>正确! </span>","null","","","","","","","","","","","","","","","","","","","","","","","feedback_test"
"","","","","","psychophysics","41","454371","0.0-7.0-0.0-0.15","960","","j","","","","","","","","","","","","","key","j","6.060518731988473","853.3333333333334","529.3333333333334","j","true","img/S_ambi40.png","方形","prac_image_first",""
"","","","","","html-keyboard-response","42","454672","0.0-7.0-0.0-1.15","null","<span style='color:GreenYellow; font-size: 70px;'>正确! </span>","null","","","","","","","","","","","","","","","","","","","","","","","feedback_test"
"","","","","","psychophysics","43","456561","0.0-7.0-0.0-0.16","738","","f","","","","","","","","","","","","","key","f","6.060480645161137","853.3333333333334","529.3333333333334","f","true","img/S_ambi40.png","三角","prac_image_first",""
"","","","","","html-keyboard-response","44","456875","0.0-7.0-0.0-1.16","null","<span style='color:GreenYellow; font-size: 70px;'>正确! </span>","null","","","","","","","","","","","","","","","","","","","","","","","feedback_test"
"","","","","","psychophysics","45","458679","0.0-7.0-0.0-0.17","650","","f","","","","","","","","","","","","","key","f","6.06041077441071","853.3333333333334","529.3333333333334","f","true","img/C_ambi40.png","方形","prac_image_first",""
"","","","","","html-keyboard-response","46","458991","0.0-7.0-0.0-1.17","null","<span style='color:GreenYellow; font-size: 70px;'>正确! </span>","null","","","","","","","","","","","","","","","","","","","","","","","feedback_test"
"","","","","","psychophysics","47","460761","0.0-7.0-0.0-0.18","617","","j","","","","","","","","","","","","","key","j","6.060498281786877","853.3333333333334","529.3333333333334","j","true","img/C_ambi40.png","圆形","prac_image_first",""
"","","","","","html-keyboard-response","48","461069","0.0-7.0-0.0-1.18","null","<span style='color:GreenYellow; font-size: 70px;'>正确! </span>","null","","","","","","","","","","","","","","","","","","","","","","","feedback_test"
"","","","","","psychophysics","49","463201","0.0-7.0-0.0-0.19","978","","f","","","","","","","","","","","","","key","f","6.060512820512794","853.3333333333334","529.3333333333334","f","true","img/C_ambi40.png","三角","prac_image_first",""
"","","","","","html-keyboard-response","50","463511","0.0-7.0-0.0-1.19","null","<span style='color:GreenYellow; font-size: 70px;'>正确! </span>","null","","","","","","","","","","","","","","","","","","","","","","","feedback_test"
"","","","","","psychophysics","51","465641","0.0-7.0-0.0-0.20","976","","j","","","","","","","","","","","","","key","j","6.060502857142794","853.3333333333334","529.3333333333334","j","true","img/T_ambi40.png","三角","prac_image_first",""
"","","","","","html-keyboard-response","52","465957","0.0-7.0-0.0-1.20","null","<span style='color:GreenYellow; font-size: 70px;'>正确! </span>","null","","","","","","","","","","","","","","","","","","","","","","","feedback_test"
"","","","","","psychophysics","53","467670","0.0-7.0-0.0-0.21","562","","j","","","","","","","","","","","","","key","j","6.060548042704507","853.3333333333334","529.3333333333334","j","true","img/T_ambi40.png","三角","prac_image_first",""
"","","","","","html-keyboard-response","54","467975","0.0-7.0-0.0-1.21","null","<span style='color:GreenYellow; font-size: 70px;'>正确! </span>","null","","","","","","","","","","","","","","","","","","","","","","","feedback_test"
"","","","","","psychophysics","55","469591","0.0-7.0-0.0-0.22","465","","f","","","","","","","","","","","","","key","f","6.060652830188585","853.3333333333334","529.3333333333334","f","true","img/T_ambi40.png","方形","prac_image_first",""
"","","","","","html-keyboard-response","56","469898","0.0-7.0-0.0-1.22","null","<span style='color:GreenYellow; font-size: 70px;'>正确! </span>","null","","","","","","","","","","","","","","","","","","","","","","","feedback_test"
"","","","","","psychophysics","57","471763","0.0-7.0-0.0-0.23","710","","j","","","","","","","","","","","","","key","j","6.060442996742613","853.3333333333334","529.3333333333334","j","true","img/C_ambi40.png","圆形","prac_image_first",""
"","","","","","html-keyboard-response","58","472074","0.0-7.0-0.0-1.23","null","<span style='color:GreenYellow; font-size: 70px;'>正确! </span>","null","","","","","","","","","","","","","","","","","","","","","","","feedback_test"
"","","","","","html-keyboard-response","59","486563","0.0-8.0","14487","<style>.context{color:white; font-size: 35px; line-height:40px}</style>                            <div><p class='context'>您正确回答了67% 的试次。</p><p class='context'>您的平均反应时为704毫秒。</p><p class='context'>恭喜您完成这一阶段的练习。按任意键进入<span style='color: yellow;'>先文字后图形条件</span>的练习。</p></div>"," ","","","","","","","","","","","","","","","","","","","","","","",""
"","","","","","psychophysics","60","488289","0.0-9.0-0.0-0.0","568","","j","","","","","","","","","","","","","key","j","6.081960992907844","853.3333333333334","529.3333333333334","j","true","img/T_ambi40.png","三角","prac_word_first",""
"","","","","","html-keyboard-response","61","488603","0.0-9.0-0.0-1.0","null","<span style='color:GreenYellow; font-size: 70px;'>正确! </span>","null","","","","","","","","","","","","","","","","","","","","","","","feedback_test"
"","","","","","psychophysics","62","490478","0.0-9.0-0.0-0.1","723","","j","","","","","","","","","","","","","key","j","6.060522727272738","853.3333333333334","529.3333333333334","f","false","img/C_ambi40.png","方形","prac_word_first",""
"","","","","","html-keyboard-response","63","490790","0.0-9.0-0.0-1.1","null","<span style='color:red; font-size: 70px;'>错误! </span>","null","","","","","","","","","","","","","","","","","","","","","","","feedback_test"
"","","","","","psychophysics","64","492704","0.0-9.0-0.0-0.2","759","","j","","","","","","","","","","","","","key","j","6.060504761904603","853.3333333333334","529.3333333333334","j","true","img/S_ambi40.png","方形","prac_word_first",""
"","","","","","html-keyboard-response","65","493010","0.0-9.0-0.0-1.2","null","<span style='color:GreenYellow; font-size: 70px;'>正确! </span>","null","","","","","","","","","","","","","","","","","","","","","","","feedback_test"
"","","","","","psychophysics","66","494626","0.0-9.0-0.0-0.3","463","","f","","","","","","","","","","","","","key","f","6.049003787878698","853.3333333333334","529.3333333333334","f","true","img/T_ambi40.png","圆形","prac_word_first",""
"","","","","","html-keyboard-response","67","494937","0.0-9.0-0.0-1.3","null","<span style='color:GreenYellow; font-size: 70px;'>正确! </span>","null","","","","","","","","","","","","","","","","","","","","","","","feedback_test"
"","","","","","psychophysics","68","496762","0.0-9.0-0.0-0.4","672","","j","","","","","","","","","","","","","key","j","6.060410000000071","853.3333333333334","529.3333333333334","j","true","img/C_ambi40.png","圆形","prac_word_first",""
"","","","","","html-keyboard-response","69","497069","0.0-9.0-0.0-1.4","null","<span style='color:GreenYellow; font-size: 70px;'>正确! </span>","null","","","","","","","","","","","","","","","","","","","","","","","feedback_test"
"","","","","","psychophysics","70","498755","0.0-9.0-0.0-0.5","532","","f","","","","","","","","","","","","","key","f","6.06049819494596","853.3333333333334","529.3333333333334","f","true","img/S_ambi40.png","圆形","prac_word_first",""
"","","","","","html-keyboard-response","71","499056","0.0-9.0-0.0-1.5","null","<span style='color:GreenYellow; font-size: 70px;'>正确! </span>","null","","","","","","","","","","","","","","","","","","","","","","","feedback_test"
"","","","","","psychophysics","72","500873","0.0-9.0-0.0-0.6","662","","f","","","","","","","","","","","","","key","f","6.060525083611875","853.3333333333334","529.3333333333334","f","true","img/C_ambi40.png","三角","prac_word_first",""
"","","","","","html-keyboard-response","73","501188","0.0-9.0-0.0-1.6","null","<span style='color:GreenYellow; font-size: 70px;'>正确! </span>","null","","","","","","","","","","","","","","","","","","","","","","","feedback_test"
"","","","","","psychophysics","74","502938","0.0-9.0-0.0-0.7","599","","f","","","","","","","","","","","","","key","f","6.06051916376329","853.3333333333334","529.3333333333334","f","true","img/T_ambi40.png","方形","prac_word_first",""
"","","","","","html-keyboard-response","75","503245","0.0-9.0-0.0-1.7","null","<span style='color:GreenYellow; font-size: 70px;'>正确! </span>","null","","","","","","","","","","","","","","","","","","","","","","","feedback_test"
"","","","","","psychophysics","76","505359","0.0-9.0-0.0-0.8","962","","j","","","","","","","","","","","","","key","j","6.060465517241425","853.3333333333334","529.3333333333334","j","true","img/C_ambi40.png","圆形","prac_word_first",""
"","","","","","html-keyboard-response","77","505662","0.0-9.0-0.0-1.8","null","<span style='color:GreenYellow; font-size: 70px;'>正确! </span>","null","","","","","","","","","","","","","","","","","","","","","","","feedback_test"
"","","","","","psychophysics","78","507407","0.0-9.0-0.0-0.9","589","","f","","","","","","","","","","","","","key","f","6.060557491289215","853.3333333333334","529.3333333333334","f","true","img/S_ambi40.png","三角","prac_word_first",""
"","","","","","html-keyboard-response","79","507717","0.0-9.0-0.0-1.9","null","<span style='color:GreenYellow; font-size: 70px;'>正确! </span>","null","","","","","","","","","","","","","","","","","","","","","","","feedback_test"
"","","","","","psychophysics","80","509578","0.0-9.0-0.0-0.10","706","","j","","","","","","","","","","","","","key","j","6.0604999999997355","853.3333333333334","529.3333333333334","j","true","img/S_ambi40.png","方形","prac_word_first",""
"","","","","","html-keyboard-response","81","509885","0.0-9.0-0.0-1.10","null","<span style='color:GreenYellow; font-size: 70px;'>正确! </span>","null","","","","","","","","","","","","","","","","","","","","","","","feedback_test"
"","","","","","psychophysics","82","511500","0.0-9.0-0.0-0.11","464","","j","","","","","","","","","","","","","key","j","6.0604679245282105","853.3333333333334","529.3333333333334","j","true","img/T_ambi40.png","三角","prac_word_first",""
"","","","","","html-keyboard-response","83","511801","0.0-9.0-0.0-1.11","null","<span style='color:GreenYellow; font-size: 70px;'>正确! </span>","null","","","","","","","","","","","","","","","","","","","","","","","feedback_test"
"","","","","","psychophysics","84","513672","0.0-9.0-0.0-0.12","715","","j","","","","","","","","","","","","","key","j","6.060477272727203","853.3333333333334","529.3333333333334","j","true","img/S_ambi40.png","方形","prac_word_first",""
"","","","","","html-keyboard-response","85","513982","0.0-9.0-0.0-1.12","null","<span style='color:GreenYellow; font-size: 70px;'>正确! </span>","null","","","","","","","","","","","","","","","","","","","","","","","feedback_test"
"","","","","","psychophysics","86","515665","0.0-9.0-0.0-0.13","533","","j","","","","","","","","","","","","","key","j","6.060554347826047","853.3333333333334","529.3333333333334","j","true","img/C_ambi40.png","圆形","prac_word_first",""
"","","","","","html-keyboard-response","87","515965","0.0-9.0-0.0-1.13","null","<span style='color:GreenYellow; font-size: 70px;'>正确! </span>","null","","","","","","","","","","","","","","","","","","","","","","","feedback_test"
"","","","","","psychophysics","88","517551","0.0-9.0-0.0-0.14","431","","j","","","","","","","","","","","","","key","j","6.060494252873524","853.3333333333334","529.3333333333334","j","true","img/T_ambi40.png","三角","prac_word_first",""
"","","","","","html-keyboard-response","89","517853","0.0-9.0-0.0-1.14","null","<span style='color:GreenYellow; font-size: 70px;'>正确! </span>","null","","","","","","","","","","","","","","","","","","","","","","","feedback_test"
"","","","","","psychophysics","90","519437","0.0-9.0-0.0-0.15","432","","f","","","","","","","","","","","","","key","f","6.060461538461879","853.3333333333334","529.3333333333334","f","true","img/C_ambi40.png","三角","prac_word_first",""
"","","","","","html-keyboard-response","91","519743","0.0-9.0-0.0-1.15","null","<span style='color:GreenYellow; font-size: 70px;'>正确! </span>","null","","","","","","","","","","","","","","","","","","","","","","","feedback_test"
"","","","","","psychophysics","92","521591","0.0-9.0-0.0-0.16","696","","f","","","","","","","","","","","","","key","f","6.054059602649009","853.3333333333334","529.3333333333334","f","true","img/S_ambi40.png","圆形","prac_word_first",""
"","","","","","html-keyboard-response","93","521898","0.0-9.0-0.0-1.16","null","<span style='color:GreenYellow; font-size: 70px;'>正确! </span>","null","","","","","","","","","","","","","","","","","","","","","","","feedback_test"
"","","","","","psychophysics","94","523602","0.0-9.0-0.0-0.17","549","","f","","","","","","","","","","","","","key","f","6.060453571428662","853.3333333333334","529.3333333333334","f","true","img/C_ambi40.png","方形","prac_word_first",""
"","","","","","html-keyboard-response","95","523904","0.0-9.0-0.0-1.17","null","<span style='color:GreenYellow; font-size: 70px;'>正确! </span>","null","","","","","","","","","","","","","","","","","","","","","","","feedback_test"
"","","","","","psychophysics","96","525738","0.0-9.0-0.0-0.18","678","","f","","","","","","","","","","","","","key","f","6.060461794020008","853.3333333333334","529.3333333333334","f","true","img/T_ambi40.png","圆形","prac_word_first",""
"","","","","","html-keyboard-response","97","526040","0.0-9.0-0.0-1.18","null","<span style='color:GreenYellow; font-size: 70px;'>正确! </span>","null","","","","","","","","","","","","","","","","","","","","","","","feedback_test"
"","","","","","psychophysics","98","527892","0.0-9.0-0.0-0.19","699","","j","","","","","","","","","","","","","key","j","6.05132343234316","853.3333333333334","529.3333333333334","j","true","img/C_ambi40.png","圆形","prac_word_first",""
"","","","","","html-keyboard-response","99","528193","0.0-9.0-0.0-1.19","null","<span style='color:GreenYellow; font-size: 70px;'>正确! </span>","null","","","","","","","","","","","","","","","","","","","","","","","feedback_test"
"","","","","","psychophysics","100","529938","0.0-9.0-0.0-0.20","594","","f","","","","","","","","","","","","","key","f","6.060489510489266","853.3333333333334","529.3333333333334","f","true","img/S_ambi40.png","三角","prac_word_first",""
"","","","","","html-keyboard-response","101","530250","0.0-9.0-0.0-1.20","null","<span style='color:GreenYellow; font-size: 70px;'>正确! </span>","null","","","","","","","","","","","","","","","","","","","","","","","feedback_test"
"","","","","","psychophysics","102","531896","0.0-9.0-0.0-0.21","492","","f","","","","","","","","","","","","","key","f","6.060560885608897","853.3333333333334","529.3333333333334","j","false","img/T_ambi40.png","三角","prac_word_first",""
"","","","","","html-keyboard-response","103","532209","0.0-9.0-0.0-1.21","null","<span style='color:red; font-size: 70px;'>错误! </span>","null","","","","","","","","","","","","","","","","","","","","","","","feedback_test"
"","","","","","psychophysics","104","534568","0.0-9.0-0.0-0.22","1206","","j","","","","","","","","","","","","","key","j","6.060492268041288","853.3333333333334","529.3333333333334","f","false","img/T_ambi40.png","方形","prac_word_first",""
"","","","","","html-keyboard-response","105","534879","0.0-9.0-0.0-1.22","null","<span style='color:red; font-size: 70px;'>错误! </span>","null","","","","","","","","","","","","","","","","","","","","","","","feedback_test"
"","","","","","psychophysics","106","536650","0.0-9.0-0.0-0.23","615","","j","","","","","","","","","","","","","key","j","6.060522336769638","853.3333333333334","529.3333333333334","j","true","img/S_ambi40.png","方形","prac_word_first",""
"","","","","","html-keyboard-response","107","536962","0.0-9.0-0.0-1.23","null","<span style='color:GreenYellow; font-size: 70px;'>正确! </span>","null","","","","","","","","","","","","","","","","","","","","","","","feedback_test"
"","","","","","html-keyboard-response","108","544109","0.0-10.0","7145","<style>.context{color:white; font-size: 35px; line-height:40px}</style>                            <div><p class='context'>您正确回答了88% 的试次。</p><p class='context'>您的平均反应时为615毫秒。</p><p class='context'>恭喜您完成练习。按任意键进入<span style='color: yellow;'>图形和文字同时呈现条件</span>的练习。</p></div>"," ","","","","","","","","","","","","","","","","","","","","","","",""
"","","","","","psychophysics","109","546616","0.0-11.0-0.0-0.0","null","","null","","","","","","","","","","","","","key","null","6.09015609756078","853.3333333333334","529.3333333333334","j","false","img/C_ambi40.png","圆形","prac_simultaneous",""
"","","","","","html-keyboard-response","110","546932","0.0-11.0-0.0-1.0","null","<span class='add_' style='color:yellow; font-size: 70px;'> 太慢! </span>","null","","","","","","","","","","","","","","","","","","","","","","","feedback_test"
"","","","","","psychophysics","111","549042","0.0-11.0-0.0-0.1","1104","","f","","","","","","","","","","","","","key","f","6.095637681159407","853.3333333333334","529.3333333333334","f","true","img/S_ambi40.png","三角","prac_simultaneous",""
"","","","","","html-keyboard-response","112","549354","0.0-11.0-0.0-1.1","null","<span style='color:GreenYellow; font-size: 70px;'>正确! </span>","null","","","","","","","","","","","","","","","","","","","","","","","feedback_test"
"","","","","","psychophysics","113","551142","0.0-11.0-0.0-0.2","786","","j","","","","","","","","","","","","","key","j","6.060547619047543","853.3333333333334","529.3333333333334","j","true","img/C_ambi40.png","圆形","prac_simultaneous",""
"","","","","","html-keyboard-response","114","551449","0.0-11.0-0.0-1.2","null","<span style='color:GreenYellow; font-size: 70px;'>正确! </span>","null","","","","","","","","","","","","","","","","","","","","","","","feedback_test"
"","","","","","psychophysics","115","553689","0.0-11.0-0.0-0.3","1237","","f","","","","","","","","","","","","","key","f","6.060478260869391","853.3333333333334","529.3333333333334","f","true","img/C_ambi40.png","三角","prac_simultaneous",""
"","","","","","html-keyboard-response","116","553992","0.0-11.0-0.0-1.3","null","<span style='color:GreenYellow; font-size: 70px;'>正确! </span>","null","","","","","","","","","","","","","","","","","","","","","","","feedback_test"
"","","","","","psychophysics","117","555718","0.0-11.0-0.0-0.4","726","","f","","","","","","","","","","","","","key","f","6.060452296819815","853.3333333333334","529.3333333333334","f","true","img/S_ambi40.png","圆形","prac_simultaneous",""
"","","","","","html-keyboard-response","118","556027","0.0-11.0-0.0-1.4","null","<span style='color:GreenYellow; font-size: 70px;'>正确! </span>","null","","","","","","","","","","","","","","","","","","","","","","","feedback_test"
"","","","","","psychophysics","119","557746","0.0-11.0-0.0-0.5","719","","j","","","","","","","","","","","","","key","j","6.050167259786301","853.3333333333334","529.3333333333334","j","true","img/S_ambi40.png","方形","prac_simultaneous",""
"","","","","","html-keyboard-response","120","558057","0.0-11.0-0.0-1.5","null","<span style='color:GreenYellow; font-size: 70px;'>正确! </span>","null","","","","","","","","","","","","","","","","","","","","","","","feedback_test"
"","","","","","psychophysics","121","559668","0.0-11.0-0.0-0.6","610","","f","","","","","","","","","","","","","key","f","6.0605094339623875","853.3333333333334","529.3333333333334","f","true","img/T_ambi40.png","方形","prac_simultaneous",""
"","","","","","html-keyboard-response","122","559983","0.0-11.0-0.0-1.6","null","<span style='color:GreenYellow; font-size: 70px;'>正确! </span>","null","","","","","","","","","","","","","","","","","","","","","","","feedback_test"
"","","","","","psychophysics","123","561643","0.0-11.0-0.0-0.7","658","","j","","","","","","","","","","","","","key","j","6.0604835164834725","853.3333333333334","529.3333333333334","j","true","img/T_ambi40.png","三角","prac_simultaneous",""
"","","","","","html-keyboard-response","124","561960","0.0-11.0-0.0-1.7","null","<span style='color:GreenYellow; font-size: 70px;'>正确! </span>","null","","","","","","","","","","","","","","","","","","","","","","","feedback_test"
"","","","","","psychophysics","125","563941","0.0-11.0-0.0-0.8","979","","j","","","","","","","","","","","","","key","j","6.060515337423322","853.3333333333334","529.3333333333334","j","true","img/S_ambi40.png","方形","prac_simultaneous",""
"","","","","","html-keyboard-response","126","564254","0.0-11.0-0.0-1.8","null","<span style='color:GreenYellow; font-size: 70px;'>正确! </span>","null","","","","","","","","","","","","","","","","","","","","","","","feedback_test"
"","","","","","psychophysics","127","565916","0.0-11.0-0.0-0.9","657","","f","","","","","","","","","","","","","key","f","6.060509157509052","853.3333333333334","529.3333333333334","f","true","img/C_ambi40.png","方形","prac_simultaneous",""
"","","","","","html-keyboard-response","128","566227","0.0-11.0-0.0-1.9","null","<span style='color:GreenYellow; font-size: 70px;'>正确! </span>","null","","","","","","","","","","","","","","","","","","","","","","","feedback_test"
"","","","","","psychophysics","129","568052","0.0-11.0-0.0-0.10","824","","f","","","","","","","","","","","","","key","f","6.051201342281982","853.3333333333334","529.3333333333334","f","true","img/T_ambi40.png","圆形","prac_simultaneous",""
"","","","","","html-keyboard-response","130","568359","0.0-11.0-0.0-1.10","null","<span style='color:GreenYellow; font-size: 70px;'>正确! </span>","null","","","","","","","","","","","","","","","","","","","","","","","feedback_test"
"","","","","","psychophysics","131","569956","0.0-11.0-0.0-0.11","595","","j","","","","","","","","","","","","","key","j","6.060479087452758","853.3333333333334","529.3333333333334","j","true","img/T_ambi40.png","三角","prac_simultaneous",""
"","","","","","html-keyboard-response","132","570260","0.0-11.0-0.0-1.11","null","<span style='color:GreenYellow; font-size: 70px;'>正确! </span>","null","","","","","","","","","","","","","","","","","","","","","","","feedback_test"
"","","","","","psychophysics","133","571985","0.0-11.0-0.0-0.12","722","","j","","","","","","","","","","","","","key","j","6.060526501766633","853.3333333333334","529.3333333333334","j","true","img/S_ambi40.png","方形","prac_simultaneous",""
"","","","","","html-keyboard-response","134","572298","0.0-11.0-0.0-1.12","null","<span style='color:GreenYellow; font-size: 70px;'>正确! </span>","null","","","","","","","","","","","","","","","","","","","","","","","feedback_test"
"","","","","","psychophysics","135","573889","0.0-11.0-0.0-0.13","588","","f","","","","","","","","","","","","","key","f","6.060526717557281","853.3333333333334","529.3333333333334","f","true","img/S_ambi40.png","三角","prac_simultaneous",""
"","","","","","html-keyboard-response","136","574204","0.0-11.0-0.0-1.13","null","<span style='color:GreenYellow; font-size: 70px;'>正确! </span>","null","","","","","","","","","","","","","","","","","","","","","","","feedback_test"
"","","","","","psychophysics","137","575811","0.0-11.0-0.0-0.14","601","","j","","","","","","","","","","","","","key","j","6.060530303030673","853.3333333333334","529.3333333333334","j","true","img/T_ambi40.png","三角","prac_simultaneous",""
"","","","","","html-keyboard-response","138","576119","0.0-11.0-0.0-1.14","null","<span style='color:GreenYellow; font-size: 70px;'>正确! </span>","null","","","","","","","","","","","","","","","","","","","","","","","feedback_test"
"","","","","","psychophysics","139","577840","0.0-11.0-0.0-0.15","719","","f","","","","","","","","","","","","","key","f","6.060553191489365","853.3333333333334","529.3333333333334","f","true","img/C_ambi40.png","方形","prac_simultaneous",""
"","","","","","html-keyboard-response","140","578149","0.0-11.0-0.0-1.15","null","<span style='color:GreenYellow; font-size: 70px;'>正确! </span>","null","","","","","","","","","","","","","","","","","","","","","","","feedback_test"
"","","","","","psychophysics","141","579851","0.0-11.0-0.0-0.16","700","","j","","","","","","","","","","","","","key","j","6.060598566308267","853.3333333333334","529.3333333333334","j","true","img/T_ambi40.png","三角","prac_simultaneous",""
"","","","","","html-keyboard-response","142","580153","0.0-11.0-0.0-1.16","null","<span style='color:GreenYellow; font-size: 70px;'>正确! </span>","null","","","","","","","","","","","","","","","","","","","","","","","feedback_test"
"","","","","","psychophysics","143","581862","0.0-11.0-0.0-0.17","707","","j","","","","","","","","","","","","","key","j","6.06056583629883","853.3333333333334","529.3333333333334","j","true","img/C_ambi40.png","圆形","prac_simultaneous",""
"","","","","","html-keyboard-response","144","582169","0.0-11.0-0.0-1.17","null","<span style='color:GreenYellow; font-size: 70px;'>正确! </span>","null","","","","","","","","","","","","","","","","","","","","","","","feedback_test"
"","","","","","psychophysics","145","584265","0.0-11.0-0.0-0.18","1093","","f","","","","","","","","","","","","","key","f","6.060495652174037","853.3333333333334","529.3333333333334","f","true","img/S_ambi40.png","圆形","prac_simultaneous",""
"","","","","","html-keyboard-response","146","584572","0.0-11.0-0.0-1.18","null","<span style='color:GreenYellow; font-size: 70px;'>正确! </span>","null","","","","","","","","","","","","","","","","","","","","","","","feedback_test"
"","","","","","psychophysics","147","586240","0.0-11.0-0.0-0.19","668","","j","","","","","","","","","","","","","key","j","6.060501818181524","853.3333333333334","529.3333333333334","j","true","img/C_ambi40.png","圆形","prac_simultaneous",""
"","","","","","html-keyboard-response","148","586542","0.0-11.0-0.0-1.19","null","<span style='color:GreenYellow; font-size: 70px;'>正确! </span>","null","","","","","","","","","","","","","","","","","","","","","","","feedback_test"
"","","","","","psychophysics","149","588163","0.0-11.0-0.0-0.20","620","","j","","","","","","","","","","","","","key","j","6.048947169811394","853.3333333333334","529.3333333333334","j","true","img/S_ambi40.png","方形","prac_simultaneous",""
"","","","","","html-keyboard-response","150","588473","0.0-11.0-0.0-1.20","null","<span style='color:GreenYellow; font-size: 70px;'>正确! </span>","null","","","","","","","","","","","","","","","","","","","","","","","feedback_test"
"","","","","","psychophysics","151","590101","0.0-11.0-0.0-0.21","626","","f","","","","","","","","","","","","","key","f","6.060500000000135","853.3333333333334","529.3333333333334","f","true","img/T_ambi40.png","圆形","prac_simultaneous",""
"","","","","","html-keyboard-response","152","590416","0.0-11.0-0.0-1.21","null","<span style='color:GreenYellow; font-size: 70px;'>正确! </span>","null","","","","","","","","","","","","","","","","","","","","","","","feedback_test"
"","","","","","psychophysics","153","592345","0.0-11.0-0.0-0.22","924","","f","","","","","","","","","","","","","key","f","6.060470031545724","853.3333333333334","529.3333333333334","f","true","img/T_ambi40.png","方形","prac_simultaneous",""
"","","","","","html-keyboard-response","154","592646","0.0-11.0-0.0-1.22","null","<span style='color:GreenYellow; font-size: 70px;'>正确! </span>","null","","","","","","","","","","","","","","","","","","","","","","","feedback_test"
"","","","","","psychophysics","155","594464","0.0-11.0-0.0-0.23","816","","j","","","","","","","","","","","","","key","j","6.060577181208138","853.3333333333334","529.3333333333334","f","false","img/C_ambi40.png","三角","prac_simultaneous",""
"","","","","","html-keyboard-response","156","594776","0.0-11.0-0.0-1.23","null","<span style='color:red; font-size: 70px;'>错误! </span>","null","","","","","","","","","","","","","","","","","","","","","","","feedback_test"
"","","","","","html-keyboard-response","157","611156","0.0-12.0","16379","<style>.context{color:white; font-size: 35px; line-height:40px}</style>                            <div><p class='context'>您正确回答了92% 的试次。</p><p class='context'>您的平均反应时为767毫秒。</p><p class='context'>恭喜您完成练习。按任意键进入正式实验。</p><p class='footer' style='font-size: 35px; line-height:40px;'>请在进入正式实验实验之前将您的<span style='color: lightgreen;'>食指</span>放在电脑键盘的相应键位上进行按键。</p>"," ","","","","","","","","","","","","","","","","","","","","","","",""
"","","","","","html-keyboard-response","158","615114","0.0-13.0-0.0-0.0","3956","
    <p>请您将手指放在按键上，准备进入呈现顺序为<span style='color: yellow;'>先图形后文字条件</span>的正式匹配任务</p>
    <p> <div style = ""color: green""><按任意键进入下一阶段的匹配任务></div></p>
    "," ","","","","","","","","","","","","","","","","","","","","","","",""
"","","","","","psychophysics","159","617161","0.0-13.0-0.0-1.0-0.0-0.0","891","","j","","","","","","","","","","","","","key","j","6.133291291291112","853.3333333333334","529.3333333333334","j","true","img/S_ambi40.png","方形","image_first",""
"","","","","","html-keyboard-response","160","617476","0.0-13.0-0.0-1.0-0.0-1.0","null","<span style='color:GreenYellow; font-size: 70px;'>正确! </span>","null","","","","","","","","","","","","","","","","","","","","","","","feedback_test"
"","","","","","psychophysics","161","619119","0.0-13.0-0.0-1.0-0.0-0.1","492","","j","","","","","","","","","","","","","key","j","6.060507407407621","853.3333333333334","529.3333333333334","j","true","img/C_ambi40.png","圆形","image_first",""
"","","","","","html-keyboard-response","162","619423","0.0-13.0-0.0-1.0-0.0-1.1","null","<span style='color:GreenYellow; font-size: 70px;'>正确! </span>","null","","","","","","","","","","","","","","","","","","","","","","","feedback_test"
"","","","","","psychophysics","163","621183","0.0-13.0-0.0-1.0-0.0-0.2","604","","f","","","","","","","","","","","","","key","f","6.0605086505189085","853.3333333333334","529.3333333333334","f","true","img/T_ambi40.png","方形","image_first",""
"","","","","","html-keyboard-response","164","621496","0.0-13.0-0.0-1.0-0.0-1.2","null","<span style='color:GreenYellow; font-size: 70px;'>正确! </span>","null","","","","","","","","","","","","","","","","","","","","","","","feedback_test"
"","","","","","psychophysics","165","623498","0.0-13.0-0.0-1.0-0.0-0.3","847","","f","","","","","","","","","","","","","key","f","6.060495440729634","853.3333333333334","529.3333333333334","f","true","img/C_ambi40.png","方形","image_first",""
"","","","","","html-keyboard-response","166","623810","0.0-13.0-0.0-1.0-0.0-1.3","null","<span style='color:GreenYellow; font-size: 70px;'>正确! </span>","null","","","","","","","","","","","","","","","","","","","","","","","feedback_test"
"","","","","","psychophysics","167","626456","0.0-13.0-0.0-1.0-0.0-0.4","1490","","f","","","","","","","","","","","","","key","f","6.060528735632087","853.3333333333334","529.3333333333334","f","true","img/C_ambi40.png","三角","image_first",""
"","","","","","html-keyboard-response","168","626758","0.0-13.0-0.0-1.0-0.0-1.4","null","<span style='color:GreenYellow; font-size: 70px;'>正确! </span>","null","","","","","","","","","","","","","","","","","","","","","","","feedback_test"
"","","","","","psychophysics","169","628501","0.0-13.0-0.0-1.0-0.0-0.5","592","","j","","","","","","","","","","","","","key","j","6.060522648083608","853.3333333333334","529.3333333333334","j","true","img/T_ambi40.png","三角","image_first",""
"","","","","","html-keyboard-response","170","628812","0.0-13.0-0.0-1.0-0.0-1.5","null","<span style='color:GreenYellow; font-size: 70px;'>正确! </span>","null","","","","","","","","","","","","","","","","","","","","","","","feedback_test"
"","","","","","psychophysics","171","630853","0.0-13.0-0.0-1.0-0.0-0.6","887","","f","","","","","","","","","","","","","key","f","6.060485119047544","853.3333333333334","529.3333333333334","f","true","img/S_ambi40.png","三角","image_first",""
"","","","","","html-keyboard-response","172","631157","0.0-13.0-0.0-1.0-0.0-1.6","null","<span style='color:GreenYellow; font-size: 70px;'>正确! </span>","null","","","","","","","","","","","","","","","","","","","","","","","feedback_test"
"","","","","","psychophysics","173","633275","0.0-13.0-0.0-1.0-0.0-0.7","963","","f","","","","","","","","","","","","","key","f","6.113098550724891","853.3333333333334","529.3333333333334","f","true","img/T_ambi40.png","圆形","image_first",""
"","","","","","html-keyboard-response","174","633588","0.0-13.0-0.0-1.0-0.0-1.7","null","<span style='color:GreenYellow; font-size: 70px;'>正确! </span>","null","","","","","","","","","","","","","","","","","","","","","","","feedback_test"
"","","","","","psychophysics","175","635303","0.0-13.0-0.0-1.0-0.0-0.8","562","","j","","","","","","","","","","","","","key","j","6.06037943262412","853.3333333333334","529.3333333333334","j","true","img/T_ambi40.png","三角","image_first",""
"","","","","","html-keyboard-response","176","635616","0.0-13.0-0.0-1.0-0.0-1.8","null","<span style='color:GreenYellow; font-size: 70px;'>正确! </span>","null","","","","","","","","","","","","","","","","","","","","","","","feedback_test"
"","","","","","psychophysics","177","637261","0.0-13.0-0.0-1.0-0.0-0.9","489","","j","","","","","","","","","","","","","key","j","6.060540740740813","853.3333333333334","529.3333333333334","j","true","img/S_ambi40.png","方形","image_first",""
"","","","","","html-keyboard-response","178","637576","0.0-13.0-0.0-1.0-0.0-1.9","null","<span style='color:GreenYellow; font-size: 70px;'>正确! </span>","null","","","","","","","","","","","","","","","","","","","","","","","feedback_test"
"","","","","","psychophysics","179","639682","0.0-13.0-0.0-1.0-0.0-0.10","955","","f","","","","","","","","","","","","","key","f","6.060492795389159","853.3333333333334","529.3333333333334","f","true","img/S_ambi40.png","圆形","image_first",""
"","","","","","html-keyboard-response","180","639989","0.0-13.0-0.0-1.0-0.0-1.10","null","<span style='color:GreenYellow; font-size: 70px;'>正确! </span>","null","","","","","","","","","","","","","","","","","","","","","","","feedback_test"
"","","","","","psychophysics","181","641730","0.0-13.0-0.0-1.0-0.0-0.11","590","","j","","","","","","","","","","","","","key","j","6.060503496503509","853.3333333333334","529.3333333333334","j","true","img/C_ambi40.png","圆形","image_first",""
"","","","","","html-keyboard-response","182","642046","0.0-13.0-0.0-1.0-0.0-1.11","null","<span style='color:GreenYellow; font-size: 70px;'>正确! </span>","null","","","","","","","","","","","","","","","","","","","","","","","feedback_test"
"","","","","","psychophysics","183","643669","0.0-13.0-0.0-1.0-0.0-0.12","466","","f","","","","","","","","","","","","","key","f","6.060375939849834","853.3333333333334","529.3333333333334","f","true","img/T_ambi40.png","圆形","image_first",""
"","","","","","html-keyboard-response","184","643972","0.0-13.0-0.0-1.0-0.0-1.12","null","<span style='color:GreenYellow; font-size: 70px;'>正确! </span>","null","","","","","","","","","","","","","","","","","","","","","","","feedback_test"
"","","","","","psychophysics","185","646002","0.0-13.0-0.0-1.0-0.0-0.13","879","","f","","","","","","","","","","","","","key","f","6.060513513513726","853.3333333333334","529.3333333333334","f","true","img/S_ambi40.png","圆形","image_first",""
"","","","","","html-keyboard-response","186","646304","0.0-13.0-0.0-1.0-0.0-1.13","null","<span style='color:GreenYellow; font-size: 70px;'>正确! </span>","null","","","","","","","","","","","","","","","","","","","","","","","feedback_test"
"","","","","","psychophysics","187","648227","0.0-13.0-0.0-1.0-0.0-0.14","771","","f","","","","","","","","","","","","","key","f","6.060520504732038","853.3333333333334","529.3333333333334","f","true","img/S_ambi40.png","三角","image_first",""
"","","","","","html-keyboard-response","188","648527","0.0-13.0-0.0-1.0-0.0-1.14","null","<span style='color:GreenYellow; font-size: 70px;'>正确! </span>","null","","","","","","","","","","","","","","","","","","","","","","","feedback_test"
"","","","","","psychophysics","189","650381","0.0-13.0-0.0-1.0-0.0-0.15","702","","j","","","","","","","","","","","","","key","j","6.060393442622707","853.3333333333334","529.3333333333334","j","true","img/S_ambi40.png","方形","image_first",""
"","","","","","html-keyboard-response","190","650691","0.0-13.0-0.0-1.0-0.0-1.15","null","<span style='color:GreenYellow; font-size: 70px;'>正确! </span>","null","","","","","","","","","","","","","","","","","","","","","","","feedback_test"
"","","","","","psychophysics","191","652732","0.0-13.0-0.0-1.0-0.0-0.16","888","","j","","","","","","","","","","","","","key","j","6.0604732142854205","853.3333333333334","529.3333333333334","j","true","img/S_ambi40.png","方形","image_first",""
"","","","","","html-keyboard-response","192","653042","0.0-13.0-0.0-1.0-0.0-1.16","null","<span style='color:GreenYellow; font-size: 70px;'>正确! </span>","null","","","","","","","","","","","","","","","","","","","","","","","feedback_test"
"","","","","","psychophysics","193","655100","0.0-13.0-0.0-1.0-0.0-0.17","904","","j","","","","","","","","","","","","","key","j","6.060504424778928","853.3333333333334","529.3333333333334","j","true","img/C_ambi40.png","圆形","image_first",""
"","","","","","html-keyboard-response","194","655414","0.0-13.0-0.0-1.0-0.0-1.17","null","<span style='color:GreenYellow; font-size: 70px;'>正确! </span>","null","","","","","","","","","","","","","","","","","","","","","","","feedback_test"
"","","","","","psychophysics","195","657093","0.0-13.0-0.0-1.0-0.0-0.18","527","","f","","","","","","","","","","","","","key","f","6.060494545454329","853.3333333333334","529.3333333333334","f","true","img/C_ambi40.png","方形","image_first",""
"","","","","","html-keyboard-response","196","657396","0.0-13.0-0.0-1.0-0.0-1.18","null","<span style='color:GreenYellow; font-size: 70px;'>正确! </span>","null","","","","","","","","","","","","","","","","","","","","","","","feedback_test"
"","","","","","psychophysics","197","659086","0.0-13.0-0.0-1.0-0.0-0.19","538","","j","","","","","","","","","","","","","key","j","6.060501805054014","853.3333333333334","529.3333333333334","j","true","img/T_ambi40.png","三角","image_first",""
"","","","","","html-keyboard-response","198","659390","0.0-13.0-0.0-1.0-0.0-1.19","null","<span style='color:GreenYellow; font-size: 70px;'>正确! </span>","null","","","","","","","","","","","","","","","","","","","","","","","feedback_test"
"","","","","","psychophysics","199","661221","0.0-13.0-0.0-1.0-0.0-0.20","680","","j","","","","","","","","","","","","","key","j","6.060534883720996","853.3333333333334","529.3333333333334","j","true","img/C_ambi40.png","圆形","image_first",""
"","","","","","html-keyboard-response","200","661527","0.0-13.0-0.0-1.0-0.0-1.20","null","<span style='color:GreenYellow; font-size: 70px;'>正确! </span>","null","","","","","","","","","","","","","","","","","","","","","","","feedback_test"
"","","","","","psychophysics","201","663269","0.0-13.0-0.0-1.0-0.0-0.21","588","","f","","","","","","","","","","","","","key","f","6.060489510489673","853.3333333333334","529.3333333333334","f","true","img/T_ambi40.png","方形","image_first",""
"","","","","","html-keyboard-response","202","663576","0.0-13.0-0.0-1.0-0.0-1.21","null","<span style='color:GreenYellow; font-size: 70px;'>正确! </span>","null","","","","","","","","","","","","","","","","","","","","","","","feedback_test"
"","","","","","psychophysics","203","665619","0.0-13.0-0.0-1.0-0.0-0.22","889","","f","","","","","","","","","","","","","key","f","6.0553562874249796","853.3333333333334","529.3333333333334","f","true","img/C_ambi40.png","三角","image_first",""
"","","","","","html-keyboard-response","204","665934","0.0-13.0-0.0-1.0-0.0-1.22","null","<span style='color:GreenYellow; font-size: 70px;'>正确! </span>","null","","","","","","","","","","","","","","","","","","","","","","","feedback_test"
"","","","","","psychophysics","205","667631","0.0-13.0-0.0-1.0-0.0-0.23","546","","j","","","","","","","","","","","","","key","j","6.060494623656007","853.3333333333334","529.3333333333334","j","true","img/T_ambi40.png","三角","image_first",""
"","","","","","html-keyboard-response","206","667940","0.0-13.0-0.0-1.0-0.0-1.23","null","<span style='color:GreenYellow; font-size: 70px;'>正确! </span>","null","","","","","","","","","","","","","","","","","","","","","","","feedback_test"
"","","","","","psychophysics","207","669731","0.0-13.0-0.0-1.0-0.0-0.24","638","","f","","","","","","","","","","","","","key","f","6.053221843003553","853.3333333333334","529.3333333333334","f","true","img/S_ambi40.png","圆形","image_first",""
"","","","","","html-keyboard-response","208","670041","0.0-13.0-0.0-1.0-0.0-1.24","null","<span style='color:GreenYellow; font-size: 70px;'>正确! </span>","null","","","","","","","","","","","","","","","","","","","","","","","feedback_test"
"","","","","","psychophysics","209","671831","0.0-13.0-0.0-1.0-0.0-0.25","635","","f","","","","","","","","","","","","","key","f","6.060418367347059","853.3333333333334","529.3333333333334","f","true","img/S_ambi40.png","三角","image_first",""
"","","","","","html-keyboard-response","210","672137","0.0-13.0-0.0-1.0-0.0-1.25","null","<span style='color:GreenYellow; font-size: 70px;'>正确! </span>","null","","","","","","","","","","","","","","","","","","","","","","","feedback_test"
"","","","","","psychophysics","211","673949","0.0-13.0-0.0-1.0-0.0-0.26","661","","j","","","","","","","","","","","","","key","j","6.060489932886144","853.3333333333334","529.3333333333334","j","true","img/T_ambi40.png","三角","image_first",""
"","","","","","html-keyboard-response","212","674254","0.0-13.0-0.0-1.0-0.0-1.26","null","<span style='color:GreenYellow; font-size: 70px;'>正确! </span>","null","","","","","","","","","","","","","","","","","","","","","","","feedback_test"
"","","","","","psychophysics","213","676175","0.0-13.0-0.0-1.0-0.0-0.27","767","","f","","","","","","","","","","","","","key","f","6.060484177215228","853.3333333333334","529.3333333333334","j","false","img/C_ambi40.png","圆形","image_first",""
"","","","","","html-keyboard-response","214","676481","0.0-13.0-0.0-1.0-0.0-1.27","null","<span style='color:red; font-size: 70px;'>错误! </span>","null","","","","","","","","","","","","","","","","","","","","","","","feedback_test"
"","","","","","psychophysics","215","678757","0.0-13.0-0.0-1.0-0.0-0.28","1125","","j","","","","","","","","","","","","","key","j","6.060475935828922","853.3333333333334","529.3333333333334","j","true","img/C_ambi40.png","圆形","image_first",""
"","","","","","html-keyboard-response","216","679068","0.0-13.0-0.0-1.0-0.0-1.28","null","<span style='color:GreenYellow; font-size: 70px;'>正确! </span>","null","","","","","","","","","","","","","","","","","","","","","","","feedback_test"
"","","","","","psychophysics","217","681179","0.0-13.0-0.0-1.0-0.0-0.29","959","","j","","","","","","","","","","","","","key","j","6.052589595375712","853.3333333333334","529.3333333333334","j","true","img/S_ambi40.png","方形","image_first",""
"","","","","","html-keyboard-response","218","681482","0.0-13.0-0.0-1.0-0.0-1.29","null","<span style='color:GreenYellow; font-size: 70px;'>正确! </span>","null","","","","","","","","","","","","","","","","","","","","","","","feedback_test"
"","","","","","psychophysics","219","683208","0.0-13.0-0.0-1.0-0.0-0.30","575","","j","","","","","","","","","","","","","key","j","6.060533568904367","853.3333333333334","529.3333333333334","j","true","img/T_ambi40.png","三角","image_first",""
"","","","","","html-keyboard-response","220","683509","0.0-13.0-0.0-1.0-0.0-1.30","null","<span style='color:GreenYellow; font-size: 70px;'>正确! </span>","null","","","","","","","","","","","","","","","","","","","","","","","feedback_test"
"","","","","","psychophysics","221","685201","0.0-13.0-0.0-1.0-0.0-0.31","538","","f","","","","","","","","","","","","","key","f","6.060338129496316","853.3333333333334","529.3333333333334","f","true","img/T_ambi40.png","方形","image_first",""
"","","","","","html-keyboard-response","222","685513","0.0-13.0-0.0-1.0-0.0-1.31","null","<span style='color:GreenYellow; font-size: 70px;'>正确! </span>","null","","","","","","","","","","","","","","","","","","","","","","","feedback_test"
"","","","","","psychophysics","223","687498","0.0-13.0-0.0-1.0-0.0-0.32","830","","f","","","","","","","","","","","","","key","f","6.060450920245205","853.3333333333334","529.3333333333334","f","true","img/C_ambi40.png","方形","image_first",""
"","","","","","html-keyboard-response","224","687813","0.0-13.0-0.0-1.0-0.0-1.32","null","<span style='color:GreenYellow; font-size: 70px;'>正确! </span>","null","","","","","","","","","","","","","","","","","","","","","","","feedback_test"
"","","","","","psychophysics","225","689759","0.0-13.0-0.0-1.0-0.0-0.33","794","","f","","","","","","","","","","","","","key","f","6.054433962264326","853.3333333333334","529.3333333333334","f","true","img/C_ambi40.png","三角","image_first",""
"","","","","","html-keyboard-response","226","690072","0.0-13.0-0.0-1.0-0.0-1.33","null","<span style='color:GreenYellow; font-size: 70px;'>正确! </span>","null","","","","","","","","","","","","","","","","","","","","","","","feedback_test"
"","","","","","psychophysics","227","691770","0.0-13.0-0.0-1.0-0.0-0.34","547","","f","","","","","","","","","","","","","key","f","6.060498207885151","853.3333333333334","529.3333333333334","f","true","img/T_ambi40.png","圆形","image_first",""
"","","","","","html-keyboard-response","228","692080","0.0-13.0-0.0-1.0-0.0-1.34","null","<span style='color:GreenYellow; font-size: 70px;'>正确! </span>","null","","","","","","","","","","","","","","","","","","","","","","","feedback_test"
"","","","","","psychophysics","229","694174","0.0-13.0-0.0-1.0-0.0-0.35","942","","j","","","","","","","","","","","","","key","j","6.051285714285758","853.3333333333334","529.3333333333334","j","true","img/S_ambi40.png","方形","image_first",""
"","","","","","html-keyboard-response","230","694478","0.0-13.0-0.0-1.0-0.0-1.35","null","<span style='color:GreenYellow; font-size: 70px;'>正确! </span>","null","","","","","","","","","","","","","","","","","","","","","","","feedback_test"
"","","","","","psychophysics","231","696471","0.0-13.0-0.0-1.0-0.0-0.36","839","","j","","","","","","","","","","","","","key","j","6.060496951219847","853.3333333333334","529.3333333333334","j","true","img/S_ambi40.png","方形","image_first",""
"","","","","","html-keyboard-response","232","696785","0.0-13.0-0.0-1.0-0.0-1.36","null","<span style='color:GreenYellow; font-size: 70px;'>正确! </span>","null","","","","","","","","","","","","","","","","","","","","","","","feedback_test"
"","","","","","psychophysics","233","699339","0.0-13.0-0.0-1.0-0.0-0.37","1404","","j","","","","","","","","","","","","","key","j","6.060473809523752","853.3333333333334","529.3333333333334","f","false","img/C_ambi40.png","方形","image_first",""
"","","","","","html-keyboard-response","234","699640","0.0-13.0-0.0-1.0-0.0-1.37","null","<span style='color:red; font-size: 70px;'>错误! </span>","null","","","","","","","","","","","","","","","","","","","","","","","feedback_test"
"","","","","","psychophysics","235","701618","0.0-13.0-0.0-1.0-0.0-0.38","824","","j","","","","","","","","","","","","","key","j","6.06056615384618","853.3333333333334","529.3333333333334","j","true","img/T_ambi40.png","三角","image_first",""
"","","","","","html-keyboard-response","236","701920","0.0-13.0-0.0-1.0-0.0-1.38","null","<span style='color:GreenYellow; font-size: 70px;'>正确! </span>","null","","","","","","","","","","","","","","","","","","","","","","","feedback_test"
"","","","","","psychophysics","237","703665","0.0-13.0-0.0-1.0-0.0-0.39","592","","j","","","","","","","","","","","","","key","j","6.060470383275602","853.3333333333334","529.3333333333334","j","true","img/T_ambi40.png","三角","image_first",""
"","","","","","html-keyboard-response","238","703974","0.0-13.0-0.0-1.0-0.0-1.39","null","<span style='color:GreenYellow; font-size: 70px;'>正确! </span>","null","","","","","","","","","","","","","","","","","","","","","","","feedback_test"
"","","","","","psychophysics","239","705712","0.0-13.0-0.0-1.0-0.0-0.40","586","","f","","","","","","","","","","","","","key","f","6.060527972027926","853.3333333333334","529.3333333333334","f","true","img/T_ambi40.png","圆形","image_first",""
"","","","","","html-keyboard-response","240","706014","0.0-13.0-0.0-1.0-0.0-1.40","null","<span style='color:GreenYellow; font-size: 70px;'>正确! </span>","null","","","","","","","","","","","","","","","","","","","","","","","feedback_test"
"","","","","","psychophysics","241","707669","0.0-13.0-0.0-1.0-0.0-0.41","504","","j","","","","","","","","","","","","","key","j","6.06052941176484","853.3333333333334","529.3333333333334","j","true","img/C_ambi40.png","圆形","image_first",""
"","","","","","html-keyboard-response","242","707975","0.0-13.0-0.0-1.0-0.0-1.41","null","<span style='color:GreenYellow; font-size: 70px;'>正确! </span>","null","","","","","","","","","","","","","","","","","","","","","","","feedback_test"
"","","","","","psychophysics","243","709662","0.0-13.0-0.0-1.0-0.0-0.42","536","","j","","","","","","","","","","","","","key","j","6.060299638989096","853.3333333333334","529.3333333333334","j","true","img/S_ambi40.png","方形","image_first",""
"","","","","","html-keyboard-response","244","709972","0.0-13.0-0.0-1.0-0.0-1.42","null","<span style='color:GreenYellow; font-size: 70px;'>正确! </span>","null","","","","","","","","","","","","","","","","","","","","","","","feedback_test"
"","","","","","psychophysics","245","711763","0.0-13.0-0.0-1.0-0.0-0.43","640","","f","","","","","","","","","","","","","key","f","6.060465986394564","853.3333333333334","529.3333333333334","f","true","img/S_ambi40.png","三角","image_first",""
"","","","","","html-keyboard-response","246","712072","0.0-13.0-0.0-1.0-0.0-1.43","null","<span style='color:GreenYellow; font-size: 70px;'>正确! </span>","null","","","","","","","","","","","","","","","","","","","","","","","feedback_test"
"","","","","","psychophysics","247","713881","0.0-13.0-0.0-1.0-0.0-0.44","656","","f","","","","","","","","","","","","","key","f","6.060563758389099","853.3333333333334","529.3333333333334","f","true","img/S_ambi40.png","圆形","image_first",""
"","","","","","html-keyboard-response","248","714193","0.0-13.0-0.0-1.0-0.0-1.44","null","<span style='color:GreenYellow; font-size: 70px;'>正确! </span>","null","","","","","","","","","","","","","","","","","","","","","","","feedback_test"
"","","","","","psychophysics","249","716374","0.0-13.0-0.0-1.0-0.0-0.45","1027","","f","","","","","","","","","","","","","key","f","6.060501392757907","853.3333333333334","529.3333333333334","f","true","img/T_ambi40.png","方形","image_first",""
"","","","","","html-keyboard-response","250","716682","0.0-13.0-0.0-1.0-0.0-1.45","null","<span style='color:GreenYellow; font-size: 70px;'>正确! </span>","null","","","","","","","","","","","","","","","","","","","","","","","feedback_test"
"","","","","","psychophysics","251","719225","0.0-13.0-0.0-1.0-0.0-0.46","1390","","f","","","","","","","","","","","","","key","f","6.089632211538488","853.3333333333334","529.3333333333334","f","true","img/C_ambi40.png","三角","image_first",""
"","","","","","html-keyboard-response","252","719534","0.0-13.0-0.0-1.0-0.0-1.46","null","<span style='color:GreenYellow; font-size: 70px;'>正确! </span>","null","","","","","","","","","","","","","","","","","","","","","","","feedback_test"
"","","","","","psychophysics","253","721254","0.0-13.0-0.0-1.0-0.0-0.47","569","","j","","","","","","","","","","","","","key","j","6.071139285714266","853.3333333333334","529.3333333333334","j","true","img/C_ambi40.png","圆形","image_first",""
"","","","","","html-keyboard-response","254","721558","0.0-13.0-0.0-1.0-0.0-1.47","null","<span style='color:GreenYellow; font-size: 70px;'>正确! </span>","null","","","","","","","","","","","","","","","","","","","","","","","feedback_test"
"","","","","","psychophysics","255","723193","0.0-13.0-0.0-1.0-0.0-0.48","483","","f","","","","","","","","","","","","","key","f","6.047494382022406","853.3333333333334","529.3333333333334","f","true","img/T_ambi40.png","圆形","image_first",""
"","","","","","html-keyboard-response","256","723505","0.0-13.0-0.0-1.0-0.0-1.48","null","<span style='color:GreenYellow; font-size: 70px;'>正确! </span>","null","","","","","","","","","","","","","","","","","","","","","","","feedback_test"
"","","","","","psychophysics","257","725169","0.0-13.0-0.0-1.0-0.0-0.49","513","","j","","","","","","","","","","","","","key","j","6.060567765567885","853.3333333333334","529.3333333333334","j","true","img/T_ambi40.png","三角","image_first",""
"","","","","","html-keyboard-response","258","725476","0.0-13.0-0.0-1.0-0.0-1.49","null","<span style='color:GreenYellow; font-size: 70px;'>正确! </span>","null","","","","","","","","","","","","","","","","","","","","","","","feedback_test"
"","","","","","psychophysics","259","727751","0.0-13.0-0.0-1.0-0.0-0.50","1119","","j","","","","","","","","","","","","","key","j","6.060425133689962","853.3333333333334","529.3333333333334","j","true","img/S_ambi40.png","方形","image_first",""
"","","","","","html-keyboard-response","260","728062","0.0-13.0-0.0-1.0-0.0-1.50","null","<span style='color:GreenYellow; font-size: 70px;'>正确! </span>","null","","","","","","","","","","","","","","","","","","","","","","","feedback_test"
"","","","","","psychophysics","261","729709","0.0-13.0-0.0-1.0-0.0-0.51","496","","j","","","","","","","","","","","","","key","j","6.060481481481326","853.3333333333334","529.3333333333334","j","true","img/T_ambi40.png","三角","image_first",""
"","","","","","html-keyboard-response","262","730011","0.0-13.0-0.0-1.0-0.0-1.51","null","<span style='color:GreenYellow; font-size: 70px;'>正确! </span>","null","","","","","","","","","","","","","","","","","","","","","","","feedback_test"
"","","","","","psychophysics","263","731738","0.0-13.0-0.0-1.0-0.0-0.52","575","","f","","","","","","","","","","","","","key","f","6.060489436619731","853.3333333333334","529.3333333333334","f","true","img/C_ambi40.png","方形","image_first",""
"","","","","","html-keyboard-response","264","732051","0.0-13.0-0.0-1.0-0.0-1.52","null","<span style='color:GreenYellow; font-size: 70px;'>正确! </span>","null","","","","","","","","","","","","","","","","","","","","","","","feedback_test"
"","","","","","psychophysics","265","734481","0.0-13.0-0.0-1.0-0.0-0.53","1279","","f","","","","","","","","","","","","","key","f","6.060527500000026","853.3333333333334","529.3333333333334","f","true","img/S_ambi40.png","圆形","image_first",""
"","","","","","html-keyboard-response","266","734787","0.0-13.0-0.0-1.0-0.0-1.53","null","<span style='color:GreenYellow; font-size: 70px;'>正确! </span>","null","","","","","","","","","","","","","","","","","","","","","","","feedback_test"
"","","","","","psychophysics","267","737440","0.0-13.0-0.0-1.0-0.0-0.54","null","","null","","","","","","","","","","","","","key","null","6.060553775743573","853.3333333333334","529.3333333333334","f","false","img/T_ambi40.png","方形","image_first",""
"","","","","","html-keyboard-response","268","737751","0.0-13.0-0.0-1.0-0.0-1.54","null","<span class='add_' style='color:yellow; font-size: 70px;'> 太慢! </span>","null","","","","","","","","","","","","","","","","","","","","","","","feedback_test"
"","","","","","psychophysics","269","739450","0.0-13.0-0.0-1.0-0.0-0.55","547","","j","","","","","","","","","","","","","key","j","6.060446428571595","853.3333333333334","529.3333333333334","j","true","img/C_ambi40.png","圆形","image_first",""
"","","","","","html-keyboard-response","270","739760","0.0-13.0-0.0-1.0-0.0-1.55","null","<span style='color:GreenYellow; font-size: 70px;'>正确! </span>","null","","","","","","","","","","","","","","","","","","","","","","","feedback_test"
"","","","","","psychophysics","271","741711","0.0-13.0-0.0-1.0-0.0-0.56","801","","f","","","","","","","","","","","","","key","f","6.060532710280682","853.3333333333334","529.3333333333334","f","true","img/C_ambi40.png","三角","image_first",""
"","","","","","html-keyboard-response","272","742022","0.0-13.0-0.0-1.0-0.0-1.56","null","<span style='color:GreenYellow; font-size: 70px;'>正确! </span>","null","","","","","","","","","","","","","","","","","","","","","","","feedback_test"
"","","","","","psychophysics","273","743936","0.0-13.0-0.0-1.0-0.0-0.57","759","","f","","","","","","","","","","","","","key","f","6.060434920634956","853.3333333333334","529.3333333333334","f","true","img/S_ambi40.png","三角","image_first",""
"","","","","","html-keyboard-response","274","744240","0.0-13.0-0.0-1.0-0.0-1.57","null","<span style='color:GreenYellow; font-size: 70px;'>正确! </span>","null","","","","","","","","","","","","","","","","","","","","","","","feedback_test"
"","","","","","psychophysics","275","746072","0.0-13.0-0.0-1.0-0.0-0.58","677","","j","","","","","","","","","","","","","key","j","6.060561461794187","853.3333333333334","529.3333333333334","j","true","img/S_ambi40.png","方形","image_first",""
"","","","","","html-keyboard-response","276","746377","0.0-13.0-0.0-1.0-0.0-1.58","null","<span style='color:GreenYellow; font-size: 70px;'>正确! </span>","null","","","","","","","","","","","","","","","","","","","","","","","feedback_test"
"","","","","","psychophysics","277","748065","0.0-13.0-0.0-1.0-0.0-0.59","537","","j","","","","","","","","","","","","","key","j","6.06049097472943","853.3333333333334","529.3333333333334","j","true","img/C_ambi40.png","圆形","image_first",""
"","","","","","html-keyboard-response","278","748369","0.0-13.0-0.0-1.0-0.0-1.59","null","<span style='color:GreenYellow; font-size: 70px;'>正确! </span>","null","","","","","","","","","","","","","","","","","","","","","","","feedback_test"
"","","","","","html-keyboard-response","279","753309","0.0-13.0-0.0-1.0-1.0","4939","<style>.context{color:white; font-size: 35px; line-height:40px}</style>                            <div><p class='context'>您正确回答了95% 的试次。</p><p class='context'>您的平均反应时为736毫秒。</p><p class='context'>请按任意键进入休息</p></div>"," ","","","","","","","","","","","","","","","","","","","","","","",""
"","","","","","html-button-response","280","762808","0.0-13.0-0.0-1.0-2.0","9497","
                    <p>您当前还剩余3组实验</p>
                    <p>现在是休息时间，当您结束休息后，您可以点击 结束休息 按钮 继续</p>
                    <p>建议休息时间还剩余<span id=""iii"">60</span>秒</p>","0","","","","","","","","","","","","","","","","","","","","","","",""
"","","","","","psychophysics","281","764572","0.0-13.0-0.0-1.0-0.1-0.60","611","","j","","","","","","","","","","","","","key","j","6.232333333333475","853.3333333333334","529.3333333333334","j","true","img/C_ambi40.png","圆形","image_first",""
"","","","","","html-keyboard-response","282","764880","0.0-13.0-0.0-1.0-0.1-1.60","null","<span style='color:GreenYellow; font-size: 70px;'>正确! </span>","null","","","","","","","","","","","","","","","","","","","","","","","feedback_test"
"","","","","","psychophysics","283","766726","0.0-13.0-0.0-1.0-0.1-0.61","696","","f","","","","","","","","","","","","","key","f","6.060564356435724","853.3333333333334","529.3333333333334","f","true","img/S_ambi40.png","圆形","image_first",""
"","","","","","html-keyboard-response","284","767035","0.0-13.0-0.0-1.0-0.1-1.61","null","<span style='color:GreenYellow; font-size: 70px;'>正确! </span>","null","","","","","","","","","","","","","","","","","","","","","","","feedback_test"
"","","","","","psychophysics","285","768719","0.0-13.0-0.0-1.0-0.1-0.62","533","","j","","","","","","","","","","","","","key","j","6.082398550724526","853.3333333333334","529.3333333333334","j","true","img/T_ambi40.png","三角","image_first",""
"","","","","","html-keyboard-response","286","769028","0.0-13.0-0.0-1.0-0.1-1.62","null","<span style='color:GreenYellow; font-size: 70px;'>正确! </span>","null","","","","","","","","","","","","","","","","","","","","","","","feedback_test"
"","","","","","psychophysics","287","770712","0.0-13.0-0.0-1.0-0.1-0.63","531","","f","","","","","","","","","","","","","key","f","6.060483754512901","853.3333333333334","529.3333333333334","f","true","img/T_ambi40.png","方形","image_first",""
"","","","","","html-keyboard-response","288","771019","0.0-13.0-0.0-1.0-0.1-1.63","null","<span style='color:GreenYellow; font-size: 70px;'>正确! </span>","null","","","","","","","","","","","","","","","","","","","","","","","feedback_test"
"","","","","","psychophysics","289","772688","0.0-13.0-0.0-1.0-0.1-0.64","518","","j","","","","","","","","","","","","","key","j","6.060456204379358","853.3333333333334","529.3333333333334","j","true","img/C_ambi40.png","圆形","image_first",""
"","","","","","html-keyboard-response","290","772994","0.0-13.0-0.0-1.0-0.1-1.64","null","<span style='color:GreenYellow; font-size: 70px;'>正确! </span>","null","","","","","","","","","","","","","","","","","","","","","","","feedback_test"
"","","","","","psychophysics","291","774752","0.0-13.0-0.0-1.0-0.1-0.65","606","","f","","","","","","","","","","","","","key","f","6.048576388888857","853.3333333333334","529.3333333333334","f","true","img/T_ambi40.png","圆形","image_first",""
"","","","","","html-keyboard-response","292","775065","0.0-13.0-0.0-1.0-0.1-1.65","null","<span style='color:GreenYellow; font-size: 70px;'>正确! </span>","null","","","","","","","","","","","","","","","","","","","","","","","feedback_test"
"","","","","","psychophysics","293","776710","0.0-13.0-0.0-1.0-0.1-0.66","493","","f","","","","","","","","","","","","","key","f","6.060380073800783","853.3333333333334","529.3333333333334","f","true","img/C_ambi40.png","方形","image_first",""
"","","","","","html-keyboard-response","294","777013","0.0-13.0-0.0-1.0-0.1-1.66","null","<span style='color:GreenYellow; font-size: 70px;'>正确! </span>","null","","","","","","","","","","","","","","","","","","","","","","","feedback_test"
"","","","","","psychophysics","295","778703","0.0-13.0-0.0-1.0-0.1-0.67","539","","j","","","","","","","","","","","","","key","j","6.060487364620956","853.3333333333334","529.3333333333334","j","true","img/S_ambi40.png","方形","image_first",""
"","","","","","html-keyboard-response","296","779019","0.0-13.0-0.0-1.0-0.1-1.67","null","<span style='color:GreenYellow; font-size: 70px;'>正确! </span>","null","","","","","","","","","","","","","","","","","","","","","","","feedback_test"
"","","","","","psychophysics","297","780785","0.0-13.0-0.0-1.0-0.1-0.68","615","","f","","","","","","","","","","","","","key","f","6.060517241379471","853.3333333333334","529.3333333333334","f","true","img/C_ambi40.png","三角","image_first",""
"","","","","","html-keyboard-response","298","781100","0.0-13.0-0.0-1.0-0.1-1.68","null","<span style='color:GreenYellow; font-size: 70px;'>正确! </span>","null","","","","","","","","","","","","","","","","","","","","","","","feedback_test"
"","","","","","psychophysics","299","782886","0.0-13.0-0.0-1.0-0.1-0.69","631","","j","","","","","","","","","","","","","key","j","6.060530612244806","853.3333333333334","529.3333333333334","j","true","img/T_ambi40.png","三角","image_first",""
"","","","","","html-keyboard-response","300","783201","0.0-13.0-0.0-1.0-0.1-1.69","null","<span style='color:GreenYellow; font-size: 70px;'>正确! </span>","null","","","","","","","","","","","","","","","","","","","","","","","feedback_test"
"","","","","","psychophysics","301","784915","0.0-13.0-0.0-1.0-0.1-0.70","563","","f","","","","","","","","","","","","","key","f","6.060533807829215","853.3333333333334","529.3333333333334","f","true","img/S_ambi40.png","三角","image_first",""
"","","","","","html-keyboard-response","302","785224","0.0-13.0-0.0-1.0-0.1-1.70","null","<span style='color:GreenYellow; font-size: 70px;'>正确! </span>","null","","","","","","","","","","","","","","","","","","","","","","","feedback_test"
"","","","","","psychophysics","303","786926","0.0-13.0-0.0-1.0-0.1-0.71","550","","j","","","","","","","","","","","","","key","j","6.051564748201724","853.3333333333334","529.3333333333334","j","true","img/S_ambi40.png","方形","image_first",""
"","","","","","html-keyboard-response","304","787230","0.0-13.0-0.0-1.0-0.1-1.71","null","<span style='color:GreenYellow; font-size: 70px;'>正确! </span>","null","","","","","","","","","","","","","","","","","","","","","","","feedback_test"
"","","","","","psychophysics","305","788990","0.0-13.0-0.0-1.0-0.1-0.72","608","","f","","","","","","","","","","","","","key","f","6.060519031141836","853.3333333333334","529.3333333333334","f","true","img/S_ambi40.png","三角","image_first",""
"","","","","","html-keyboard-response","306","789294","0.0-13.0-0.0-1.0-0.1-1.72","null","<span style='color:GreenYellow; font-size: 70px;'>正确! </span>","null","","","","","","","","","","","","","","","","","","","","","","","feedback_test"
"","","","","","psychophysics","307","790912","0.0-13.0-0.0-1.0-0.1-0.73","464","","f","","","","","","","","","","","","","key","f","6.060421052631743","853.3333333333334","529.3333333333334","f","true","img/C_ambi40.png","三角","image_first",""
"","","","","","html-keyboard-response","308","791225","0.0-13.0-0.0-1.0-0.1-1.73","null","<span style='color:GreenYellow; font-size: 70px;'>正确! </span>","null","","","","","","","","","","","","","","","","","","","","","","","feedback_test"
"","","","","","psychophysics","309","792941","0.0-13.0-0.0-1.0-0.1-0.74","565","","j","","","","","","","","","","","","","key","j","6.060528368794389","853.3333333333334","529.3333333333334","j","true","img/C_ambi40.png","圆形","image_first",""
"","","","","","html-keyboard-response","310","793248","0.0-13.0-0.0-1.0-0.1-1.74","null","<span style='color:GreenYellow; font-size: 70px;'>正确! </span>","null","","","","","","","","","","","","","","","","","","","","","","","feedback_test"
"","","","","","psychophysics","311","794952","0.0-13.0-0.0-1.0-0.1-0.75","552","","f","","","","","","","","","","","","","key","f","6.052211469533773","853.3333333333334","529.3333333333334","f","true","img/T_ambi40.png","方形","image_first",""
"","","","","","html-keyboard-response","312","795263","0.0-13.0-0.0-1.0-0.1-1.75","null","<span style='color:GreenYellow; font-size: 70px;'>正确! </span>","null","","","","","","","","","","","","","","","","","","","","","","","feedback_test"
"","","","","","psychophysics","313","797213","0.0-13.0-0.0-1.0-0.1-0.76","795","","f","","","","","","","","","","","","","key","f","6.060557632398795","853.3333333333334","529.3333333333334","f","true","img/S_ambi40.png","圆形","image_first",""
"","","","","","html-keyboard-response","314","797526","0.0-13.0-0.0-1.0-0.1-1.76","null","<span style='color:GreenYellow; font-size: 70px;'>正确! </span>","null","","","","","","","","","","","","","","","","","","","","","","","feedback_test"
"","","","","","psychophysics","315","799153","0.0-13.0-0.0-1.0-0.1-0.77","474","","j","","","","","","","","","","","","","key","j","6.060485074626727","853.3333333333334","529.3333333333334","j","true","img/T_ambi40.png","三角","image_first",""
"","","","","","html-keyboard-response","316","799459","0.0-13.0-0.0-1.0-0.1-1.77","null","<span style='color:GreenYellow; font-size: 70px;'>正确! </span>","null","","","","","","","","","","","","","","","","","","","","","","","feedback_test"
"","","","","","psychophysics","317","801199","0.0-13.0-0.0-1.0-0.1-0.78","587","","j","","","","","","","","","","","","","key","j","6.060527972027926","853.3333333333334","529.3333333333334","j","true","img/S_ambi40.png","方形","image_first",""
"","","","","","html-keyboard-response","318","801501","0.0-13.0-0.0-1.0-0.1-1.78","null","<span style='color:GreenYellow; font-size: 70px;'>正确! </span>","null","","","","","","","","","","","","","","","","","","","","","","","feedback_test"
"","","","","","psychophysics","319","803157","0.0-13.0-0.0-1.0-0.1-0.79","502","","f","","","","","","","","","","","","","key","f","6.060448529411908","853.3333333333334","529.3333333333334","f","true","img/T_ambi40.png","圆形","image_first",""
"","","","","","html-keyboard-response","320","803462","0.0-13.0-0.0-1.0-0.1-1.79","null","<span style='color:GreenYellow; font-size: 70px;'>正确! </span>","null","","","","","","","","","","","","","","","","","","","","","","","feedback_test"
"","","","","","psychophysics","321","805025","0.0-13.0-0.0-1.0-0.1-0.80","413","","j","","","","","","","","","","","","","key","j","6.060579766537034","853.3333333333334","529.3333333333334","j","true","img/C_ambi40.png","圆形","image_first",""
"","","","","","html-keyboard-response","322","805332","0.0-13.0-0.0-1.0-0.1-1.80","null","<span style='color:GreenYellow; font-size: 70px;'>正确! </span>","null","","","","","","","","","","","","","","","","","","","","","","","feedback_test"
"","","","","","psychophysics","323","807107","0.0-13.0-0.0-1.0-0.1-0.81","622","","f","","","","","","","","","","","","","key","f","6.051206896551644","853.3333333333334","529.3333333333334","f","true","img/C_ambi40.png","方形","image_first",""
"","","","","","html-keyboard-response","324","807417","0.0-13.0-0.0-1.0-0.1-1.81","null","<span style='color:GreenYellow; font-size: 70px;'>正确! </span>","null","","","","","","","","","","","","","","","","","","","","","","","feedback_test"
"","","","","","psychophysics","325","809011","0.0-13.0-0.0-1.0-0.1-0.82","442","","j","","","","","","","","","","","","","key","j","6.046773076922937","853.3333333333334","529.3333333333334","j","true","img/T_ambi40.png","三角","image_first",""
"","","","","","html-keyboard-response","326","809320","0.0-13.0-0.0-1.0-0.1-1.82","null","<span style='color:GreenYellow; font-size: 70px;'>正确! </span>","null","","","","","","","","","","","","","","","","","","","","","","","feedback_test"
"","","","","","psychophysics","327","810915","0.0-13.0-0.0-1.0-0.1-0.83","442","","j","","","","","","","","","","","","","key","j","6.0497692307694635","853.3333333333334","529.3333333333334","j","true","img/S_ambi40.png","方形","image_first",""
"","","","","","html-keyboard-response","328","811222","0.0-13.0-0.0-1.0-0.1-1.83","null","<span style='color:GreenYellow; font-size: 70px;'>正确! </span>","null","","","","","","","","","","","","","","","","","","","","","","","feedback_test"
"","","","","","psychophysics","329","812855","0.0-13.0-0.0-1.0-0.1-0.84","479","","j","","","","","","","","","","","","","key","j","6.060546468401529","853.3333333333334","529.3333333333334","j","true","img/C_ambi40.png","圆形","image_first",""
"","","","","","html-keyboard-response","330","813167","0.0-13.0-0.0-1.0-0.1-1.84","null","<span style='color:GreenYellow; font-size: 70px;'>正确! </span>","null","","","","","","","","","","","","","","","","","","","","","","","feedback_test"
"","","","","","psychophysics","331","814562","0.0-13.0-0.0-1.0-0.1-0.85","244","","f","","","","","","","","","","","","","key","f","6.060528384279622","853.3333333333334","529.3333333333334","j","false","img/T_ambi40.png","三角","image_first",""
"","","","","","html-keyboard-response","332","814873","0.0-13.0-0.0-1.0-0.1-1.85","null","<span style='color:red; font-size: 70px;'>错误! </span>","null","","","","","","","","","","","","","","","","","","","","","","","feedback_test"
"","","","","","psychophysics","333","816895","0.0-13.0-0.0-1.0-0.1-0.86","871","","j","","","","","","","","","","","","","key","j","6.060503012048016","853.3333333333334","529.3333333333334","j","true","img/S_ambi40.png","方形","image_first",""
"","","","","","html-keyboard-response","334","817199","0.0-13.0-0.0-1.0-0.1-1.86","null","<span style='color:GreenYellow; font-size: 70px;'>正确! </span>","null","","","","","","","","","","","","","","","","","","","","","","","feedback_test"
"","","","","","psychophysics","335","818906","0.0-13.0-0.0-1.0-0.1-0.87","556","","f","","","","","","","","","","","","","key","f","6.049949820788484","853.3333333333334","529.3333333333334","f","true","img/C_ambi40.png","三角","image_first",""
"","","","","","html-keyboard-response","336","819219","0.0-13.0-0.0-1.0-0.1-1.87","null","<span style='color:GreenYellow; font-size: 70px;'>正确! </span>","null","","","","","","","","","","","","","","","","","","","","","","","feedback_test"
"","","","","","psychophysics","337","820970","0.0-13.0-0.0-1.0-0.1-0.88","601","","j","","","","","","","","","","","","","key","j","6.060527777777882","853.3333333333334","529.3333333333334","j","true","img/T_ambi40.png","三角","image_first",""
"","","","","","html-keyboard-response","338","821278","0.0-13.0-0.0-1.0-0.1-1.88","null","<span style='color:GreenYellow; font-size: 70px;'>正确! </span>","null","","","","","","","","","","","","","","","","","","","","","","","feedback_test"
"","","","","","psychophysics","339","823106","0.0-13.0-0.0-1.0-0.1-0.89","676","","f","","","","","","","","","","","","","key","f","6.05068561872919","853.3333333333334","529.3333333333334","f","true","img/C_ambi40.png","方形","image_first",""
"","","","","","html-keyboard-response","340","823415","0.0-13.0-0.0-1.0-0.1-1.89","null","<span style='color:GreenYellow; font-size: 70px;'>正确! </span>","null","","","","","","","","","","","","","","","","","","","","","","","feedback_test"
"","","","","","psychophysics","341","825207","0.0-13.0-0.0-1.0-0.1-0.90","639","","f","","","","","","","","","","","","","key","f","6.0604644067798565","853.3333333333334","529.3333333333334","f","true","img/S_ambi40.png","三角","image_first",""
"","","","","","html-keyboard-response","342","825516","0.0-13.0-0.0-1.0-0.1-1.90","null","<span style='color:GreenYellow; font-size: 70px;'>正确! </span>","null","","","","","","","","","","","","","","","","","","","","","","","feedback_test"
"","","","","","psychophysics","343","827164","0.0-13.0-0.0-1.0-0.1-0.91","493","","j","","","","","","","","","","","","","key","j","6.0605018450186945","853.3333333333334","529.3333333333334","f","false","img/T_ambi40.png","圆形","image_first",""
"","","","","","html-keyboard-response","344","827480","0.0-13.0-0.0-1.0-0.1-1.91","null","<span style='color:red; font-size: 70px;'>错误! </span>","null","","","","","","","","","","","","","","","","","","","","","","","feedback_test"
"","","","","","psychophysics","345","829050","0.0-13.0-0.0-1.0-0.1-0.92","416","","j","","","","","","","","","","","","","key","j","6.060519379844741","853.3333333333334","529.3333333333334","j","true","img/C_ambi40.png","圆形","image_first",""
"","","","","","html-keyboard-response","346","829365","0.0-13.0-0.0-1.0-0.1-1.92","null","<span style='color:GreenYellow; font-size: 70px;'>正确! </span>","null","","","","","","","","","","","","","","","","","","","","","","","feedback_test"
"","","","","","psychophysics","347","831186","0.0-13.0-0.0-1.0-0.1-0.93","670","","j","","","","","","","","","","","","","key","j","6.060598662207183","853.3333333333334","529.3333333333334","j","true","img/S_ambi40.png","方形","image_first",""
"","","","","","html-keyboard-response","348","831498","0.0-13.0-0.0-1.0-0.1-1.93","null","<span style='color:GreenYellow; font-size: 70px;'>正确! </span>","null","","","","","","","","","","","","","","","","","","","","","","","feedback_test"
"","","","","","psychophysics","349","833197","0.0-13.0-0.0-1.0-0.1-0.94","543","","f","","","","","","","","","","","","","key","f","6.060458781362067","853.3333333333334","529.3333333333334","f","true","img/T_ambi40.png","方形","image_first",""
"","","","","","html-keyboard-response","350","833512","0.0-13.0-0.0-1.0-0.1-1.94","null","<span style='color:GreenYellow; font-size: 70px;'>正确! </span>","null","","","","","","","","","","","","","","","","","","","","","","","feedback_test"
"","","","","","psychophysics","351","835494","0.0-13.0-0.0-1.0-0.1-0.95","830","","f","","","","","","","","","","","","","key","f","6.060533742331457","853.3333333333334","529.3333333333334","f","true","img/S_ambi40.png","圆形","image_first",""
"","","","","","html-keyboard-response","352","835800","0.0-13.0-0.0-1.0-0.1-1.95","null","<span style='color:GreenYellow; font-size: 70px;'>正确! </span>","null","","","","","","","","","","","","","","","","","","","","","","","feedback_test"
"","","","","","psychophysics","353","837505","0.0-13.0-0.0-1.0-0.1-0.96","554","","f","","","","","","","","","","","","","key","f","6.060489285714409","853.3333333333334","529.3333333333334","f","true","img/T_ambi40.png","圆形","image_first",""
"","","","","","html-keyboard-response","354","837809","0.0-13.0-0.0-1.0-0.1-1.96","null","<span style='color:GreenYellow; font-size: 70px;'>正确! </span>","null","","","","","","","","","","","","","","","","","","","","","","","feedback_test"
"","","","","","psychophysics","355","839516","0.0-13.0-0.0-1.0-0.1-0.97","555","","j","","","","","","","","","","","","","key","j","6.060508896797246","853.3333333333334","529.3333333333334","j","true","img/C_ambi40.png","圆形","image_first",""
"","","","","","html-keyboard-response","356","839818","0.0-13.0-0.0-1.0-0.1-1.97","null","<span style='color:GreenYellow; font-size: 70px;'>正确! </span>","null","","","","","","","","","","","","","","","","","","","","","","","feedback_test"
"","","","","","psychophysics","357","841456","0.0-13.0-0.0-1.0-0.1-0.98","487","","j","","","","","","","","","","","","","key","j","6.060460966543059","853.3333333333334","529.3333333333334","j","true","img/S_ambi40.png","方形","image_first",""
"","","","","","html-keyboard-response","358","841771","0.0-13.0-0.0-1.0-0.1-1.98","null","<span style='color:GreenYellow; font-size: 70px;'>正确! </span>","null","","","","","","","","","","","","","","","","","","","","","","","feedback_test"
"","","","","","psychophysics","359","843537","0.0-13.0-0.0-1.0-0.1-0.99","611","","j","","","","","","","","","","","","","key","j","6.060448275862165","853.3333333333334","529.3333333333334","j","true","img/S_ambi40.png","方形","image_first",""
"","","","","","html-keyboard-response","360","843853","0.0-13.0-0.0-1.0-0.1-1.99","null","<span style='color:GreenYellow; font-size: 70px;'>正确! </span>","null","","","","","","","","","","","","","","","","","","","","","","","feedback_test"
"","","","","","psychophysics","361","845727","0.0-13.0-0.0-1.0-0.1-0.100","723","","f","","","","","","","","","","","","","key","f","6.052136807817759","853.3333333333334","529.3333333333334","f","true","img/S_ambi40.png","三角","image_first",""
"","","","","","html-keyboard-response","362","846043","0.0-13.0-0.0-1.0-0.1-1.100","null","<span style='color:GreenYellow; font-size: 70px;'>正确! </span>","null","","","","","","","","","","","","","","","","","","","","","","","feedback_test"
"","","","","","psychophysics","363","847934","0.0-13.0-0.0-1.0-0.1-0.101","738","","f","","","","","","","","","","","","","key","f","6.060414790996751","853.3333333333334","529.3333333333334","f","true","img/C_ambi40.png","方形","image_first",""
"","","","","","html-keyboard-response","364","848240","0.0-13.0-0.0-1.0-0.1-1.101","null","<span style='color:GreenYellow; font-size: 70px;'>正确! </span>","null","","","","","","","","","","","","","","","","","","","","","","","feedback_test"
"","","","","","psychophysics","365","850249","0.0-13.0-0.0-1.0-0.1-0.102","857","","j","","","","","","","","","","","","","key","j","6.051446808510924","853.3333333333334","529.3333333333334","j","true","img/T_ambi40.png","三角","image_first",""
"","","","","","html-keyboard-response","366","850562","0.0-13.0-0.0-1.0-0.1-1.102","null","<span style='color:GreenYellow; font-size: 70px;'>正确! </span>","null","","","","","","","","","","","","","","","","","","","","","","","feedback_test"
"","","","","","psychophysics","367","852385","0.0-13.0-0.0-1.0-0.1-0.103","672","","f","","","","","","","","","","","","","key","f","6.060518394648736","853.3333333333334","529.3333333333334","f","true","img/T_ambi40.png","方形","image_first",""
"","","","","","html-keyboard-response","368","852694","0.0-13.0-0.0-1.0-0.1-1.103","null","<span style='color:GreenYellow; font-size: 70px;'>正确! </span>","null","","","","","","","","","","","","","","","","","","","","","","","feedback_test"
"","","","","","psychophysics","369","854414","0.0-13.0-0.0-1.0-0.1-0.104","567","","f","","","","","","","","","","","","","key","f","6.052060498220903","853.3333333333334","529.3333333333334","f","true","img/S_ambi40.png","圆形","image_first",""
"","","","","","html-keyboard-response","370","854723","0.0-13.0-0.0-1.0-0.1-1.104","null","<span style='color:GreenYellow; font-size: 70px;'>正确! </span>","null","","","","","","","","","","","","","","","","","","","","","","","feedback_test"
"","","","","","psychophysics","371","856407","0.0-13.0-0.0-1.0-0.1-0.105","531","","j","","","","","","","","","","","","","key","j","6.060476534295952","853.3333333333334","529.3333333333334","j","true","img/T_ambi40.png","三角","image_first",""
"","","","","","html-keyboard-response","372","856716","0.0-13.0-0.0-1.0-0.1-1.105","null","<span style='color:GreenYellow; font-size: 70px;'>正确! </span>","null","","","","","","","","","","","","","","","","","","","","","","","feedback_test"
"","","","","","psychophysics","373","858543","0.0-13.0-0.0-1.0-0.1-0.106","672","","f","","","","","","","","","","","","","key","f","6.060533333333442","853.3333333333334","529.3333333333334","f","true","img/C_ambi40.png","三角","image_first",""
"","","","","","html-keyboard-response","374","858852","0.0-13.0-0.0-1.0-0.1-1.106","null","<span style='color:GreenYellow; font-size: 70px;'>正确! </span>","null","","","","","","","","","","","","","","","","","","","","","","","feedback_test"
"","","","","","psychophysics","375","860697","0.0-13.0-0.0-1.0-0.1-0.107","693","","j","","","","","","","","","","","","","key","j","6.0526324503311875","853.3333333333334","529.3333333333334","j","true","img/C_ambi40.png","圆形","image_first",""
"","","","","","html-keyboard-response","376","860998","0.0-13.0-0.0-1.0-0.1-1.107","null","<span style='color:GreenYellow; font-size: 70px;'>正确! </span>","null","","","","","","","","","","","","","","","","","","","","","","","feedback_test"
"","","","","","psychophysics","377","862726","0.0-13.0-0.0-1.0-0.1-0.108","577","","f","","","","","","","","","","","","","key","f","6.060552816901563","853.3333333333334","529.3333333333334","f","true","img/S_ambi40.png","三角","image_first",""
"","","","","","html-keyboard-response","378","863039","0.0-13.0-0.0-1.0-0.1-1.108","null","<span style='color:GreenYellow; font-size: 70px;'>正确! </span>","null","","","","","","","","","","","","","","","","","","","","","","","feedback_test"
"","","","","","psychophysics","379","864791","0.0-13.0-0.0-1.0-0.1-0.109","600","","j","","","","","","","","","","","","","key","j","6.060576388888876","853.3333333333334","529.3333333333334","j","true","img/S_ambi40.png","方形","image_first",""
"","","","","","html-keyboard-response","380","865097","0.0-13.0-0.0-1.0-0.1-1.109","null","<span style='color:GreenYellow; font-size: 70px;'>正确! </span>","null","","","","","","","","","","","","","","","","","","","","","","","feedback_test"
"","","","","","psychophysics","381","866730","0.0-13.0-0.0-1.0-0.1-0.110","478","","j","","","","","","","","","","","","","key","j","6.0604925373132135","853.3333333333334","529.3333333333334","j","true","img/T_ambi40.png","三角","image_first",""
"","","","","","html-keyboard-response","382","867041","0.0-13.0-0.0-1.0-0.1-1.110","null","<span style='color:GreenYellow; font-size: 70px;'>正确! </span>","null","","","","","","","","","","","","","","","","","","","","","","","feedback_test"
"","","","","","psychophysics","383","868723","0.0-13.0-0.0-1.0-0.1-0.111","531","","f","","","","","","","","","","","","","key","f","6.060499999999909","853.3333333333334","529.3333333333334","f","true","img/T_ambi40.png","圆形","image_first",""
"","","","","","html-keyboard-response","384","869037","0.0-13.0-0.0-1.0-0.1-1.111","null","<span style='color:GreenYellow; font-size: 70px;'>正确! </span>","null","","","","","","","","","","","","","","","","","","","","","","","feedback_test"
"","","","","","psychophysics","385","870592","0.0-13.0-0.0-1.0-0.1-0.112","400","","j","","","","","","","","","","","","","key","j","6.060519531249611","853.3333333333334","529.3333333333334","j","true","img/C_ambi40.png","圆形","image_first",""
"","","","","","html-keyboard-response","386","870905","0.0-13.0-0.0-1.0-0.1-1.112","null","<span style='color:GreenYellow; font-size: 70px;'>正确! </span>","null","","","","","","","","","","","","","","","","","","","","","","","feedback_test"
"","","","","","psychophysics","387","872799","0.0-13.0-0.0-1.0-0.1-0.113","742","","j","","","","","","","","","","","","","key","j","6.060458333333372","853.3333333333334","529.3333333333334","j","true","img/T_ambi40.png","三角","image_first",""
"","","","","","html-keyboard-response","388","873115","0.0-13.0-0.0-1.0-0.1-1.113","null","<span style='color:GreenYellow; font-size: 70px;'>正确! </span>","null","","","","","","","","","","","","","","","","","","","","","","","feedback_test"
"","","","","","psychophysics","389","875239","0.0-13.0-0.0-1.0-0.1-0.114","971","","j","","","","","","","","","","","","","key","j","6.0605071633240275","853.3333333333334","529.3333333333334","j","true","img/S_ambi40.png","方形","image_first",""
"","","","","","html-keyboard-response","390","875554","0.0-13.0-0.0-1.0-0.1-1.114","null","<span style='color:GreenYellow; font-size: 70px;'>正确! </span>","null","","","","","","","","","","","","","","","","","","","","","","","feedback_test"
"","","","","","psychophysics","391","877178","0.0-13.0-0.0-1.0-0.1-0.115","472","","f","","","","","","","","","","","","","key","f","6.050328301886571","853.3333333333334","529.3333333333334","f","true","img/S_ambi40.png","圆形","image_first",""
"","","","","","html-keyboard-response","392","877486","0.0-13.0-0.0-1.0-0.1-1.115","null","<span style='color:GreenYellow; font-size: 70px;'>正确! </span>","null","","","","","","","","","","","","","","","","","","","","","","","feedback_test"
"","","","","","psychophysics","393","879171","0.0-13.0-0.0-1.0-0.1-0.116","531","","j","","","","","","","","","","","","","key","j","6.060436823104831","853.3333333333334","529.3333333333334","j","true","img/C_ambi40.png","圆形","image_first",""
"","","","","","html-keyboard-response","394","879475","0.0-13.0-0.0-1.0-0.1-1.116","null","<span style='color:GreenYellow; font-size: 70px;'>正确! </span>","null","","","","","","","","","","","","","","","","","","","","","","","feedback_test"
"","","","","","psychophysics","395","881093","0.0-13.0-0.0-1.0-0.1-0.117","465","","f","","","","","","","","","","","","","key","f","6.0605037593982125","853.3333333333334","529.3333333333334","f","true","img/C_ambi40.png","方形","image_first",""
"","","","","","html-keyboard-response","396","881405","0.0-13.0-0.0-1.0-0.1-1.117","null","<span style='color:GreenYellow; font-size: 70px;'>正确! </span>","null","","","","","","","","","","","","","","","","","","","","","","","feedback_test"
"","","","","","psychophysics","397","883408","0.0-13.0-0.0-1.0-0.1-0.118","853","","f","","","","","","","","","","","","","key","f","6.060519756838795","853.3333333333334","529.3333333333334","f","true","img/C_ambi40.png","三角","image_first",""
"","","","","","html-keyboard-response","398","883713","0.0-13.0-0.0-1.0-0.1-1.118","null","<span style='color:GreenYellow; font-size: 70px;'>正确! </span>","null","","","","","","","","","","","","","","","","","","","","","","","feedback_test"
"","","","","","psychophysics","399","885365","0.0-13.0-0.0-1.0-0.1-0.119","501","","f","","","","","","","","","","","","","key","f","6.060490774907897","853.3333333333334","529.3333333333334","f","true","img/T_ambi40.png","方形","image_first",""
"","","","","","html-keyboard-response","400","885677","0.0-13.0-0.0-1.0-0.1-1.119","null","<span style='color:GreenYellow; font-size: 70px;'>正确! </span>","null","","","","","","","","","","","","","","","","","","","","","","","feedback_test"
"","","","","","html-keyboard-response","401","890752","0.0-13.0-0.0-1.0-1.1","5074","<style>.context{color:white; font-size: 35px; line-height:40px}</style>                            <div><p class='context'>您正确回答了97% 的试次。</p><p class='context'>您的平均反应时为593毫秒。</p><p class='context'>请按任意键进入休息</p></div>"," ","","","","","","","","","","","","","","","","","","","","","","",""
"","","","","","html-button-response","402","929713","0.0-13.0-0.0-1.0-2.1","38959","
                    <p>您当前还剩余2组实验</p>
                    <p>现在是休息时间，当您结束休息后，您可以点击 结束休息 按钮 继续</p>
                    <p>建议休息时间还剩余<span id=""iii"">60</span>秒</p>","0","","","","","","","","","","","","","","","","","","","","","","",""
"","","","","","psychophysics","403","931396","0.0-13.0-0.0-1.0-0.2-0.120","532","","f","","","","","","","","","","","","","key","f","6.104678832116472","853.3333333333334","529.3333333333334","f","true","img/T_ambi40.png","方形","image_first",""
"","","","","","html-keyboard-response","404","931702","0.0-13.0-0.0-1.0-0.2-1.120","null","<span style='color:GreenYellow; font-size: 70px;'>正确! </span>","null","","","","","","","","","","","","","","","","","","","","","","","feedback_test"
"","","","","","psychophysics","405","933443","0.0-13.0-0.0-1.0-0.2-0.121","587","","j","","","","","","","","","","","","","key","j","6.060458041957931","853.3333333333334","529.3333333333334","j","true","img/S_ambi40.png","方形","image_first",""
"","","","","","html-keyboard-response","406","933758","0.0-13.0-0.0-1.0-0.2-1.121","null","<span style='color:GreenYellow; font-size: 70px;'>正确! </span>","null","","","","","","","","","","","","","","","","","","","","","","","feedback_test"
"","","","","","psychophysics","407","935418","0.0-13.0-0.0-1.0-0.2-0.122","506","","f","","","","","","","","","","","","","key","f","6.060410256410144","853.3333333333334","529.3333333333334","f","true","img/S_ambi40.png","圆形","image_first",""
"","","","","","html-keyboard-response","408","935725","0.0-13.0-0.0-1.0-0.2-1.122","null","<span style='color:GreenYellow; font-size: 70px;'>正确! </span>","null","","","","","","","","","","","","","","","","","","","","","","","feedback_test"
