"success","timeout","failed_images","failed_audio","failed_video","trial_type","trial_index","time_elapsed","internal_node_id","rt","stimulus","response","value","item_width_mm","item_height_mm","item_width_px","px2mm","view_dist_mm","item_width_deg","px2deg","scale_factor","win_width_deg","win_height_deg","view_history","response_type","key_press","avg_frame_time","center_x","center_y","correct_response","correct","Image","word","condition","screen_id"
"true","false","[]","[]","[]","preload","0","8","0.0-0.0","","","","","","","","","","","","","","","","","","","","","","","","","",""
"","","","","","html-keyboard-response","1","2256","0.0-1.0","2248","
   <p>您好，欢迎参加本次实验。</p>
   <p>为充分保障您的权利，请确保您已经知晓并同意《参与实验同意书》以及《数据公开知情同意书》。</p>
   <p>如果您未见过上述内容，请咨询实验员。</p>
   <p>如果您选择继续实验，则表示您已经清楚两份知情同意书的内容并同意。</p>
   <p> <div style = ""color: green""><按任意键至下页></div> </p>
   ","enter","","","","","","","","","","","","","","","","","","","","","","",""
"","","","","","html-keyboard-response","2","3003","0.0-2.0","743","
   <p>本实验首先需要您填写一些基本个人信息。</p>
   <p> <div style = ""color: green""><按任意键至下页></div></p>
   ","enter","","","","","","","","","","","","","","","","","","","","","","",""
"","","","","","call-function","3","3007","0.0-3.0-0.0","","","","","","","","","","","","","","","","","","","","","","","","","",""
"","","","","","survey-html-form","4","6332","0.0-3.0-1.0","3317","","{""Q0"":""9""}","","","","","","","","","","","","","","","","","","","","","","",""
"","","","","","html-button-response","5","8647","0.0-3.0-2.0","2301","<p style = 'color : white'>您的性别</p>","0","","","","","","","","","","","","","","","","","","","","","","",""
"","","","","","survey-html-form","6","11422","0.0-3.0-3.0","2773","","{""Q0"":""2003""}","","","","","","","","","","","","","","","","","","","","","","",""
"","","","","","survey-html-form","7","13478","0.0-3.0-4.0","2055","","{""Q0"":""4""}","","","","","","","","","","","","","","","","","","","","","","",""
"","","","","","virtual-chinrest","8","136223","0.0-4.0","122736","","","","85.6","53.98","522.9891527208714","6.111333919434902","467.59","10.459783054417427","50","0.6807024546262502","25.6","12.18","","","","","","","","","","","",""
"true","","","","","fullscreen","9","139791","0.0-5.0","","","","","","","","","","","","","","","","","","","","","","","","","",""
"","","","","","instructions","10","276948","0.0-6.0","137156","","","","","","","","","","","","","","[{""page_index"":0,""viewing_time"":15710},{""page_index"":1,""viewing_time"":71411},{""page_index"":2,""viewing_time"":41966},{""page_index"":3,""viewing_time"":8069}]","","","","","","","","","","",""
"","","","","","psychophysics","11","279647","0.0-7.0-0.0-0.0","null","","null","","","","","","","","","","","","","key","null","16.86543949044593","640","356","j","false","img/T_ambi40.png","三角","prac_image_first",""
"","","","","","html-keyboard-response","12","279952","0.0-7.0-0.0-1.0","null","<span class='add_' style='color:yellow; font-size: 70px;'> 太慢! </span>","null","","","","","","","","","","","","","","","","","","","","","","","feedback_test"
"","","","","","psychophysics","13","282606","0.0-7.0-0.0-0.1","null","","null","","","","","","","","","","","","","key","null","16.653987421383626","640","356","f","false","img/C_ambi40.png","方形","prac_image_first",""
"","","","","","html-keyboard-response","14","282925","0.0-7.0-0.0-1.1","null","<span class='add_' style='color:yellow; font-size: 70px;'> 太慢! </span>","null","","","","","","","","","","","","","","","","","","","","","","","feedback_test"
"","","","","","psychophysics","15","285587","0.0-7.0-0.0-0.2","null","","null","","","","","","","","","","","","","key","null","16.652810126582462","640","356","f","false","img/S_ambi40.png","圆形","prac_image_first",""
"","","","","","html-keyboard-response","16","285899","0.0-7.0-0.0-1.2","null","<span class='add_' style='color:yellow; font-size: 70px;'> 太慢! </span>","null","","","","","","","","","","","","","","","","","","","","","","","feedback_test"
"","","","","","psychophysics","17","288554","0.0-7.0-0.0-0.3","null","","null","","","","","","","","","","","","","key","null","16.57205063291152","640","356","f","false","img/T_ambi40.png","方形","prac_image_first",""
"","","","","","html-keyboard-response","18","288864","0.0-7.0-0.0-1.3","null","<span class='add_' style='color:yellow; font-size: 70px;'> 太慢! </span>","null","","","","","","","","","","","","","","","","","","","","","","","feedback_test"
"","","","","","psychophysics","19","291517","0.0-7.0-0.0-0.4","null","","null","","","","","","","","","","","","","key","null","16.623082802547913","640","356","f","false","img/C_ambi40.png","三角","prac_image_first",""
"","","","","","html-keyboard-response","20","291824","0.0-7.0-0.0-1.4","null","<span class='add_' style='color:yellow; font-size: 70px;'> 太慢! </span>","null","","","","","","","","","","","","","","","","","","","","","","","feedback_test"
"","","","","","psychophysics","21","294480","0.0-7.0-0.0-0.5","null","","null","","","","","","","","","","","","","key","null","16.652754716981136","640","356","f","false","img/S_ambi40.png","三角","prac_image_first",""
"","","","","","html-keyboard-response","22","294786","0.0-7.0-0.0-1.5","null","<span class='add_' style='color:yellow; font-size: 70px;'> 太慢! </span>","null","","","","","","","","","","","","","","","","","","","","","","","feedback_test"
"","","","","","psychophysics","23","297442","0.0-7.0-0.0-0.6","null","","null","","","","","","","","","","","","","key","null","16.653860759493657","640","356","j","false","img/S_ambi40.png","方形","prac_image_first",""
"","","","","","html-keyboard-response","24","297750","0.0-7.0-0.0-1.6","null","<span class='add_' style='color:yellow; font-size: 70px;'> 太慢! </span>","null","","","","","","","","","","","","","","","","","","","","","","","feedback_test"
"","","","","","psychophysics","25","300411","0.0-7.0-0.0-0.7","null","","null","","","","","","","","","","","","","key","null","16.655006289308226","640","356","j","false","img/C_ambi40.png","圆形","prac_image_first",""
"","","","","","html-keyboard-response","26","300730","0.0-7.0-0.0-1.7","null","<span class='add_' style='color:yellow; font-size: 70px;'> 太慢! </span>","null","","","","","","","","","","","","","","","","","","","","","","","feedback_test"
"","","","","","psychophysics","27","303382","0.0-7.0-0.0-0.8","null","","null","","","","","","","","","","","","","key","null","16.653664556961903","640","356","j","false","img/S_ambi40.png","方形","prac_image_first",""
"","","","","","html-keyboard-response","28","303699","0.0-7.0-0.0-1.8","null","<span class='add_' style='color:yellow; font-size: 70px;'> 太慢! </span>","null","","","","","","","","","","","","","","","","","","","","","","","feedback_test"
"","","","","","psychophysics","29","306366","0.0-7.0-0.0-0.9","null","","null","","","","","","","","","","","","","key","null","16.653075471697974","640","356","j","false","img/C_ambi40.png","圆形","prac_image_first",""
"","","","","","html-keyboard-response","30","306678","0.0-7.0-0.0-1.9","null","<span class='add_' style='color:yellow; font-size: 70px;'> 太慢! </span>","null","","","","","","","","","","","","","","","","","","","","","","","feedback_test"
"","","","","","psychophysics","31","308675","0.0-7.0-0.0-0.10","842","","j","","","","","","","","","","","","","key","j","16.653201680672513","640","356","j","true","img/T_ambi40.png","三角","prac_image_first",""
"","","","","","html-keyboard-response","32","308991","0.0-7.0-0.0-1.10","null","<span style='color:GreenYellow; font-size: 70px;'>正确! </span>","null","","","","","","","","","","","","","","","","","","","","","","","feedback_test"
"","","","","","psychophysics","33","311247","0.0-7.0-0.0-0.11","1105","","f","","","","","","","","","","","","","key","f","16.653343283582164","640","356","f","true","img/T_ambi40.png","圆形","prac_image_first",""
"","","","","","html-keyboard-response","34","311561","0.0-7.0-0.0-1.11","null","<span style='color:GreenYellow; font-size: 70px;'>正确! </span>","null","","","","","","","","","","","","","","","","","","","","","","","feedback_test"
"","","","","","psychophysics","35","313823","0.0-7.0-0.0-0.12","1104","","f","","","","","","","","","","","","","key","f","16.652977777777792","640","356","f","true","img/S_ambi40.png","圆形","prac_image_first",""
"","","","","","html-keyboard-response","36","314144","0.0-7.0-0.0-1.12","null","<span style='color:GreenYellow; font-size: 70px;'>正确! </span>","null","","","","","","","","","","","","","","","","","","","","","","","feedback_test"
"","","","","","psychophysics","37","316289","0.0-7.0-0.0-0.13","989","","f","","","","","","","","","","","","","key","f","16.551850393700953","640","356","f","true","img/T_ambi40.png","方形","prac_image_first",""
"","","","","","html-keyboard-response","38","316603","0.0-7.0-0.0-1.13","null","<span style='color:GreenYellow; font-size: 70px;'>正确! </span>","null","","","","","","","","","","","","","","","","","","","","","","","feedback_test"
"","","","","","psychophysics","39","318639","0.0-7.0-0.0-0.14","879","","j","","","","","","","","","","","","","key","j","16.651983471074495","640","356","j","true","img/T_ambi40.png","三角","prac_image_first",""
"","","","","","html-keyboard-response","40","318954","0.0-7.0-0.0-1.14","null","<span style='color:GreenYellow; font-size: 70px;'>正确! </span>","null","","","","","","","","","","","","","","","","","","","","","","","feedback_test"
"","","","","","psychophysics","41","320777","0.0-7.0-0.0-0.15","665","","j","","","","","","","","","","","","","key","j","16.653324074074153","640","356","j","true","img/T_ambi40.png","三角","prac_image_first",""
"","","","","","html-keyboard-response","42","321099","0.0-7.0-0.0-1.15","null","<span style='color:GreenYellow; font-size: 70px;'>正确! </span>","null","","","","","","","","","","","","","","","","","","","","","","","feedback_test"
"","","","","","psychophysics","43","322940","0.0-7.0-0.0-0.16","683","","j","","","","","","","","","","","","","key","j","16.65222727272723","640","356","f","false","img/C_ambi40.png","三角","prac_image_first",""
"","","","","","html-keyboard-response","44","323249","0.0-7.0-0.0-1.16","null","<span style='color:red; font-size: 70px;'>错误! </span>","null","","","","","","","","","","","","","","","","","","","","","","","feedback_test"
"","","","","","psychophysics","45","325666","0.0-7.0-0.0-0.17","1262","","j","","","","","","","","","","","","","key","j","16.653576388888823","640","356","j","true","img/C_ambi40.png","圆形","prac_image_first",""
"","","","","","html-keyboard-response","46","325981","0.0-7.0-0.0-1.17","null","<span style='color:GreenYellow; font-size: 70px;'>正确! </span>","null","","","","","","","","","","","","","","","","","","","","","","","feedback_test"
"","","","","","psychophysics","47","327861","0.0-7.0-0.0-0.18","727","","j","","","","","","","","","","","","","key","j","16.653794642856933","640","356","j","true","img/S_ambi40.png","方形","prac_image_first",""
"","","","","","html-keyboard-response","48","328175","0.0-7.0-0.0-1.18","null","<span style='color:GreenYellow; font-size: 70px;'>正确! </span>","null","","","","","","","","","","","","","","","","","","","","","","","feedback_test"
"","","","","","psychophysics","49","330074","0.0-7.0-0.0-0.19","745","","j","","","","","","","","","","","","","key","j","16.652805309734447","640","356","j","true","img/S_ambi40.png","方形","prac_image_first",""
"","","","","","html-keyboard-response","50","330380","0.0-7.0-0.0-1.19","null","<span style='color:GreenYellow; font-size: 70px;'>正确! </span>","null","","","","","","","","","","","","","","","","","","","","","","","feedback_test"
"","","","","","psychophysics","51","332389","0.0-7.0-0.0-0.20","852","","f","","","","","","","","","","","","","key","f","16.65402521008377","640","356","f","true","img/C_ambi40.png","方形","prac_image_first",""
"","","","","","html-keyboard-response","52","332711","0.0-7.0-0.0-1.20","null","<span style='color:GreenYellow; font-size: 70px;'>正确! </span>","null","","","","","","","","","","","","","","","","","","","","","","","feedback_test"
"","","","","","psychophysics","53","334690","0.0-7.0-0.0-0.21","820","","f","","","","","","","","","","","","","key","f","16.653279661016946","640","356","f","true","img/S_ambi40.png","三角","prac_image_first",""
"","","","","","html-keyboard-response","54","334995","0.0-7.0-0.0-1.21","null","<span style='color:GreenYellow; font-size: 70px;'>正确! </span>","null","","","","","","","","","","","","","","","","","","","","","","","feedback_test"
"","","","","","psychophysics","55","337410","0.0-7.0-0.0-0.22","1264","","f","","","","","","","","","","","","","key","f","16.65558041958057","640","356","f","true","img/T_ambi40.png","圆形","prac_image_first",""
"","","","","","html-keyboard-response","56","337723","0.0-7.0-0.0-1.22","null","<span style='color:GreenYellow; font-size: 70px;'>正确! </span>","null","","","","","","","","","","","","","","","","","","","","","","","feedback_test"
"","","","","","psychophysics","57","339709","0.0-7.0-0.0-0.23","833","","j","","","","","","","","","","","","","key","j","16.654118644067687","640","356","j","true","img/C_ambi40.png","圆形","prac_image_first",""
"","","","","","html-keyboard-response","58","340029","0.0-7.0-0.0-1.23","null","<span style='color:GreenYellow; font-size: 70px;'>正确! </span>","null","","","","","","","","","","","","","","","","","","","","","","","feedback_test"
"","","","","","html-keyboard-response","59","349609","0.0-7.0-1.0-0.0","9578","<style>.context{color:white; font-size: 35px; line-height:40px}</style>                            <div><p class='context'>您正确回答了54% 的试次。</p><p class='context'>您的平均反应时为930毫秒。</p>","j","","","","","","","","","","","","","","","","","","","","","","",""
"","","","","","instructions","60","369192","0.0-7.0-1.0-1.0","19580","","","","","","","","","","","","","","[{""page_index"":0,""viewing_time"":9427},{""page_index"":1,""viewing_time"":3649},{""page_index"":2,""viewing_time"":1727},{""page_index"":1,""viewing_time"":3544},{""page_index"":2,""viewing_time"":1232}]","","","","","","","","","","",""
"","","","","","psychophysics","61","371141","0.0-7.1-0.1-0.24","792","","j","","","","","","","","","","","","","key","j","16.6532068965517","640","356","j","true","img/S_ambi40.png","方形","prac_image_first",""
"","","","","","html-keyboard-response","62","371457","0.0-7.1-0.1-1.24","null","<span style='color:GreenYellow; font-size: 70px;'>正确! </span>","null","","","","","","","","","","","","","","","","","","","","","","","feedback_test"
"","","","","","psychophysics","63","373355","0.0-7.1-0.1-0.25","742","","j","","","","","","","","","","","","","key","j","16.654654867256852","640","356","j","true","img/T_ambi40.png","三角","prac_image_first",""
"","","","","","html-keyboard-response","64","373673","0.0-7.1-0.1-1.25","null","<span style='color:GreenYellow; font-size: 70px;'>正确! </span>","null","","","","","","","","","","","","","","","","","","","","","","","feedback_test"
"","","","","","psychophysics","65","375420","0.0-7.1-0.1-0.26","595","","j","","","","","","","","","","","","","key","j","16.650173076922677","640","356","j","true","img/S_ambi40.png","方形","prac_image_first",""
"","","","","","html-keyboard-response","66","375734","0.0-7.1-0.1-1.26","null","<span style='color:GreenYellow; font-size: 70px;'>正确! </span>","null","","","","","","","","","","","","","","","","","","","","","","","feedback_test"
"","","","","","psychophysics","67","377786","0.0-7.1-0.1-0.27","898","","f","","","","","","","","","","","","","key","f","16.650754098360594","640","356","f","true","img/T_ambi40.png","圆形","prac_image_first",""
"","","","","","html-keyboard-response","68","378091","0.0-7.1-0.1-1.27","null","<span style='color:GreenYellow; font-size: 70px;'>正确! </span>","null","","","","","","","","","","","","","","","","","","","","","","","feedback_test"
"","","","","","psychophysics","69","380268","0.0-7.1-0.1-0.28","1020","","f","","","","","","","","","","","","","key","f","16.543573643410735","640","356","f","true","img/C_ambi40.png","三角","prac_image_first",""
"","","","","","html-keyboard-response","70","380583","0.0-7.1-0.1-1.28","null","<span style='color:GreenYellow; font-size: 70px;'>正确! </span>","null","","","","","","","","","","","","","","","","","","","","","","","feedback_test"
"","","","","","psychophysics","71","382574","0.0-7.1-0.1-0.29","837","","f","","","","","","","","","","","","","key","f","16.653483050847743","640","356","f","true","img/T_ambi40.png","方形","prac_image_first",""
"","","","","","html-keyboard-response","72","382897","0.0-7.1-0.1-1.29","null","<span style='color:GreenYellow; font-size: 70px;'>正确! </span>","null","","","","","","","","","","","","","","","","","","","","","","","feedback_test"
"","","","","","psychophysics","73","384976","0.0-7.1-0.1-0.30","921","","f","","","","","","","","","","","","","key","f","16.653926829268446","640","356","f","true","img/C_ambi40.png","方形","prac_image_first",""
"","","","","","html-keyboard-response","74","385294","0.0-7.1-0.1-1.30","null","<span style='color:GreenYellow; font-size: 70px;'>正确! </span>","null","","","","","","","","","","","","","","","","","","","","","","","feedback_test"
"","","","","","psychophysics","75","387276","0.0-7.1-0.1-0.31","824","","j","","","","","","","","","","","","","key","j","16.65356779661004","640","356","j","true","img/C_ambi40.png","圆形","prac_image_first",""
"","","","","","html-keyboard-response","76","387589","0.0-7.1-0.1-1.31","null","<span style='color:GreenYellow; font-size: 70px;'>正确! </span>","null","","","","","","","","","","","","","","","","","","","","","","","feedback_test"
"","","","","","psychophysics","77","389615","0.0-7.1-0.1-0.32","871","","f","","","","","","","","","","","","","key","f","16.653216666666655","640","356","f","true","img/S_ambi40.png","圆形","prac_image_first",""
"","","","","","html-keyboard-response","78","389926","0.0-7.1-0.1-1.32","null","<span style='color:GreenYellow; font-size: 70px;'>正确! </span>","null","","","","","","","","","","","","","","","","","","","","","","","feedback_test"
"","","","","","psychophysics","79","391916","0.0-7.1-0.1-0.33","836","","j","","","","","","","","","","","","","key","j","16.649974576271063","640","356","j","true","img/C_ambi40.png","圆形","prac_image_first",""
"","","","","","html-keyboard-response","80","392225","0.0-7.1-0.1-1.33","null","<span style='color:GreenYellow; font-size: 70px;'>正确! </span>","null","","","","","","","","","","","","","","","","","","","","","","","feedback_test"
"","","","","","psychophysics","81","394278","0.0-7.1-0.1-0.34","870","","j","","","","","","","","","","","","","key","j","16.653811475409473","640","356","j","true","img/T_ambi40.png","三角","prac_image_first",""
"","","","","","html-keyboard-response","82","394593","0.0-7.1-0.1-1.34","null","<span style='color:GreenYellow; font-size: 70px;'>正确! </span>","null","","","","","","","","","","","","","","","","","","","","","","","feedback_test"
"","","","","","psychophysics","83","396479","0.0-7.1-0.1-0.35","733","","f","","","","","","","","","","","","","key","f","17.431401869159185","640","356","f","true","img/S_ambi40.png","三角","prac_image_first",""
"","","","","","html-keyboard-response","84","396801","0.0-7.1-0.1-1.35","null","<span style='color:GreenYellow; font-size: 70px;'>正确! </span>","null","","","","","","","","","","","","","","","","","","","","","","","feedback_test"
"","","","","","psychophysics","85","398951","0.0-7.1-0.1-0.36","992","","j","","","","","","","","","","","","","key","j","16.653273437499593","640","356","j","true","img/C_ambi40.png","圆形","prac_image_first",""
"","","","","","html-keyboard-response","86","399258","0.0-7.1-0.1-1.36","null","<span style='color:GreenYellow; font-size: 70px;'>正确! </span>","null","","","","","","","","","","","","","","","","","","","","","","","feedback_test"
"","","","","","psychophysics","87","401018","0.0-7.1-0.1-0.37","601","","j","","","","","","","","","","","","","key","j","16.653403846154106","640","356","j","true","img/C_ambi40.png","圆形","prac_image_first",""
"","","","","","html-keyboard-response","88","401328","0.0-7.1-0.1-1.37","null","<span style='color:GreenYellow; font-size: 70px;'>正确! </span>","null","","","","","","","","","","","","","","","","","","","","","","","feedback_test"
"","","","","","psychophysics","89","403080","0.0-7.1-0.1-0.38","599","","j","","","","","","","","","","","","","key","j","16.652153846153503","640","356","j","true","img/T_ambi40.png","三角","prac_image_first",""
"","","","","","html-keyboard-response","90","403386","0.0-7.1-0.1-1.38","null","<span style='color:GreenYellow; font-size: 70px;'>正确! </span>","null","","","","","","","","","","","","","","","","","","","","","","","feedback_test"
"","","","","","psychophysics","91","405310","0.0-7.1-0.1-0.39","770","","f","","","","","","","","","","","","","key","f","16.653245614035352","640","356","f","true","img/S_ambi40.png","圆形","prac_image_first",""
"","","","","","html-keyboard-response","92","405624","0.0-7.1-0.1-1.39","null","<span style='color:GreenYellow; font-size: 70px;'>正确! </span>","null","","","","","","","","","","","","","","","","","","","","","","","feedback_test"
"","","","","","psychophysics","93","407380","0.0-7.1-0.1-0.40","603","","j","","","","","","","","","","","","","key","j","16.655480769230614","640","356","j","true","img/S_ambi40.png","方形","prac_image_first",""
"","","","","","html-keyboard-response","94","407694","0.0-7.1-0.1-1.40","null","<span style='color:GreenYellow; font-size: 70px;'>正确! </span>","null","","","","","","","","","","","","","","","","","","","","","","","feedback_test"
"","","","","","psychophysics","95","409608","0.0-7.1-0.1-0.41","759","","j","","","","","","","","","","","","","key","j","16.65258771929841","640","356","j","true","img/S_ambi40.png","方形","prac_image_first",""
"","","","","","html-keyboard-response","96","409913","0.0-7.1-0.1-1.41","null","<span style='color:GreenYellow; font-size: 70px;'>正确! </span>","null","","","","","","","","","","","","","","","","","","","","","","","feedback_test"
"","","","","","psychophysics","97","411645","0.0-7.1-0.1-0.42","579","","j","","","","","","","","","","","","","key","j","16.653242718446457","640","356","j","true","img/T_ambi40.png","三角","prac_image_first",""
"","","","","","html-keyboard-response","98","411958","0.0-7.1-0.1-1.42","null","<span style='color:GreenYellow; font-size: 70px;'>正确! </span>","null","","","","","","","","","","","","","","","","","","","","","","","feedback_test"
"","","","","","psychophysics","99","413828","0.0-7.1-0.1-0.43","708","","f","","","","","","","","","","","","","key","f","16.649675675675688","640","356","f","true","img/C_ambi40.png","方形","prac_image_first",""
"","","","","","html-keyboard-response","100","414139","0.0-7.1-0.1-1.43","null","<span style='color:GreenYellow; font-size: 70px;'>正确! </span>","null","","","","","","","","","","","","","","","","","","","","","","","feedback_test"
"","","","","","psychophysics","101","416255","0.0-7.1-0.1-0.44","960","","f","","","","","","","","","","","","","key","f","16.649317460317565","640","356","f","true","img/T_ambi40.png","方形","prac_image_first",""
"","","","","","html-keyboard-response","102","416572","0.0-7.1-0.1-1.44","null","<span style='color:GreenYellow; font-size: 70px;'>正确! </span>","null","","","","","","","","","","","","","","","","","","","","","","","feedback_test"
"","","","","","psychophysics","103","418624","0.0-7.1-0.1-0.45","897","","f","","","","","","","","","","","","","key","f","16.65017213114751","640","356","f","true","img/C_ambi40.png","三角","prac_image_first",""
"","","","","","html-keyboard-response","104","418936","0.0-7.1-0.1-1.45","null","<span style='color:GreenYellow; font-size: 70px;'>正确! </span>","null","","","","","","","","","","","","","","","","","","","","","","","feedback_test"
"","","","","","psychophysics","105","420850","0.0-7.1-0.1-0.46","761","","f","","","","","","","","","","","","","key","f","16.653385964912573","640","356","f","true","img/T_ambi40.png","圆形","prac_image_first",""
"","","","","","html-keyboard-response","106","421165","0.0-7.1-0.1-1.46","null","<span style='color:GreenYellow; font-size: 70px;'>正确! </span>","null","","","","","","","","","","","","","","","","","","","","","","","feedback_test"
"","","","","","psychophysics","107","423094","0.0-7.1-0.1-0.47","773","","f","","","","","","","","","","","","","key","f","16.649269565217622","640","356","f","true","img/S_ambi40.png","三角","prac_image_first",""
"","","","","","html-keyboard-response","108","423404","0.0-7.1-0.1-1.47","null","<span style='color:GreenYellow; font-size: 70px;'>正确! </span>","null","","","","","","","","","","","","","","","","","","","","","","","feedback_test"
"","","","","","html-keyboard-response","109","430581","0.0-8.0","7175","<style>.context{color:white; font-size: 35px; line-height:40px}</style>                            <div><p class='context'>您正确回答了100% 的试次。</p><p class='context'>您的平均反应时为789毫秒。</p><p class='context'>恭喜您完成这一阶段的练习。按任意键进入<span style='color: yellow;'>先文字后图形条件</span>的练习。</p></div>","j","","","","","","","","","","","","","","","","","","","","","","",""
"","","","","","psychophysics","110","432790","0.0-9.0-0.0-0.0","1042","","j","","","","","","","","","","","","","key","j","16.596984732824108","640","356","j","true","img/T_ambi40.png","三角","prac_word_first",""
"","","","","","html-keyboard-response","111","433109","0.0-9.0-0.0-1.0","null","<span style='color:GreenYellow; font-size: 70px;'>正确! </span>","null","","","","","","","","","","","","","","","","","","","","","","","feedback_test"
"","","","","","psychophysics","112","435122","0.0-9.0-0.0-0.1","859","","f","","","","","","","","","","","","","key","f","16.65340833333321","640","356","f","true","img/S_ambi40.png","圆形","prac_word_first",""
"","","","","","html-keyboard-response","113","435435","0.0-9.0-0.0-1.1","null","<span style='color:GreenYellow; font-size: 70px;'>正确! </span>","null","","","","","","","","","","","","","","","","","","","","","","","feedback_test"
"","","","","","psychophysics","114","437653","0.0-9.0-0.0-0.2","1059","","j","","","","","","","","","","","","","key","j","16.65124242424226","640","356","j","true","img/C_ambi40.png","圆形","prac_word_first",""
"","","","","","html-keyboard-response","115","437975","0.0-9.0-0.0-1.2","null","<span style='color:GreenYellow; font-size: 70px;'>正确! </span>","null","","","","","","","","","","","","","","","","","","","","","","","feedback_test"
"","","","","","psychophysics","116","440073","0.0-9.0-0.0-0.3","946","","f","","","","","","","","","","","","","key","f","16.652717741935763","640","356","f","true","img/C_ambi40.png","方形","prac_word_first",""
"","","","","","html-keyboard-response","117","440389","0.0-9.0-0.0-1.3","null","<span style='color:GreenYellow; font-size: 70px;'>正确! </span>","null","","","","","","","","","","","","","","","","","","","","","","","feedback_test"
"","","","","","psychophysics","118","442253","0.0-9.0-0.0-0.4","688","","f","","","","","","","","","","","","","key","f","16.65316216216259","640","356","f","true","img/T_ambi40.png","圆形","prac_word_first",""
"","","","","","html-keyboard-response","119","442578","0.0-9.0-0.0-1.4","null","<span style='color:GreenYellow; font-size: 70px;'>正确! </span>","null","","","","","","","","","","","","","","","","","","","","","","","feedback_test"
"","","","","","psychophysics","120","444479","0.0-9.0-0.0-0.5","742","","j","","","","","","","","","","","","","key","j","16.656374999999702","640","356","j","true","img/S_ambi40.png","方形","prac_word_first",""
"","","","","","html-keyboard-response","121","444793","0.0-9.0-0.0-1.5","null","<span style='color:GreenYellow; font-size: 70px;'>正确! </span>","null","","","","","","","","","","","","","","","","","","","","","","","feedback_test"
"","","","","","psychophysics","122","446727","0.0-9.0-0.0-0.6","774","","f","","","","","","","","","","","","","key","f","16.653165217391315","640","356","f","true","img/S_ambi40.png","三角","prac_word_first",""
"","","","","","html-keyboard-response","123","447039","0.0-9.0-0.0-1.6","null","<span style='color:GreenYellow; font-size: 70px;'>正确! </span>","null","","","","","","","","","","","","","","","","","","","","","","","feedback_test"
"","","","","","psychophysics","124","449277","0.0-9.0-0.0-0.7","1085","","j","","","","","","","","","","","","","key","j","16.654120300751604","640","356","j","true","img/T_ambi40.png","三角","prac_word_first",""
"","","","","","html-keyboard-response","125","449592","0.0-9.0-0.0-1.7","null","<span style='color:GreenYellow; font-size: 70px;'>正确! </span>","null","","","","","","","","","","","","","","","","","","","","","","","feedback_test"
"","","","","","psychophysics","126","451408","0.0-9.0-0.0-0.8","663","","f","","","","","","","","","","","","","key","f","16.654111111111384","640","356","f","true","img/C_ambi40.png","三角","prac_word_first",""
"","","","","","html-keyboard-response","127","451718","0.0-9.0-0.0-1.8","null","<span style='color:GreenYellow; font-size: 70px;'>正确! </span>","null","","","","","","","","","","","","","","","","","","","","","","","feedback_test"
"","","","","","psychophysics","128","453794","0.0-9.0-0.0-0.9","921","","j","","","","","","","","","","","","","key","j","16.65386065573777","640","356","j","true","img/C_ambi40.png","圆形","prac_word_first",""
"","","","","","html-keyboard-response","129","454100","0.0-9.0-0.0-1.9","null","<span style='color:GreenYellow; font-size: 70px;'>正确! </span>","null","","","","","","","","","","","","","","","","","","","","","","","feedback_test"
"","","","","","psychophysics","130","456622","0.0-9.0-0.0-0.10","1368","","f","","","","","","","","","","","","","key","f","16.652180000000325","640","356","f","true","img/T_ambi40.png","方形","prac_word_first",""
"","","","","","html-keyboard-response","131","456934","0.0-9.0-0.0-1.10","null","<span style='color:GreenYellow; font-size: 70px;'>正确! </span>","null","","","","","","","","","","","","","","","","","","","","","","","feedback_test"
"","","","","","psychophysics","132","459593","0.0-9.0-0.0-0.11","null","","null","","","","","","","","","","","","","key","null","16.653006289308045","640","356","j","false","img/S_ambi40.png","方形","prac_word_first",""
"","","","","","html-keyboard-response","133","459896","0.0-9.0-0.0-1.11","null","<span class='add_' style='color:yellow; font-size: 70px;'> 太慢! </span>","null","","","","","","","","","","","","","","","","","","","","","","","feedback_test"
"","","","","","psychophysics","134","461686","0.0-9.0-0.0-0.12","627","","j","","","","","","","","","","","","","key","j","16.651433962263837","640","356","j","true","img/C_ambi40.png","圆形","prac_word_first",""
"","","","","","html-keyboard-response","135","461999","0.0-9.0-0.0-1.12","null","<span style='color:GreenYellow; font-size: 70px;'>正确! </span>","null","","","","","","","","","","","","","","","","","","","","","","","feedback_test"
"","","","","","psychophysics","136","463950","0.0-9.0-0.0-0.13","798","","f","","","","","","","","","","","","","key","f","16.65162931034464","640","356","f","true","img/C_ambi40.png","方形","prac_word_first",""
"","","","","","html-keyboard-response","137","464262","0.0-9.0-0.0-1.13","null","<span style='color:GreenYellow; font-size: 70px;'>正确! </span>","null","","","","","","","","","","","","","","","","","","","","","","","feedback_test"
"","","","","","psychophysics","138","466082","0.0-9.0-0.0-0.14","666","","f","","","","","","","","","","","","","key","f","16.65359259259249","640","356","f","true","img/S_ambi40.png","圆形","prac_word_first",""
"","","","","","html-keyboard-response","139","466392","0.0-9.0-0.0-1.14","null","<span style='color:GreenYellow; font-size: 70px;'>正确! </span>","null","","","","","","","","","","","","","","","","","","","","","","","feedback_test"
"","","","","","psychophysics","140","468395","0.0-9.0-0.0-0.15","851","","f","","","","","","","","","","","","","key","f","16.650495798319202","640","356","f","true","img/S_ambi40.png","三角","prac_word_first",""
"","","","","","html-keyboard-response","141","468717","0.0-9.0-0.0-1.15","null","<span style='color:GreenYellow; font-size: 70px;'>正确! </span>","null","","","","","","","","","","","","","","","","","","","","","","","feedback_test"
"","","","","","psychophysics","142","470603","0.0-9.0-0.0-0.16","734","","f","","","","","","","","","","","","","key","f","16.65297321428599","640","356","f","true","img/T_ambi40.png","圆形","prac_word_first",""
"","","","","","html-keyboard-response","143","470913","0.0-9.0-0.0-1.16","null","<span style='color:GreenYellow; font-size: 70px;'>正确! </span>","null","","","","","","","","","","","","","","","","","","","","","","","feedback_test"
"","","","","","psychophysics","144","472690","0.0-9.0-0.0-0.17","626","","j","","","","","","","","","","","","","key","j","16.653301886792452","640","356","j","true","img/C_ambi40.png","圆形","prac_word_first",""
"","","","","","html-keyboard-response","145","473004","0.0-9.0-0.0-1.17","null","<span style='color:GreenYellow; font-size: 70px;'>正确! </span>","null","","","","","","","","","","","","","","","","","","","","","","","feedback_test"
"","","","","","psychophysics","146","474850","0.0-9.0-0.0-0.18","688","","f","","","","","","","","","","","","","key","f","16.649807339449254","640","356","f","true","img/T_ambi40.png","方形","prac_word_first",""
"","","","","","html-keyboard-response","147","475165","0.0-9.0-0.0-1.18","null","<span style='color:GreenYellow; font-size: 70px;'>正确! </span>","null","","","","","","","","","","","","","","","","","","","","","","","feedback_test"
"","","","","","psychophysics","148","477156","0.0-9.0-0.0-0.19","835","","j","","","","","","","","","","","","","key","j","16.64905084745753","640","356","j","true","img/T_ambi40.png","三角","prac_word_first",""
"","","","","","html-keyboard-response","149","477476","0.0-9.0-0.0-1.19","null","<span style='color:GreenYellow; font-size: 70px;'>正确! </span>","null","","","","","","","","","","","","","","","","","","","","","","","feedback_test"
"","","","","","psychophysics","150","479388","0.0-9.0-0.0-0.20","761","","j","","","","","","","","","","","","","key","j","16.536973451327047","640","356","j","true","img/S_ambi40.png","方形","prac_word_first",""
"","","","","","html-keyboard-response","151","479707","0.0-9.0-0.0-1.20","null","<span style='color:GreenYellow; font-size: 70px;'>正确! </span>","null","","","","","","","","","","","","","","","","","","","","","","","feedback_test"
"","","","","","psychophysics","152","481549","0.0-9.0-0.0-0.21","683","","f","","","","","","","","","","","","","key","f","16.527834862385717","640","356","f","true","img/C_ambi40.png","三角","prac_word_first",""
"","","","","","html-keyboard-response","153","481864","0.0-9.0-0.0-1.21","null","<span style='color:GreenYellow; font-size: 70px;'>正确! </span>","null","","","","","","","","","","","","","","","","","","","","","","","feedback_test"
"","","","","","psychophysics","154","483614","0.0-9.0-0.0-0.22","590","","j","","","","","","","","","","","","","key","j","16.653368932039033","640","356","j","true","img/S_ambi40.png","方形","prac_word_first",""
"","","","","","html-keyboard-response","155","483931","0.0-9.0-0.0-1.22","null","<span style='color:GreenYellow; font-size: 70px;'>正确! </span>","null","","","","","","","","","","","","","","","","","","","","","","","feedback_test"
"","","","","","psychophysics","156","485745","0.0-9.0-0.0-0.23","658","","j","","","","","","","","","","","","","key","j","16.653370370370492","640","356","j","true","img/T_ambi40.png","三角","prac_word_first",""
"","","","","","html-keyboard-response","157","486059","0.0-9.0-0.0-1.23","null","<span style='color:GreenYellow; font-size: 70px;'>正确! </span>","null","","","","","","","","","","","","","","","","","","","","","","","feedback_test"
"","","","","","html-keyboard-response","158","491629","0.0-10.0","5568","<style>.context{color:white; font-size: 35px; line-height:40px}</style>                            <div><p class='context'>您正确回答了96% 的试次。</p><p class='context'>您的平均反应时为811毫秒。</p><p class='context'>恭喜您完成练习。按任意键进入<span style='color: yellow;'>图形和文字同时呈现条件</span>的练习。</p></div>","j","","","","","","","","","","","","","","","","","","","","","","",""
"","","","","","psychophysics","159","493606","0.0-11.0-0.0-0.0","960","","j","","","","","","","","","","","","","key","j","16.6565726495728","640","356","j","true","img/T_ambi40.png","三角","prac_simultaneous",""
"","","","","","html-keyboard-response","160","493920","0.0-11.0-0.0-1.0","null","<span style='color:GreenYellow; font-size: 70px;'>正确! </span>","null","","","","","","","","","","","","","","","","","","","","","","","feedback_test"
"","","","","","psychophysics","161","495822","0.0-11.0-0.0-0.1","900","","f","","","","","","","","","","","","","key","f","16.652823008849303","640","356","f","true","img/S_ambi40.png","圆形","prac_simultaneous",""
"","","","","","html-keyboard-response","162","496141","0.0-11.0-0.0-1.1","null","<span style='color:GreenYellow; font-size: 70px;'>正确! </span>","null","","","","","","","","","","","","","","","","","","","","","","","feedback_test"
"","","","","","psychophysics","163","497818","0.0-11.0-0.0-0.2","663","","j","","","","","","","","","","","","","key","j","16.651359999999986","640","356","j","true","img/S_ambi40.png","方形","prac_simultaneous",""
"","","","","","html-keyboard-response","164","498127","0.0-11.0-0.0-1.2","null","<span style='color:GreenYellow; font-size: 70px;'>正确! </span>","null","","","","","","","","","","","","","","","","","","","","","","","feedback_test"
"","","","","","psychophysics","165","500150","0.0-11.0-0.0-0.3","1013","","f","","","","","","","","","","","","","key","f","16.646891666666487","640","356","f","true","img/C_ambi40.png","方形","prac_simultaneous",""
"","","","","","html-keyboard-response","166","500457","0.0-11.0-0.0-1.3","null","<span style='color:GreenYellow; font-size: 70px;'>正确! </span>","null","","","","","","","","","","","","","","","","","","","","","","","feedback_test"
"","","","","","psychophysics","167","502356","0.0-11.0-0.0-0.4","897","","j","","","","","","","","","","","","","key","j","16.527339285714074","640","356","j","true","img/C_ambi40.png","圆形","prac_simultaneous",""
"","","","","","html-keyboard-response","168","502665","0.0-11.0-0.0-1.4","null","<span style='color:GreenYellow; font-size: 70px;'>正确! </span>","null","","","","","","","","","","","","","","","","","","","","","","","feedback_test"
"","","","","","psychophysics","169","504795","0.0-11.0-0.0-0.5","1126","","f","","","","","","","","","","","","","key","f","16.653590551181054","640","356","f","true","img/T_ambi40.png","方形","prac_simultaneous",""
"","","","","","html-keyboard-response","170","505105","0.0-11.0-0.0-1.5","null","<span style='color:GreenYellow; font-size: 70px;'>正确! </span>","null","","","","","","","","","","","","","","","","","","","","","","","feedback_test"
"","","","","","psychophysics","171","506995","0.0-11.0-0.0-0.6","888","","j","","","","","","","","","","","","","key","j","16.65526785714298","640","356","j","true","img/C_ambi40.png","圆形","prac_simultaneous",""
"","","","","","html-keyboard-response","172","507319","0.0-11.0-0.0-1.6","null","<span style='color:GreenYellow; font-size: 70px;'>正确! </span>","null","","","","","","","","","","","","","","","","","","","","","","","feedback_test"
"","","","","","psychophysics","173","509496","0.0-11.0-0.0-0.7","1173","","f","","","","","","","","","","","","","key","f","16.652999999999725","640","356","f","true","img/T_ambi40.png","圆形","prac_simultaneous",""
"","","","","","html-keyboard-response","174","509804","0.0-11.0-0.0-1.7","null","<span style='color:GreenYellow; font-size: 70px;'>正确! </span>","null","","","","","","","","","","","","","","","","","","","","","","","feedback_test"
"","","","","","psychophysics","175","511731","0.0-11.0-0.0-0.8","922","","f","","","","","","","","","","","","","key","f","16.653131578947324","640","356","f","true","img/C_ambi40.png","三角","prac_simultaneous",""
"","","","","","html-keyboard-response","176","512039","0.0-11.0-0.0-1.8","null","<span style='color:GreenYellow; font-size: 70px;'>正确! </span>","null","","","","","","","","","","","","","","","","","","","","","","","feedback_test"
"","","","","","psychophysics","177","513862","0.0-11.0-0.0-0.9","814","","j","","","","","","","","","","","","","key","j","16.652532710280884","640","356","j","true","img/S_ambi40.png","方形","prac_simultaneous",""
"","","","","","html-keyboard-response","178","514182","0.0-11.0-0.0-1.9","null","<span style='color:GreenYellow; font-size: 70px;'>正确! </span>","null","","","","","","","","","","","","","","","","","","","","","","","feedback_test"
"","","","","","psychophysics","179","516123","0.0-11.0-0.0-0.10","939","","j","","","","","","","","","","","","","key","j","16.65341739130419","640","356","j","true","img/T_ambi40.png","三角","prac_simultaneous",""
"","","","","","html-keyboard-response","180","516447","0.0-11.0-0.0-1.10","null","<span style='color:GreenYellow; font-size: 70px;'>正确! </span>","null","","","","","","","","","","","","","","","","","","","","","","","feedback_test"
"","","","","","psychophysics","181","518320","0.0-11.0-0.0-0.11","866","","f","","","","","","","","","","","","","key","f","16.652621621621545","640","356","f","true","img/S_ambi40.png","三角","prac_simultaneous",""
"","","","","","html-keyboard-response","182","518637","0.0-11.0-0.0-1.11","null","<span style='color:GreenYellow; font-size: 70px;'>正确! </span>","null","","","","","","","","","","","","","","","","","","","","","","","feedback_test"
"","","","","","psychophysics","183","520534","0.0-11.0-0.0-0.12","892","","j","","","","","","","","","","","","","key","j","16.64800892857134","640","356","j","true","img/T_ambi40.png","三角","prac_simultaneous",""
"","","","","","html-keyboard-response","184","520844","0.0-11.0-0.0-1.12","null","<span style='color:GreenYellow; font-size: 70px;'>正确! </span>","null","","","","","","","","","","","","","","","","","","","","","","","feedback_test"
"","","","","","psychophysics","185","522607","0.0-11.0-0.0-0.13","760","","j","","","","","","","","","","","","","key","j","16.65407692307669","640","356","j","true","img/S_ambi40.png","方形","prac_simultaneous",""
"","","","","","html-keyboard-response","186","522923","0.0-11.0-0.0-1.13","null","<span style='color:GreenYellow; font-size: 70px;'>正确! </span>","null","","","","","","","","","","","","","","","","","","","","","","","feedback_test"
"","","","","","psychophysics","187","524858","0.0-11.0-0.0-0.14","930","","f","","","","","","","","","","","","","key","f","16.65371052631567","640","356","f","true","img/T_ambi40.png","方形","prac_simultaneous",""
"","","","","","html-keyboard-response","188","525179","0.0-11.0-0.0-1.14","null","<span style='color:GreenYellow; font-size: 70px;'>正确! </span>","null","","","","","","","","","","","","","","","","","","","","","","","feedback_test"
"","","","","","psychophysics","189","527146","0.0-11.0-0.0-0.15","962","","f","","","","","","","","","","","","","key","f","16.651837606837727","640","356","f","true","img/T_ambi40.png","圆形","prac_simultaneous",""
"","","","","","html-keyboard-response","190","527453","0.0-11.0-0.0-1.15","null","<span style='color:GreenYellow; font-size: 70px;'>正确! </span>","null","","","","","","","","","","","","","","","","","","","","","","","feedback_test"
"","","","","","psychophysics","191","529284","0.0-11.0-0.0-0.16","819","","j","","","","","","","","","","","","","key","j","16.651203703704393","640","356","j","true","img/T_ambi40.png","三角","prac_simultaneous",""
"","","","","","html-keyboard-response","192","529596","0.0-11.0-0.0-1.16","null","<span style='color:GreenYellow; font-size: 70px;'>正确! </span>","null","","","","","","","","","","","","","","","","","","","","","","","feedback_test"
"","","","","","psychophysics","193","531393","0.0-11.0-0.0-0.17","796","","j","","","","","","","","","","","","","key","j","16.653728971961737","640","356","j","true","img/S_ambi40.png","方形","prac_simultaneous",""
"","","","","","html-keyboard-response","194","531710","0.0-11.0-0.0-1.17","null","<span style='color:GreenYellow; font-size: 70px;'>正确! </span>","null","","","","","","","","","","","","","","","","","","","","","","","feedback_test"
"","","","","","psychophysics","195","533539","0.0-11.0-0.0-0.18","827","","f","","","","","","","","","","","","","key","f","16.64824770642188","640","356","f","true","img/C_ambi40.png","三角","prac_simultaneous",""
"","","","","","html-keyboard-response","196","533849","0.0-11.0-0.0-1.18","null","<span style='color:GreenYellow; font-size: 70px;'>正确! </span>","null","","","","","","","","","","","","","","","","","","","","","","","feedback_test"
"","","","","","psychophysics","197","535794","0.0-11.0-0.0-0.19","943","","f","","","","","","","","","","","","","key","f","16.653782608695124","640","356","f","true","img/S_ambi40.png","圆形","prac_simultaneous",""
"","","","","","html-keyboard-response","198","536104","0.0-11.0-0.0-1.19","null","<span style='color:GreenYellow; font-size: 70px;'>正确! </span>","null","","","","","","","","","","","","","","","","","","","","","","","feedback_test"
"","","","","","psychophysics","199","537822","0.0-11.0-0.0-0.20","698","","j","","","","","","","","","","","","","key","j","16.65294117647036","640","356","j","true","img/C_ambi40.png","圆形","prac_simultaneous",""
"","","","","","html-keyboard-response","200","538129","0.0-11.0-0.0-1.20","null","<span style='color:GreenYellow; font-size: 70px;'>正确! </span>","null","","","","","","","","","","","","","","","","","","","","","","","feedback_test"
"","","","","","psychophysics","201","539830","0.0-11.0-0.0-0.21","693","","f","","","","","","","","","","","","","key","f","16.65050495049506","640","356","f","true","img/S_ambi40.png","三角","prac_simultaneous",""
"","","","","","html-keyboard-response","202","540146","0.0-11.0-0.0-1.21","null","<span style='color:GreenYellow; font-size: 70px;'>正确! </span>","null","","","","","","","","","","","","","","","","","","","","","","","feedback_test"
"","","","","","psychophysics","203","542200","0.0-11.0-0.0-0.22","1047","","f","","","","","","","","","","","","","key","f","16.64998360655698","640","356","f","true","img/C_ambi40.png","方形","prac_simultaneous",""
"","","","","","html-keyboard-response","204","542506","0.0-11.0-0.0-1.22","null","<span style='color:GreenYellow; font-size: 70px;'>正确! </span>","null","","","","","","","","","","","","","","","","","","","","","","","feedback_test"
"","","","","","psychophysics","205","544466","0.0-11.0-0.0-0.23","959","","j","","","","","","","","","","","","","key","j","16.543603448275526","640","356","j","true","img/C_ambi40.png","圆形","prac_simultaneous",""
"","","","","","html-keyboard-response","206","544771","0.0-11.0-0.0-1.23","null","<span style='color:GreenYellow; font-size: 70px;'>正确! </span>","null","","","","","","","","","","","","","","","","","","","","","","","feedback_test"
"","","","","","html-keyboard-response","207","560813","0.0-12.0","16040","<style>.context{color:white; font-size: 35px; line-height:40px}</style>                            <div><p class='context'>您正确回答了100% 的试次。</p><p class='context'>您的平均反应时为895毫秒。</p><p class='context'>恭喜您完成练习。按任意键进入正式实验。</p><p class='footer' style='font-size: 35px; line-height:40px;'>请在进入正式实验实验之前将您的<span style='color: lightgreen;'>食指</span>放在电脑键盘的相应键位上进行按键。</p>","j","","","","","","","","","","","","","","","","","","","","","","",""
"","","","","","html-keyboard-response","208","565629","0.0-13.0-2.0-0.0","4810","
    <p>请您将手指放在按键上，准备进入呈现顺序为<span style='color: yellow;'>图形和文字同时呈现条件</span>的正式匹配任务</p>
    <p> <div style = ""color: green""><按任意键进入下一阶段的匹配任务></div></p>
    ","j","","","","","","","","","","","","","","","","","","","","","","",""
"","","","","","psychophysics","209","568136","0.0-13.0-2.0-1.0-0.0-0.0","null","","null","","","","","","","","","","","","","key","null","16.652879194631524","640","356","f","false","img/S_ambi40.png","三角","simultaneous",""
"","","","","","html-keyboard-response","210","568447","0.0-13.0-2.0-1.0-0.0-1.0","null","<span class='add_' style='color:yellow; font-size: 70px;'> 太慢! </span>","null","","","","","","","","","","","","","","","","","","","","","","","feedback_test"
"","","","","","psychophysics","211","570631","0.0-13.0-2.0-1.0-0.0-0.1","1173","","j","","","","","","","","","","","","","key","j","16.653646153846505","640","356","j","true","img/C_ambi40.png","圆形","simultaneous",""
"","","","","","html-keyboard-response","212","570947","0.0-13.0-2.0-1.0-0.0-1.1","null","<span style='color:GreenYellow; font-size: 70px;'>正确! </span>","null","","","","","","","","","","","","","","","","","","","","","","","feedback_test"
"","","","","","psychophysics","213","572993","0.0-13.0-2.0-1.0-0.0-0.2","1043","","j","","","","","","","","","","","","","key","j","16.653247933883858","640","356","j","true","img/C_ambi40.png","圆形","simultaneous",""
"","","","","","html-keyboard-response","214","573310","0.0-13.0-2.0-1.0-0.0-1.2","null","<span style='color:GreenYellow; font-size: 70px;'>正确! </span>","null","","","","","","","","","","","","","","","","","","","","","","","feedback_test"
"","","","","","psychophysics","215","575343","0.0-13.0-2.0-1.0-0.0-0.3","1030","","f","","","","","","","","","","","","","key","f","16.65219834710814","640","356","f","true","img/S_ambi40.png","圆形","simultaneous",""
"","","","","","html-keyboard-response","216","575654","0.0-13.0-2.0-1.0-0.0-1.3","null","<span style='color:GreenYellow; font-size: 70px;'>正确! </span>","null","","","","","","","","","","","","","","","","","","","","","","","feedback_test"
"","","","","","psychophysics","217","577448","0.0-13.0-2.0-1.0-0.0-0.4","791","","j","","","","","","","","","","","","","key","j","16.649103773585388","640","356","j","true","img/S_ambi40.png","方形","simultaneous",""
"","","","","","html-keyboard-response","218","577756","0.0-13.0-2.0-1.0-0.0-1.4","null","<span style='color:GreenYellow; font-size: 70px;'>正确! </span>","null","","","","","","","","","","","","","","","","","","","","","","","feedback_test"
"","","","","","psychophysics","219","579802","0.0-13.0-2.0-1.0-0.0-0.5","1041","","f","","","","","","","","","","","","","key","f","16.654319672131546","640","356","f","true","img/C_ambi40.png","方形","simultaneous",""
"","","","","","html-keyboard-response","220","580118","0.0-13.0-2.0-1.0-0.0-1.5","null","<span style='color:GreenYellow; font-size: 70px;'>正确! </span>","null","","","","","","","","","","","","","","","","","","","","","","","feedback_test"
"","","","","","psychophysics","221","582115","0.0-13.0-2.0-1.0-0.0-0.6","993","","f","","","","","","","","","","","","","key","f","16.65341176470632","640","356","f","true","img/T_ambi40.png","圆形","simultaneous",""
"","","","","","html-keyboard-response","222","582435","0.0-13.0-2.0-1.0-0.0-1.6","null","<span style='color:GreenYellow; font-size: 70px;'>正确! </span>","null","","","","","","","","","","","","","","","","","","","","","","","feedback_test"
"","","","","","psychophysics","223","584101","0.0-13.0-2.0-1.0-0.0-0.7","657","","j","","","","","","","","","","","","","key","j","16.64891919191936","640","356","j","true","img/T_ambi40.png","三角","simultaneous",""
"","","","","","html-keyboard-response","224","584419","0.0-13.0-2.0-1.0-0.0-1.7","null","<span style='color:GreenYellow; font-size: 70px;'>正确! </span>","null","","","","","","","","","","","","","","","","","","","","","","","feedback_test"
"","","","","","psychophysics","225","586419","0.0-13.0-2.0-1.0-0.0-0.8","997","","f","","","","","","","","","","","","","key","f","16.6541428571428","640","356","f","true","img/T_ambi40.png","方形","simultaneous",""
"","","","","","html-keyboard-response","226","586724","0.0-13.0-2.0-1.0-0.0-1.8","null","<span style='color:GreenYellow; font-size: 70px;'>正确! </span>","null","","","","","","","","","","","","","","","","","","","","","","","feedback_test"
"","","","","","psychophysics","227","588708","0.0-13.0-2.0-1.0-0.0-0.9","979","","f","","","","","","","","","","","","","key","f","16.6531538461538","640","356","f","true","img/C_ambi40.png","三角","simultaneous",""
"","","","","","html-keyboard-response","228","589031","0.0-13.0-2.0-1.0-0.0-1.9","null","<span style='color:GreenYellow; font-size: 70px;'>正确! </span>","null","","","","","","","","","","","","","","","","","","","","","","","feedback_test"
"","","","","","psychophysics","229","590753","0.0-13.0-2.0-1.0-0.0-0.10","719","","j","","","","","","","","","","","","","key","j","16.653539215685917","640","356","j","true","img/S_ambi40.png","方形","simultaneous",""
"","","","","","html-keyboard-response","230","591083","0.0-13.0-2.0-1.0-0.0-1.10","null","<span style='color:GreenYellow; font-size: 70px;'>正确! </span>","null","","","","","","","","","","","","","","","","","","","","","","","feedback_test"
"","","","","","psychophysics","231","592791","0.0-13.0-2.0-1.0-0.0-0.11","705","","j","","","","","","","","","","","","","key","j","16.515029702970693","640","356","j","true","img/T_ambi40.png","三角","simultaneous",""
"","","","","","html-keyboard-response","232","593101","0.0-13.0-2.0-1.0-0.0-1.11","null","<span style='color:GreenYellow; font-size: 70px;'>正确! </span>","null","","","","","","","","","","","","","","","","","","","","","","","feedback_test"
"","","","","","psychophysics","233","594798","0.0-13.0-2.0-1.0-0.0-0.12","693","","f","","","","","","","","","","","","","key","f","16.673919999999924","640","356","f","true","img/T_ambi40.png","圆形","simultaneous",""
"","","","","","html-keyboard-response","234","595119","0.0-13.0-2.0-1.0-0.0-1.12","null","<span style='color:GreenYellow; font-size: 70px;'>正确! </span>","null","","","","","","","","","","","","","","","","","","","","","","","feedback_test"
"","","","","","psychophysics","235","596838","0.0-13.0-2.0-1.0-0.0-0.13","715","","j","","","","","","","","","","","","","key","j","16.653558823528847","640","356","j","true","img/S_ambi40.png","方形","simultaneous",""
"","","","","","html-keyboard-response","236","597154","0.0-13.0-2.0-1.0-0.0-1.13","null","<span style='color:GreenYellow; font-size: 70px;'>正确! </span>","null","","","","","","","","","","","","","","","","","","","","","","","feedback_test"
"","","","","","psychophysics","237","598871","0.0-13.0-2.0-1.0-0.0-0.14","711","","j","","","","","","","","","","","","","key","j","16.6500882352942","640","356","j","true","img/C_ambi40.png","圆形","simultaneous",""
"","","","","","html-keyboard-response","238","599179","0.0-13.0-2.0-1.0-0.0-1.14","null","<span style='color:GreenYellow; font-size: 70px;'>正确! </span>","null","","","","","","","","","","","","","","","","","","","","","","","feedback_test"
"","","","","","psychophysics","239","600822","0.0-13.0-2.0-1.0-0.0-0.15","642","","f","","","","","","","","","","","","","key","f","16.651463917526176","640","356","f","true","img/C_ambi40.png","方形","simultaneous",""
"","","","","","html-keyboard-response","240","601128","0.0-13.0-2.0-1.0-0.0-1.15","null","<span style='color:GreenYellow; font-size: 70px;'>正确! </span>","null","","","","","","","","","","","","","","","","","","","","","","","feedback_test"
"","","","","","psychophysics","241","602977","0.0-13.0-2.0-1.0-0.0-0.16","840","","f","","","","","","","","","","","","","key","f","16.650550458715895","640","356","f","true","img/T_ambi40.png","方形","simultaneous",""
"","","","","","html-keyboard-response","242","603289","0.0-13.0-2.0-1.0-0.0-1.16","null","<span style='color:GreenYellow; font-size: 70px;'>正确! </span>","null","","","","","","","","","","","","","","","","","","","","","","","feedback_test"
"","","","","","psychophysics","243","605052","0.0-13.0-2.0-1.0-0.0-0.17","760","","j","","","","","","","","","","","","","key","j","16.53489423076882","640","356","j","true","img/C_ambi40.png","圆形","simultaneous",""
"","","","","","html-keyboard-response","244","605370","0.0-13.0-2.0-1.0-0.0-1.17","null","<span style='color:GreenYellow; font-size: 70px;'>正确! </span>","null","","","","","","","","","","","","","","","","","","","","","","","feedback_test"
"","","","","","psychophysics","245","607164","0.0-13.0-2.0-1.0-0.0-0.18","789","","f","","","","","","","","","","","","","key","f","16.654214953270383","640","356","f","true","img/S_ambi40.png","圆形","simultaneous",""
"","","","","","html-keyboard-response","246","607487","0.0-13.0-2.0-1.0-0.0-1.18","null","<span style='color:GreenYellow; font-size: 70px;'>正确! </span>","null","","","","","","","","","","","","","","","","","","","","","","","feedback_test"
"","","","","","psychophysics","247","609459","0.0-13.0-2.0-1.0-0.0-0.19","971","","f","","","","","","","","","","","","","key","f","16.652991452991653","640","356","f","true","img/S_ambi40.png","三角","simultaneous",""
"","","","","","html-keyboard-response","248","609773","0.0-13.0-2.0-1.0-0.0-1.19","null","<span style='color:GreenYellow; font-size: 70px;'>正确! </span>","null","","","","","","","","","","","","","","","","","","","","","","","feedback_test"
"","","","","","psychophysics","249","611492","0.0-13.0-2.0-1.0-0.0-0.20","717","","j","","","","","","","","","","","","","key","j","16.653735294118615","640","356","j","true","img/T_ambi40.png","三角","simultaneous",""
"","","","","","html-keyboard-response","250","611802","0.0-13.0-2.0-1.0-0.0-1.20","null","<span style='color:GreenYellow; font-size: 70px;'>正确! </span>","null","","","","","","","","","","","","","","","","","","","","","","","feedback_test"
"","","","","","psychophysics","251","613529","0.0-13.0-2.0-1.0-0.0-0.21","720","","j","","","","","","","","","","","","","key","j","16.65304901960703","640","356","j","true","img/T_ambi40.png","三角","simultaneous",""
"","","","","","html-keyboard-response","252","613838","0.0-13.0-2.0-1.0-0.0-1.21","null","<span style='color:GreenYellow; font-size: 70px;'>正确! </span>","null","","","","","","","","","","","","","","","","","","","","","","","feedback_test"
"","","","","","psychophysics","253","615578","0.0-13.0-2.0-1.0-0.0-0.22","737","","f","","","","","","","","","","","","","key","f","16.653961165048617","640","356","f","true","img/C_ambi40.png","三角","simultaneous",""
"","","","","","html-keyboard-response","254","615892","0.0-13.0-2.0-1.0-0.0-1.22","null","<span style='color:GreenYellow; font-size: 70px;'>正确! </span>","null","","","","","","","","","","","","","","","","","","","","","","","feedback_test"
"","","","","","psychophysics","255","617620","0.0-13.0-2.0-1.0-0.0-0.23","722","","j","","","","","","","","","","","","","key","j","16.652097087378333","640","356","j","true","img/S_ambi40.png","方形","simultaneous",""
"","","","","","html-keyboard-response","256","617934","0.0-13.0-2.0-1.0-0.0-1.23","null","<span style='color:GreenYellow; font-size: 70px;'>正确! </span>","null","","","","","","","","","","","","","","","","","","","","","","","feedback_test"
"","","","","","psychophysics","257","619690","0.0-13.0-2.0-1.0-0.0-0.24","753","","j","","","","","","","","","","","","","key","j","16.65297115384601","640","356","j","true","img/C_ambi40.png","圆形","simultaneous",""
"","","","","","html-keyboard-response","258","619996","0.0-13.0-2.0-1.0-0.0-1.24","null","<span style='color:GreenYellow; font-size: 70px;'>正确! </span>","null","","","","","","","","","","","","","","","","","","","","","","","feedback_test"
"","","","","","psychophysics","259","621749","0.0-13.0-2.0-1.0-0.0-0.25","751","","f","","","","","","","","","","","","","key","f","16.651500000000503","640","356","f","true","img/T_ambi40.png","方形","simultaneous",""
"","","","","","html-keyboard-response","260","622059","0.0-13.0-2.0-1.0-0.0-1.25","null","<span style='color:GreenYellow; font-size: 70px;'>正确! </span>","null","","","","","","","","","","","","","","","","","","","","","","","feedback_test"
"","","","","","psychophysics","261","623704","0.0-13.0-2.0-1.0-0.0-0.26","639","","j","","","","","","","","","","","","","key","j","16.652597938144588","640","356","j","true","img/S_ambi40.png","方形","simultaneous",""
"","","","","","html-keyboard-response","262","624021","0.0-13.0-2.0-1.0-0.0-1.26","null","<span style='color:GreenYellow; font-size: 70px;'>正确! </span>","null","","","","","","","","","","","","","","","","","","","","","","","feedback_test"
"","","","","","psychophysics","263","625828","0.0-13.0-2.0-1.0-0.0-0.27","806","","f","","","","","","","","","","","","","key","f","16.653037037037492","640","356","f","true","img/C_ambi40.png","三角","simultaneous",""
"","","","","","html-keyboard-response","264","626149","0.0-13.0-2.0-1.0-0.0-1.27","null","<span style='color:GreenYellow; font-size: 70px;'>正确! </span>","null","","","","","","","","","","","","","","","","","","","","","","","feedback_test"
"","","","","","psychophysics","265","627752","0.0-13.0-2.0-1.0-0.0-0.28","600","","j","","","","","","","","","","","","","key","j","16.65203157894828","640","356","j","true","img/T_ambi40.png","三角","simultaneous",""
"","","","","","html-keyboard-response","266","628062","0.0-13.0-2.0-1.0-0.0-1.28","null","<span style='color:GreenYellow; font-size: 70px;'>正确! </span>","null","","","","","","","","","","","","","","","","","","","","","","","feedback_test"
"","","","","","psychophysics","267","629852","0.0-13.0-2.0-1.0-0.0-0.29","783","","j","","","","","","","","","","","","","key","j","16.653698113207696","640","356","j","true","img/T_ambi40.png","三角","simultaneous",""
"","","","","","html-keyboard-response","268","630166","0.0-13.0-2.0-1.0-0.0-1.29","null","<span style='color:GreenYellow; font-size: 70px;'>正确! </span>","null","","","","","","","","","","","","","","","","","","","","","","","feedback_test"
"","","","","","psychophysics","269","631942","0.0-13.0-2.0-1.0-0.0-0.30","775","","f","","","","","","","","","","","","","key","f","16.654037735848863","640","356","f","true","img/S_ambi40.png","圆形","simultaneous",""
"","","","","","html-keyboard-response","270","632251","0.0-13.0-2.0-1.0-0.0-1.30","null","<span style='color:GreenYellow; font-size: 70px;'>正确! </span>","null","","","","","","","","","","","","","","","","","","","","","","","feedback_test"
"","","","","","psychophysics","271","634058","0.0-13.0-2.0-1.0-0.0-0.31","802","","f","","","","","","","","","","","","","key","f","16.651858490565573","640","356","f","true","img/C_ambi40.png","方形","simultaneous",""
"","","","","","html-keyboard-response","272","634380","0.0-13.0-2.0-1.0-0.0-1.31","null","<span style='color:GreenYellow; font-size: 70px;'>正确! </span>","null","","","","","","","","","","","","","","","","","","","","","","","feedback_test"
"","","","","","psychophysics","273","636075","0.0-13.0-2.0-1.0-0.0-0.32","690","","j","","","","","","","","","","","","","key","j","16.517910000000846","640","356","j","true","img/S_ambi40.png","方形","simultaneous",""
"","","","","","html-keyboard-response","274","636385","0.0-13.0-2.0-1.0-0.0-1.32","null","<span style='color:GreenYellow; font-size: 70px;'>正确! </span>","null","","","","","","","","","","","","","","","","","","","","","","","feedback_test"
"","","","","","psychophysics","275","638045","0.0-13.0-2.0-1.0-0.0-0.33","653","","f","","","","","","","","","","","","","key","f","16.653306122448733","640","356","f","true","img/S_ambi40.png","三角","simultaneous",""
"","","","","","html-keyboard-response","276","638364","0.0-13.0-2.0-1.0-0.0-1.33","null","<span style='color:GreenYellow; font-size: 70px;'>正确! </span>","null","","","","","","","","","","","","","","","","","","","","","","","feedback_test"
"","","","","","psychophysics","277","640179","0.0-13.0-2.0-1.0-0.0-0.34","810","","j","","","","","","","","","","","","","key","j","16.652728971962112","640","356","j","true","img/C_ambi40.png","圆形","simultaneous",""
"","","","","","html-keyboard-response","278","640503","0.0-13.0-2.0-1.0-0.0-1.34","null","<span style='color:GreenYellow; font-size: 70px;'>正确! </span>","null","","","","","","","","","","","","","","","","","","","","","","","feedback_test"
"","","","","","psychophysics","279","642201","0.0-13.0-2.0-1.0-0.0-0.35","692","","f","","","","","","","","","","","","","key","f","16.652188118812305","640","356","f","true","img/T_ambi40.png","圆形","simultaneous",""
"","","","","","html-keyboard-response","280","642509","0.0-13.0-2.0-1.0-0.0-1.35","null","<span style='color:GreenYellow; font-size: 70px;'>正确! </span>","null","","","","","","","","","","","","","","","","","","","","","","","feedback_test"
"","","","","","psychophysics","281","644403","0.0-13.0-2.0-1.0-0.0-0.36","891","","j","","","","","","","","","","","","","key","j","16.65367857142805","640","356","j","true","img/S_ambi40.png","方形","simultaneous",""
"","","","","","html-keyboard-response","282","644716","0.0-13.0-2.0-1.0-0.0-1.36","null","<span style='color:GreenYellow; font-size: 70px;'>正确! </span>","null","","","","","","","","","","","","","","","","","","","","","","","feedback_test"
"","","","","","psychophysics","283","646651","0.0-13.0-2.0-1.0-0.0-0.37","931","","f","","","","","","","","","","","","","key","f","16.651139130435237","640","356","f","true","img/T_ambi40.png","方形","simultaneous",""
"","","","","","html-keyboard-response","284","646975","0.0-13.0-2.0-1.0-0.0-1.37","null","<span style='color:GreenYellow; font-size: 70px;'>正确! </span>","null","","","","","","","","","","","","","","","","","","","","","","","feedback_test"
"","","","","","psychophysics","285","648621","0.0-13.0-2.0-1.0-0.0-0.38","634","","j","","","","","","","","","","","","","key","j","16.65325510204052","640","356","j","true","img/S_ambi40.png","方形","simultaneous",""
"","","","","","html-keyboard-response","286","648941","0.0-13.0-2.0-1.0-0.0-1.38","null","<span style='color:GreenYellow; font-size: 70px;'>正确! </span>","null","","","","","","","","","","","","","","","","","","","","","","","feedback_test"
"","","","","","psychophysics","287","650725","0.0-13.0-2.0-1.0-0.0-0.39","781","","f","","","","","","","","","","","","","key","f","16.651292452829196","640","356","f","true","img/C_ambi40.png","方形","simultaneous",""
"","","","","","html-keyboard-response","288","651033","0.0-13.0-2.0-1.0-0.0-1.39","null","<span style='color:GreenYellow; font-size: 70px;'>正确! </span>","null","","","","","","","","","","","","","","","","","","","","","","","feedback_test"
"","","","","","psychophysics","289","652797","0.0-13.0-2.0-1.0-0.0-0.40","762","","f","","","","","","","","","","","","","key","f","16.653480769230207","640","356","f","true","img/C_ambi40.png","三角","simultaneous",""
"","","","","","html-keyboard-response","290","653105","0.0-13.0-2.0-1.0-0.0-1.40","null","<span style='color:GreenYellow; font-size: 70px;'>正确! </span>","null","","","","","","","","","","","","","","","","","","","","","","","feedback_test"
"","","","","","psychophysics","291","654854","0.0-13.0-2.0-1.0-0.0-0.41","740","","j","","","","","","","","","","","","","key","j","16.653519230769373","640","356","j","true","img/C_ambi40.png","圆形","simultaneous",""
"","","","","","html-keyboard-response","292","655164","0.0-13.0-2.0-1.0-0.0-1.41","null","<span style='color:GreenYellow; font-size: 70px;'>正确! </span>","null","","","","","","","","","","","","","","","","","","","","","","","feedback_test"
"","","","","","psychophysics","293","656994","0.0-13.0-2.0-1.0-0.0-0.42","825","","j","","","","","","","","","","","","","key","j","16.653851851852206","640","356","j","true","img/T_ambi40.png","三角","simultaneous",""
"","","","","","html-keyboard-response","294","657302","0.0-13.0-2.0-1.0-0.0-1.42","null","<span style='color:GreenYellow; font-size: 70px;'>正确! </span>","null","","","","","","","","","","","","","","","","","","","","","","","feedback_test"
"","","","","","psychophysics","295","658937","0.0-13.0-2.0-1.0-0.0-0.43","633","","j","","","","","","","","","","","","","key","j","16.65439175257757","640","356","j","true","img/C_ambi40.png","圆形","simultaneous",""
"","","","","","html-keyboard-response","296","659243","0.0-13.0-2.0-1.0-0.0-1.43","null","<span style='color:GreenYellow; font-size: 70px;'>正确! </span>","null","","","","","","","","","","","","","","","","","","","","","","","feedback_test"
"","","","","","psychophysics","297","661084","0.0-13.0-2.0-1.0-0.0-0.44","836","","j","","","","","","","","","","","","","key","j","16.517694444445187","640","356","j","true","img/T_ambi40.png","三角","simultaneous",""
"","","","","","html-keyboard-response","298","661404","0.0-13.0-2.0-1.0-0.0-1.44","null","<span style='color:GreenYellow; font-size: 70px;'>正确! </span>","null","","","","","","","","","","","","","","","","","","","","","","","feedback_test"
"","","","","","psychophysics","299","663067","0.0-13.0-2.0-1.0-0.0-0.45","659","","f","","","","","","","","","","","","","key","f","16.653646464646567","640","356","f","true","img/T_ambi40.png","圆形","simultaneous",""
"","","","","","html-keyboard-response","300","663385","0.0-13.0-2.0-1.0-0.0-1.45","null","<span style='color:GreenYellow; font-size: 70px;'>正确! </span>","null","","","","","","","","","","","","","","","","","","","","","","","feedback_test"
"","","","","","psychophysics","301","665043","0.0-13.0-2.0-1.0-0.0-0.46","641","","j","","","","","","","","","","","","","key","j","16.646520408163827","640","356","f","false","img/S_ambi40.png","圆形","simultaneous",""
"","","","","","html-keyboard-response","302","665361","0.0-13.0-2.0-1.0-0.0-1.46","null","<span style='color:red; font-size: 70px;'>错误! </span>","null","","","","","","","","","","","","","","","","","","","","","","","feedback_test"
"","","","","","psychophysics","303","667149","0.0-13.0-2.0-1.0-0.0-0.47","779","","f","","","","","","","","","","","","","key","f","16.64930188679246","640","356","f","true","img/S_ambi40.png","三角","simultaneous",""
"","","","","","html-keyboard-response","304","667465","0.0-13.0-2.0-1.0-0.0-1.47","null","<span style='color:GreenYellow; font-size: 70px;'>正确! </span>","null","","","","","","","","","","","","","","","","","","","","","","","feedback_test"
"","","","","","psychophysics","305","669177","0.0-13.0-2.0-1.0-0.0-0.48","706","","f","","","","","","","","","","","","","key","f","16.65100000000047","640","356","f","true","img/S_ambi40.png","三角","simultaneous",""
"","","","","","html-keyboard-response","306","669485","0.0-13.0-2.0-1.0-0.0-1.48","null","<span style='color:GreenYellow; font-size: 70px;'>正确! </span>","null","","","","","","","","","","","","","","","","","","","","","","","feedback_test"
"","","","","","psychophysics","307","671326","0.0-13.0-2.0-1.0-0.0-0.49","839","","f","","","","","","","","","","","","","key","f","16.682972222222748","640","356","f","true","img/C_ambi40.png","三角","simultaneous",""
"","","","","","html-keyboard-response","308","671643","0.0-13.0-2.0-1.0-0.0-1.49","null","<span style='color:GreenYellow; font-size: 70px;'>正确! </span>","null","","","","","","","","","","","","","","","","","","","","","","","feedback_test"
"","","","","","psychophysics","309","673459","0.0-13.0-2.0-1.0-0.0-0.50","806","","f","","","","","","","","","","","","","key","f","16.653289719626187","640","356","f","true","img/S_ambi40.png","圆形","simultaneous",""
"","","","","","html-keyboard-response","310","673769","0.0-13.0-2.0-1.0-0.0-1.50","null","<span style='color:GreenYellow; font-size: 70px;'>正确! </span>","null","","","","","","","","","","","","","","","","","","","","","","","feedback_test"
"","","","","","psychophysics","311","675540","0.0-13.0-2.0-1.0-0.0-0.51","763","","f","","","","","","","","","","","","","key","f","16.650361904761354","640","356","f","true","img/T_ambi40.png","圆形","simultaneous",""
"","","","","","html-keyboard-response","312","675863","0.0-13.0-2.0-1.0-0.0-1.51","null","<span style='color:GreenYellow; font-size: 70px;'>正确! </span>","null","","","","","","","","","","","","","","","","","","","","","","","feedback_test"
"","","","","","psychophysics","313","677672","0.0-13.0-2.0-1.0-0.0-0.52","806","","j","","","","","","","","","","","","","key","j","16.522532710280036","640","356","j","true","img/C_ambi40.png","圆形","simultaneous",""
"","","","","","html-keyboard-response","314","677988","0.0-13.0-2.0-1.0-0.0-1.52","null","<span style='color:GreenYellow; font-size: 70px;'>正确! </span>","null","","","","","","","","","","","","","","","","","","","","","","","feedback_test"
"","","","","","psychophysics","315","679721","0.0-13.0-2.0-1.0-0.0-0.53","725","","j","","","","","","","","","","","","","key","j","16.6535098039221","640","356","j","true","img/S_ambi40.png","方形","simultaneous",""
"","","","","","html-keyboard-response","316","680036","0.0-13.0-2.0-1.0-0.0-1.53","null","<span style='color:GreenYellow; font-size: 70px;'>正确! </span>","null","","","","","","","","","","","","","","","","","","","","","","","feedback_test"
"","","","","","psychophysics","317","681721","0.0-13.0-2.0-1.0-0.0-0.54","679","","j","","","","","","","","","","","","","key","j","16.651490000000923","640","356","j","true","img/C_ambi40.png","圆形","simultaneous",""
"","","","","","html-keyboard-response","318","682037","0.0-13.0-2.0-1.0-0.0-1.54","null","<span style='color:GreenYellow; font-size: 70px;'>正确! </span>","null","","","","","","","","","","","","","","","","","","","","","","","feedback_test"
"","","","","","psychophysics","319","683719","0.0-13.0-2.0-1.0-0.0-0.55","679","","j","","","","","","","","","","","","","key","j","16.653666666666552","640","356","j","true","img/T_ambi40.png","三角","simultaneous",""
"","","","","","html-keyboard-response","320","684035","0.0-13.0-2.0-1.0-0.0-1.55","null","<span style='color:GreenYellow; font-size: 70px;'>正确! </span>","null","","","","","","","","","","","","","","","","","","","","","","","feedback_test"
"","","","","","psychophysics","321","685731","0.0-13.0-2.0-1.0-0.0-0.56","676","","f","","","","","","","","","","","","","key","f","16.65288118811873","640","356","f","true","img/C_ambi40.png","方形","simultaneous",""
"","","","","","html-keyboard-response","322","686050","0.0-13.0-2.0-1.0-0.0-1.56","null","<span style='color:GreenYellow; font-size: 70px;'>正确! </span>","null","","","","","","","","","","","","","","","","","","","","","","","feedback_test"
"","","","","","psychophysics","323","687732","0.0-13.0-2.0-1.0-0.0-0.57","667","","j","","","","","","","","","","","","","key","j","16.653449999999722","640","356","j","true","img/T_ambi40.png","三角","simultaneous",""
"","","","","","html-keyboard-response","324","688045","0.0-13.0-2.0-1.0-0.0-1.57","null","<span style='color:GreenYellow; font-size: 70px;'>正确! </span>","null","","","","","","","","","","","","","","","","","","","","","","","feedback_test"
"","","","","","psychophysics","325","689682","0.0-13.0-2.0-1.0-0.0-0.58","634","","f","","","","","","","","","","","","","key","f","16.65092783505169","640","356","f","true","img/T_ambi40.png","方形","simultaneous",""
"","","","","","html-keyboard-response","326","689996","0.0-13.0-2.0-1.0-0.0-1.58","null","<span style='color:GreenYellow; font-size: 70px;'>正确! </span>","null","","","","","","","","","","","","","","","","","","","","","","","feedback_test"
"","","","","","psychophysics","327","691680","0.0-13.0-2.0-1.0-0.0-0.59","680","","j","","","","","","","","","","","","","key","j","16.65237373737336","640","356","j","true","img/S_ambi40.png","方形","simultaneous",""
"","","","","","html-keyboard-response","328","691991","0.0-13.0-2.0-1.0-0.0-1.59","null","<span style='color:GreenYellow; font-size: 70px;'>正确! </span>","null","","","","","","","","","","","","","","","","","","","","","","","feedback_test"
"","","","","","html-keyboard-response","329","695626","0.0-13.0-2.0-1.0-1.0","3633","<style>.context{color:white; font-size: 35px; line-height:40px}</style>                            <div><p class='context'>您正确回答了97% 的试次。</p><p class='context'>您的平均反应时为776毫秒。</p><p class='context'>请按任意键进入休息</p></div>","j","","","","","","","","","","","","","","","","","","","","","","",""
"","","","","","html-button-response","330","702202","0.0-13.0-2.0-1.0-2.0","6572","
                    <p>您当前还剩余3组实验</p>
                    <p>现在是休息时间，当您结束休息后，您可以点击 结束休息 按钮 继续</p>
                    <p>建议休息时间还剩余<span id=""iii"">60</span>秒</p>","0","","","","","","","","","","","","","","","","","","","","","","",""
"","","","","","psychophysics","331","704119","0.0-13.0-2.0-1.0-0.1-0.60","905","","j","","","","","","","","","","","","","key","j","16.652991150442997","640","356","j","true","img/T_ambi40.png","三角","simultaneous",""
"","","","","","html-keyboard-response","332","704431","0.0-13.0-2.0-1.0-0.1-1.60","null","<span style='color:GreenYellow; font-size: 70px;'>正确! </span>","null","","","","","","","","","","","","","","","","","","","","","","","feedback_test"
"","","","","","psychophysics","333","706464","0.0-13.0-2.0-1.0-0.1-0.61","1032","","f","","","","","","","","","","","","","key","f","16.65340495867797","640","356","f","true","img/T_ambi40.png","方形","simultaneous",""
"","","","","","html-keyboard-response","334","706774","0.0-13.0-2.0-1.0-0.1-1.61","null","<span style='color:GreenYellow; font-size: 70px;'>正确! </span>","null","","","","","","","","","","","","","","","","","","","","","","","feedback_test"
"","","","","","psychophysics","335","708511","0.0-13.0-2.0-1.0-0.1-0.62","734","","j","","","","","","","","","","","","","key","j","16.645676470588775","640","356","j","true","img/C_ambi40.png","圆形","simultaneous",""
"","","","","","html-keyboard-response","336","708819","0.0-13.0-2.0-1.0-0.1-1.62","null","<span style='color:GreenYellow; font-size: 70px;'>正确! </span>","null","","","","","","","","","","","","","","","","","","","","","","","feedback_test"
"","","","","","psychophysics","337","710477","0.0-13.0-2.0-1.0-0.1-0.63","654","","j","","","","","","","","","","","","","key","j","16.51697959183663","640","356","j","true","img/S_ambi40.png","方形","simultaneous",""
"","","","","","html-keyboard-response","338","710794","0.0-13.0-2.0-1.0-0.1-1.63","null","<span style='color:GreenYellow; font-size: 70px;'>正确! </span>","null","","","","","","","","","","","","","","","","","","","","","","","feedback_test"
"","","","","","psychophysics","339","712455","0.0-13.0-2.0-1.0-0.1-0.64","654","","f","","","","","","","","","","","","","key","f","16.653918367347263","640","356","f","true","img/C_ambi40.png","三角","simultaneous",""
"","","","","","html-keyboard-response","340","712768","0.0-13.0-2.0-1.0-0.1-1.64","null","<span style='color:GreenYellow; font-size: 70px;'>正确! </span>","null","","","","","","","","","","","","","","","","","","","","","","","feedback_test"
"","","","","","psychophysics","341","714581","0.0-13.0-2.0-1.0-0.1-0.65","811","","j","","","","","","","","","","","","","key","j","16.81061320754651","640","356","j","true","img/C_ambi40.png","圆形","simultaneous",""
"","","","","","html-keyboard-response","342","714904","0.0-13.0-2.0-1.0-0.1-1.65","null","<span style='color:GreenYellow; font-size: 70px;'>正确! </span>","null","","","","","","","","","","","","","","","","","","","","","","","feedback_test"
"","","","","","psychophysics","343","716618","0.0-13.0-2.0-1.0-0.1-0.66","706","","f","","","","","","","","","","","","","key","f","16.65115686274458","640","356","f","true","img/S_ambi40.png","圆形","simultaneous",""
"","","","","","html-keyboard-response","344","716929","0.0-13.0-2.0-1.0-0.1-1.66","null","<span style='color:GreenYellow; font-size: 70px;'>正确! </span>","null","","","","","","","","","","","","","","","","","","","","","","","feedback_test"
"","","","","","psychophysics","345","718522","0.0-13.0-2.0-1.0-0.1-0.67","587","","j","","","","","","","","","","","","","key","j","16.51412765957425","640","356","j","true","img/S_ambi40.png","方形","simultaneous",""
"","","","","","html-keyboard-response","346","718839","0.0-13.0-2.0-1.0-0.1-1.67","null","<span style='color:GreenYellow; font-size: 70px;'>正确! </span>","null","","","","","","","","","","","","","","","","","","","","","","","feedback_test"
"","","","","","psychophysics","347","720447","0.0-13.0-2.0-1.0-0.1-0.68","602","","j","","","","","","","","","","","","","key","j","16.651547368421024","640","356","j","true","img/T_ambi40.png","三角","simultaneous",""
"","","","","","html-keyboard-response","348","720759","0.0-13.0-2.0-1.0-0.1-1.68","null","<span style='color:GreenYellow; font-size: 70px;'>正确! </span>","null","","","","","","","","","","","","","","","","","","","","","","","feedback_test"
"","","","","","psychophysics","349","722514","0.0-13.0-2.0-1.0-0.1-0.69","752","","f","","","","","","","","","","","","","key","f","16.653432692308204","640","356","f","true","img/T_ambi40.png","圆形","simultaneous",""
"","","","","","html-keyboard-response","350","722838","0.0-13.0-2.0-1.0-0.1-1.69","null","<span style='color:GreenYellow; font-size: 70px;'>正确! </span>","null","","","","","","","","","","","","","","","","","","","","","","","feedback_test"
"","","","","","psychophysics","351","724617","0.0-13.0-2.0-1.0-0.1-0.70","775","","f","","","","","","","","","","","","","key","f","16.654396226415454","640","356","f","true","img/C_ambi40.png","方形","simultaneous",""
"","","","","","html-keyboard-response","352","724923","0.0-13.0-2.0-1.0-0.1-1.70","null","<span style='color:GreenYellow; font-size: 70px;'>正确! </span>","null","","","","","","","","","","","","","","","","","","","","","","","feedback_test"
"","","","","","psychophysics","353","726696","0.0-13.0-2.0-1.0-0.1-0.71","772","","f","","","","","","","","","","","","","key","f","16.6545754716982","640","356","f","true","img/S_ambi40.png","三角","simultaneous",""
"","","","","","html-keyboard-response","354","727011","0.0-13.0-2.0-1.0-0.1-1.71","null","<span style='color:GreenYellow; font-size: 70px;'>正确! </span>","null","","","","","","","","","","","","","","","","","","","","","","","feedback_test"
"","","","","","psychophysics","355","728666","0.0-13.0-2.0-1.0-0.1-0.72","650","","j","","","","","","","","","","","","","key","j","16.650714285714475","640","356","f","false","img/C_ambi40.png","三角","simultaneous",""
"","","","","","html-keyboard-response","356","728979","0.0-13.0-2.0-1.0-0.1-1.72","null","<span style='color:red; font-size: 70px;'>错误! </span>","null","","","","","","","","","","","","","","","","","","","","","","","feedback_test"
"","","","","","psychophysics","357","730655","0.0-13.0-2.0-1.0-0.1-0.73","670","","f","","","","","","","","","","","","","key","f","16.650676767676927","640","356","f","true","img/S_ambi40.png","三角","simultaneous",""
"","","","","","html-keyboard-response","358","730974","0.0-13.0-2.0-1.0-0.1-1.73","null","<span style='color:GreenYellow; font-size: 70px;'>正确! </span>","null","","","","","","","","","","","","","","","","","","","","","","","feedback_test"
"","","","","","psychophysics","359","732682","0.0-13.0-2.0-1.0-0.1-0.74","704","","f","","","","","","","","","","","","","key","f","16.652227722772277","640","356","f","true","img/T_ambi40.png","方形","simultaneous",""
"","","","","","html-keyboard-response","360","732989","0.0-13.0-2.0-1.0-0.1-1.74","null","<span style='color:GreenYellow; font-size: 70px;'>正确! </span>","null","","","","","","","","","","","","","","","","","","","","","","","feedback_test"
"","","","","","psychophysics","361","734625","0.0-13.0-2.0-1.0-0.1-0.75","632","","f","","","","","","","","","","","","","key","f","16.650989690721133","640","356","j","false","img/S_ambi40.png","方形","simultaneous",""
"","","","","","html-keyboard-response","362","734939","0.0-13.0-2.0-1.0-0.1-1.75","null","<span style='color:red; font-size: 70px;'>错误! </span>","null","","","","","","","","","","","","","","","","","","","","","","","feedback_test"
"","","","","","psychophysics","363","736836","0.0-13.0-2.0-1.0-0.1-0.76","891","","j","","","","","","","","","","","","","key","j","16.65034513274389","640","356","j","true","img/S_ambi40.png","方形","simultaneous",""
"","","","","","html-keyboard-response","364","737147","0.0-13.0-2.0-1.0-0.1-1.76","null","<span style='color:GreenYellow; font-size: 70px;'>正确! </span>","null","","","","","","","","","","","","","","","","","","","","","","","feedback_test"
"","","","","","psychophysics","365","738993","0.0-13.0-2.0-1.0-0.1-0.77","844","","f","","","","","","","","","","","","","key","f","16.529990825687808","640","356","f","true","img/T_ambi40.png","圆形","simultaneous",""
"","","","","","html-keyboard-response","366","739311","0.0-13.0-2.0-1.0-0.1-1.77","null","<span style='color:GreenYellow; font-size: 70px;'>正确! </span>","null","","","","","","","","","","","","","","","","","","","","","","","feedback_test"
"","","","","","psychophysics","367","740992","0.0-13.0-2.0-1.0-0.1-0.78","676","","f","","","","","","","","","","","","","key","f","16.65344444444436","640","356","f","true","img/C_ambi40.png","方形","simultaneous",""
"","","","","","html-keyboard-response","368","741294","0.0-13.0-2.0-1.0-0.1-1.78","null","<span style='color:GreenYellow; font-size: 70px;'>正确! </span>","null","","","","","","","","","","","","","","","","","","","","","","","feedback_test"
"","","","","","psychophysics","369","743124","0.0-13.0-2.0-1.0-0.1-0.79","828","","j","","","","","","","","","","","","","key","j","16.65270370370342","640","356","j","true","img/C_ambi40.png","圆形","simultaneous",""
"","","","","","html-keyboard-response","370","743438","0.0-13.0-2.0-1.0-0.1-1.79","null","<span style='color:GreenYellow; font-size: 70px;'>正确! </span>","null","","","","","","","","","","","","","","","","","","","","","","","feedback_test"
"","","","","","psychophysics","371","745266","0.0-13.0-2.0-1.0-0.1-0.80","824","","j","","","","","","","","","","","","","key","j","16.65314678899162","640","356","j","true","img/T_ambi40.png","三角","simultaneous",""
"","","","","","html-keyboard-response","372","745573","0.0-13.0-2.0-1.0-0.1-1.80","null","<span style='color:GreenYellow; font-size: 70px;'>正确! </span>","null","","","","","","","","","","","","","","","","","","","","","","","feedback_test"
"","","","","","psychophysics","373","747348","0.0-13.0-2.0-1.0-0.1-0.81","768","","f","","","","","","","","","","","","","key","f","16.51553333333383","640","356","f","true","img/S_ambi40.png","圆形","simultaneous",""
"","","","","","html-keyboard-response","374","747671","0.0-13.0-2.0-1.0-0.1-1.81","null","<span style='color:GreenYellow; font-size: 70px;'>正确! </span>","null","","","","","","","","","","","","","","","","","","","","","","","feedback_test"
"","","","","","psychophysics","375","749592","0.0-13.0-2.0-1.0-0.1-0.82","912","","j","","","","","","","","","","","","","key","j","16.528017699114763","640","356","j","true","img/T_ambi40.png","三角","simultaneous",""
"","","","","","html-keyboard-response","376","749913","0.0-13.0-2.0-1.0-0.1-1.82","null","<span style='color:GreenYellow; font-size: 70px;'>正确! </span>","null","","","","","","","","","","","","","","","","","","","","","","","feedback_test"
"","","","","","psychophysics","377","751655","0.0-13.0-2.0-1.0-0.1-0.83","724","","j","","","","","","","","","","","","","key","j","16.65293269230796","640","356","j","true","img/C_ambi40.png","圆形","simultaneous",""
"","","","","","html-keyboard-response","378","751962","0.0-13.0-2.0-1.0-0.1-1.83","null","<span style='color:GreenYellow; font-size: 70px;'>正确! </span>","null","","","","","","","","","","","","","","","","","","","","","","","feedback_test"
"","","","","","psychophysics","379","753595","0.0-13.0-2.0-1.0-0.1-0.84","627","","j","","","","","","","","","","","","","key","j","16.653855670103084","640","356","f","false","img/C_ambi40.png","三角","simultaneous",""
"","","","","","html-keyboard-response","380","753917","0.0-13.0-2.0-1.0-0.1-1.84","null","<span style='color:red; font-size: 70px;'>错误! </span>","null","","","","","","","","","","","","","","","","","","","","","","","feedback_test"
"","","","","","psychophysics","381","755546","0.0-13.0-2.0-1.0-0.1-0.85","623","","j","","","","","","","","","","","","","key","j","16.65293750000031","640","356","j","true","img/C_ambi40.png","圆形","simultaneous",""
"","","","","","html-keyboard-response","382","755856","0.0-13.0-2.0-1.0-0.1-1.85","null","<span style='color:GreenYellow; font-size: 70px;'>正确! </span>","null","","","","","","","","","","","","","","","","","","","","","","","feedback_test"
"","","","","","psychophysics","383","757480","0.0-13.0-2.0-1.0-0.1-0.86","615","","f","","","","","","","","","","","","","key","f","16.648593750000146","640","356","f","true","img/S_ambi40.png","三角","simultaneous",""
"","","","","","html-keyboard-response","384","757796","0.0-13.0-2.0-1.0-0.1-1.86","null","<span style='color:GreenYellow; font-size: 70px;'>正确! </span>","null","","","","","","","","","","","","","","","","","","","","","","","feedback_test"
"","","","","","psychophysics","385","759566","0.0-13.0-2.0-1.0-0.1-0.87","765","","j","","","","","","","","","","","","","key","j","16.537904761904585","640","356","j","true","img/C_ambi40.png","圆形","simultaneous",""
"","","","","","html-keyboard-response","386","759887","0.0-13.0-2.0-1.0-0.1-1.87","null","<span style='color:GreenYellow; font-size: 70px;'>正确! </span>","null","","","","","","","","","","","","","","","","","","","","","","","feedback_test"
"","","","","","psychophysics","387","761667","0.0-13.0-2.0-1.0-0.1-0.88","777","","j","","","","","","","","","","","","","key","j","16.652481132076026","640","356","j","true","img/T_ambi40.png","三角","simultaneous",""
"","","","","","html-keyboard-response","388","761990","0.0-13.0-2.0-1.0-0.1-1.88","null","<span style='color:GreenYellow; font-size: 70px;'>正确! </span>","null","","","","","","","","","","","","","","","","","","","","","","","feedback_test"
"","","","","","psychophysics","389","763709","0.0-13.0-2.0-1.0-0.1-0.89","716","","f","","","","","","","","","","","","","key","f","16.657705882353042","640","356","f","true","img/S_ambi40.png","圆形","simultaneous",""
"","","","","","html-keyboard-response","390","764028","0.0-13.0-2.0-1.0-0.1-1.89","null","<span style='color:GreenYellow; font-size: 70px;'>正确! </span>","null","","","","","","","","","","","","","","","","","","","","","","","feedback_test"
"","","","","","psychophysics","391","765652","0.0-13.0-2.0-1.0-0.1-0.90","619","","j","","","","","","","","","","","","","key","j","16.647708333332655","640","356","j","true","img/S_ambi40.png","方形","simultaneous",""
"","","","","","html-keyboard-response","392","765962","0.0-13.0-2.0-1.0-0.1-1.90","null","<span style='color:GreenYellow; font-size: 70px;'>正确! </span>","null","","","","","","","","","","","","","","","","","","","","","","","feedback_test"
"","","","","","psychophysics","393","767617","0.0-13.0-2.0-1.0-0.1-0.91","648","","f","","","","","","","","","","","","","key","f","16.649785714285752","640","356","f","true","img/T_ambi40.png","方形","simultaneous",""
"","","","","","html-keyboard-response","394","767921","0.0-13.0-2.0-1.0-0.1-1.91","null","<span style='color:GreenYellow; font-size: 70px;'>正确! </span>","null","","","","","","","","","","","","","","","","","","","","","","","feedback_test"
"","","","","","psychophysics","395","769625","0.0-13.0-2.0-1.0-0.1-0.92","699","","f","","","","","","","","","","","","","key","f","16.509534653465234","640","356","f","true","img/C_ambi40.png","方形","simultaneous",""
"","","","","","html-keyboard-response","396","769943","0.0-13.0-2.0-1.0-0.1-1.92","null","<span style='color:GreenYellow; font-size: 70px;'>正确! </span>","null","","","","","","","","","","","","","","","","","","","","","","","feedback_test"
"","","","","","psychophysics","397","771619","0.0-13.0-2.0-1.0-0.1-0.93","674","","f","","","","","","","","","","","","","key","f","16.649939393939807","640","356","f","true","img/T_ambi40.png","圆形","simultaneous",""
"","","","","","html-keyboard-response","398","771930","0.0-13.0-2.0-1.0-0.1-1.93","null","<span style='color:GreenYellow; font-size: 70px;'>正确! </span>","null","","","","","","","","","","","","","","","","","","","","","","","feedback_test"
"","","","","","psychophysics","399","773705","0.0-13.0-2.0-1.0-0.1-0.94","769","","j","","","","","","","","","","","","","key","j","16.652509433961967","640","356","j","true","img/S_ambi40.png","方形","simultaneous",""
"","","","","","html-keyboard-response","400","774028","0.0-13.0-2.0-1.0-0.1-1.94","null","<span style='color:GreenYellow; font-size: 70px;'>正确! </span>","null","","","","","","","","","","","","","","","","","","","","","","","feedback_test"
"","","","","","psychophysics","401","775764","0.0-13.0-2.0-1.0-0.1-0.95","730","","j","","","","","","","","","","","","","key","j","16.654087378641194","640","356","j","true","img/T_ambi40.png","三角","simultaneous",""
"","","","","","html-keyboard-response","402","776079","0.0-13.0-2.0-1.0-0.1-1.95","null","<span style='color:GreenYellow; font-size: 70px;'>正确! </span>","null","","","","","","","","","","","","","","","","","","","","","","","feedback_test"
"","","","","","psychophysics","403","777745","0.0-13.0-2.0-1.0-0.1-0.96","664","","j","","","","","","","","","","","","","key","j","16.65343434343378","640","356","j","true","img/T_ambi40.png","三角","simultaneous",""
"","","","","","html-keyboard-response","404","778059","0.0-13.0-2.0-1.0-0.1-1.96","null","<span style='color:GreenYellow; font-size: 70px;'>正确! </span>","null","","","","","","","","","","","","","","","","","","","","","","","feedback_test"
"","","","","","psychophysics","405","779727","0.0-13.0-2.0-1.0-0.1-0.97","664","","f","","","","","","","","","","","","","key","f","16.653222222222166","640","356","f","true","img/T_ambi40.png","方形","simultaneous",""
"","","","","","html-keyboard-response","406","780033","0.0-13.0-2.0-1.0-0.1-1.97","null","<span style='color:GreenYellow; font-size: 70px;'>正确! </span>","null","","","","","","","","","","","","","","","","","","","","","","","feedback_test"
"","","","","","psychophysics","407","781789","0.0-13.0-2.0-1.0-0.1-0.98","748","","f","","","","","","","","","","","","","key","f","16.650894230768944","640","356","f","true","img/S_ambi40.png","圆形","simultaneous",""
"","","","","","html-keyboard-response","408","782109","0.0-13.0-2.0-1.0-0.1-1.98","null","<span style='color:GreenYellow; font-size: 70px;'>正确! </span>","null","","","","","","","","","","","","","","","","","","","","","","","feedback_test"
"","","","","","psychophysics","409","783829","0.0-13.0-2.0-1.0-0.1-0.99","712","","j","","","","","","","","","","","","","key","j","16.65452941176459","640","356","j","true","img/C_ambi40.png","圆形","simultaneous",""
"","","","","","html-keyboard-response","410","784148","0.0-13.0-2.0-1.0-0.1-1.99","null","<span style='color:GreenYellow; font-size: 70px;'>正确! </span>","null","","","","","","","","","","","","","","","","","","","","","","","feedback_test"
"","","","","","psychophysics","411","785854","0.0-13.0-2.0-1.0-0.1-0.100","701","","f","","","","","","","","","","","","","key","f","16.650495049505643","640","356","f","true","img/C_ambi40.png","方形","simultaneous",""
"","","","","","html-keyboard-response","412","786161","0.0-13.0-2.0-1.0-0.1-1.100","null","<span style='color:GreenYellow; font-size: 70px;'>正确! </span>","null","","","","","","","","","","","","","","","","","","","","","","","feedback_test"
"","","","","","psychophysics","413","787857","0.0-13.0-2.0-1.0-0.1-0.101","687","","f","","","","","","","","","","","","","key","f","16.65228000000003","640","356","f","true","img/S_ambi40.png","三角","simultaneous",""
"","","","","","html-keyboard-response","414","788163","0.0-13.0-2.0-1.0-0.1-1.101","null","<span style='color:GreenYellow; font-size: 70px;'>正确! </span>","null","","","","","","","","","","","","","","","","","","","","","","","feedback_test"
"","","","","","psychophysics","415","789870","0.0-13.0-2.0-1.0-0.1-0.102","701","","j","","","","","","","","","","","","","key","j","16.653118811880866","640","356","j","true","img/S_ambi40.png","方形","simultaneous",""
"","","","","","html-keyboard-response","416","790188","0.0-13.0-2.0-1.0-0.1-1.102","null","<span style='color:GreenYellow; font-size: 70px;'>正确! </span>","null","","","","","","","","","","","","","","","","","","","","","","","feedback_test"
"","","","","","psychophysics","417","791925","0.0-13.0-2.0-1.0-0.1-0.103","724","","j","","","","","","","","","","","","","key","j","16.654264705882216","640","356","j","true","img/T_ambi40.png","三角","simultaneous",""
"","","","","","html-keyboard-response","418","792243","0.0-13.0-2.0-1.0-0.1-1.103","null","<span style='color:GreenYellow; font-size: 70px;'>正确! </span>","null","","","","","","","","","","","","","","","","","","","","","","","feedback_test"
"","","","","","psychophysics","419","793903","0.0-13.0-2.0-1.0-0.1-0.104","653","","j","","","","","","","","","","","","","key","j","16.65478571428566","640","356","j","true","img/S_ambi40.png","方形","simultaneous",""
"","","","","","html-keyboard-response","420","794223","0.0-13.0-2.0-1.0-0.1-1.104","null","<span style='color:GreenYellow; font-size: 70px;'>正确! </span>","null","","","","","","","","","","","","","","","","","","","","","","","feedback_test"
"","","","","","psychophysics","421","795855","0.0-13.0-2.0-1.0-0.1-0.105","621","","f","","","","","","","","","","","","","key","f","16.65019587628884","640","356","f","true","img/T_ambi40.png","圆形","simultaneous",""
"","","","","","html-keyboard-response","422","796175","0.0-13.0-2.0-1.0-0.1-1.105","null","<span style='color:GreenYellow; font-size: 70px;'>正确! </span>","null","","","","","","","","","","","","","","","","","","","","","","","feedback_test"
"","","","","","psychophysics","423","797926","0.0-13.0-2.0-1.0-0.1-0.106","744","","f","","","","","","","","","","","","","key","f","16.653230769230642","640","356","f","true","img/C_ambi40.png","三角","simultaneous",""
"","","","","","html-keyboard-response","424","798256","0.0-13.0-2.0-1.0-0.1-1.106","null","<span style='color:GreenYellow; font-size: 70px;'>正确! </span>","null","","","","","","","","","","","","","","","","","","","","","","","feedback_test"
"","","","","","psychophysics","425","799915","0.0-13.0-2.0-1.0-0.1-0.107","651","","j","","","","","","","","","","","","","key","j","16.653122448980124","640","356","j","true","img/C_ambi40.png","圆形","simultaneous",""
"","","","","","html-keyboard-response","426","800226","0.0-13.0-2.0-1.0-0.1-1.107","null","<span style='color:GreenYellow; font-size: 70px;'>正确! </span>","null","","","","","","","","","","","","","","","","","","","","","","","feedback_test"
"","","","","","psychophysics","427","801787","0.0-13.0-2.0-1.0-0.1-0.108","558","","j","","","","","","","","","","","","","key","j","16.653387096774345","640","356","j","true","img/S_ambi40.png","方形","simultaneous",""
"","","","","","html-keyboard-response","428","802103","0.0-13.0-2.0-1.0-0.1-1.108","null","<span style='color:GreenYellow; font-size: 70px;'>正确! </span>","null","","","","","","","","","","","","","","","","","","","","","","","feedback_test"
"","","","","","psychophysics","429","803621","0.0-13.0-2.0-1.0-0.1-0.109","516","","f","","","","","","","","","","","","","key","f","16.651622222222958","640","356","f","true","img/C_ambi40.png","三角","simultaneous",""
"","","","","","html-keyboard-response","430","803938","0.0-13.0-2.0-1.0-0.1-1.109","null","<span style='color:GreenYellow; font-size: 70px;'>正确! </span>","null","","","","","","","","","","","","","","","","","","","","","","","feedback_test"
"","","","","","psychophysics","431","805545","0.0-13.0-2.0-1.0-0.1-0.110","602","","j","","","","","","","","","","","","","key","j","16.65182291666618","640","356","f","false","img/T_ambi40.png","方形","simultaneous",""
