"success","timeout","failed_images","failed_audio","failed_video","trial_type","trial_index","time_elapsed","internal_node_id","rt","stimulus","response","value","item_width_mm","item_height_mm","item_width_px","px2mm","view_dist_mm","item_width_deg","px2deg","scale_factor","win_width_deg","win_height_deg","view_history","response_type","key_press","avg_frame_time","center_x","center_y","correct_response","correct","Image","word","condition","screen_id"
"true","false","[]","[]","[]","preload","0","572","0.0-0.0","","","","","","","","","","","","","","","","","","","","","","","","","",""
"","","","","","html-keyboard-response","1","18448","0.0-1.0","17876","
   <p>您好，欢迎参加本次实验。</p>
   <p>为充分保障您的权利，请确保您已经知晓并同意《参与实验同意书》以及《数据公开知情同意书》。</p>
   <p>如果您未见过上述内容，请咨询实验员。</p>
   <p>如果您选择继续实验，则表示您已经清楚两份知情同意书的内容并同意。</p>
   <p> <div style = ""color: green""><按任意键至下页></div> </p>
   ","h","","","","","","","","","","","","","","","","","","","","","","",""
"","","","","","html-keyboard-response","2","20848","0.0-2.0","2399","
   <p>本实验首先需要您填写一些基本个人信息。</p>
   <p> <div style = ""color: green""><按任意键至下页></div></p>
   ","h","","","","","","","","","","","","","","","","","","","","","","",""
"","","","","","call-function","3","20849","0.0-3.0-0.0","","","","","","","","","","","","","","","","","","","","","","","","","",""
"","","","","","survey-html-form","4","27431","0.0-3.0-1.0","6580","","{""Q0"":""30""}","","","","","","","","","","","","","","","","","","","","","","",""
"","","","","","html-button-response","5","30669","0.0-3.0-2.0","3235","<p style = 'color : white'>您的性别</p>","1","","","","","","","","","","","","","","","","","","","","","","",""
"","","","","","survey-html-form","6","42952","0.0-3.0-3.0","12282","","{""Q0"":""2004""}","","","","","","","","","","","","","","","","","","","","","","",""
"","","","","","survey-html-form","7","47096","0.0-3.0-4.0","4143","","{""Q0"":""5""}","","","","","","","","","","","","","","","","","","","","","","",""
"","","","","","virtual-chinrest","8","233459","0.0-4.0","186361","","","","85.6","53.98","437.8091951839397","5.111850379521978","559.03","8.756183903678796","50","0.817707814130288","24.66","12.02","","","","","","","","","","","",""
"true","","","","","fullscreen","9","240511","0.0-5.0","","","","","","","","","","","","","","","","","","","","","","","","","",""
"","","","","","instructions","10","287991","0.0-6.0","47480","","","","","","","","","","","","","","[{""page_index"":0,""viewing_time"":4076},{""page_index"":1,""viewing_time"":23794},{""page_index"":2,""viewing_time"":16052},{""page_index"":3,""viewing_time"":3557}]","","","","","","","","","","",""
"","","","","","psychophysics","11","290652","0.0-7.0-0.0-0.0","null","","null","","","","","","","","","","","","","key","null","16.655987421383806","640","356","f","false","img/T_ambi40.png","三角","prac_image_first",""
"","","","","","html-keyboard-response","12","290974","0.0-7.0-0.0-1.0","null","<span class='add_' style='color:yellow; font-size: 70px;'> 太慢! </span>","null","","","","","","","","","","","","","","","","","","","","","","","feedback_test"
"","","","","","psychophysics","13","292319","0.0-7.0-0.0-0.1","191","","f","","","","","","","","","","","","","key","f","16.655162500000007","640","356","f","true","img/S_ambi40.png","方形","prac_image_first",""
"","","","","","html-keyboard-response","14","292625","0.0-7.0-0.0-1.1","null","<span style='color:yellow; font-size: 70px;'>过快! </span>","null","","","","","","","","","","","","","","","","","","","","","","","feedback_test"
"","","","","","psychophysics","15","295280","0.0-7.0-0.0-0.2","null","","null","","","","","","","","","","","","","key","null","16.650436708860944","640","356","j","false","img/C_ambi40.png","方形","prac_image_first",""
"","","","","","html-keyboard-response","16","295586","0.0-7.0-0.0-1.2","null","<span class='add_' style='color:yellow; font-size: 70px;'> 太慢! </span>","null","","","","","","","","","","","","","","","","","","","","","","","feedback_test"
"","","","","","psychophysics","17","297453","0.0-7.0-0.0-0.3","709","","f","","","","","","","","","","","","","key","f","16.65149549549542","640","356","j","false","img/T_ambi40.png","圆形","prac_image_first",""
"","","","","","html-keyboard-response","18","297767","0.0-7.0-0.0-1.3","null","<span style='color:red; font-size: 70px;'>错误! </span>","null","","","","","","","","","","","","","","","","","","","","","","","feedback_test"
"","","","","","psychophysics","19","299663","0.0-7.0-0.0-0.4","741","","f","","","","","","","","","","","","","key","f","16.651902654867072","640","356","f","true","img/T_ambi40.png","三角","prac_image_first",""
"","","","","","html-keyboard-response","20","299969","0.0-7.0-0.0-1.4","null","<span style='color:GreenYellow; font-size: 70px;'>正确! </span>","null","","","","","","","","","","","","","","","","","","","","","","","feedback_test"
"","","","","","psychophysics","21","301615","0.0-7.0-0.0-0.5","494","","j","","","","","","","","","","","","","key","j","16.64840816326525","640","356","f","false","img/C_ambi40.png","圆形","prac_image_first",""
"","","","","","html-keyboard-response","22","301931","0.0-7.0-0.0-1.5","null","<span style='color:red; font-size: 70px;'>错误! </span>","null","","","","","","","","","","","","","","","","","","","","","","","feedback_test"
"","","","","","psychophysics","23","303889","0.0-7.0-0.0-0.6","802","","j","","","","","","","","","","","","","key","j","16.652301724138066","640","356","j","true","img/S_ambi40.png","三角","prac_image_first",""
"","","","","","html-keyboard-response","24","304202","0.0-7.0-0.0-1.6","null","<span style='color:GreenYellow; font-size: 70px;'>正确! </span>","null","","","","","","","","","","","","","","","","","","","","","","","feedback_test"
"","","","","","psychophysics","25","306058","0.0-7.0-0.0-0.7","701","","j","","","","","","","","","","","","","key","j","16.653477477477676","640","356","j","true","img/T_ambi40.png","方形","prac_image_first",""
"","","","","","html-keyboard-response","26","306362","0.0-7.0-0.0-1.7","null","<span style='color:GreenYellow; font-size: 70px;'>正确! </span>","null","","","","","","","","","","","","","","","","","","","","","","","feedback_test"
"","","","","","psychophysics","27","308051","0.0-7.0-0.0-0.8","536","","j","","","","","","","","","","","","","key","j","16.6546100000001","640","356","j","true","img/C_ambi40.png","三角","prac_image_first",""
"","","","","","html-keyboard-response","28","308362","0.0-7.0-0.0-1.8","null","<span style='color:GreenYellow; font-size: 70px;'>正确! </span>","null","","","","","","","","","","","","","","","","","","","","","","","feedback_test"
"","","","","","psychophysics","29","310032","0.0-7.0-0.0-0.9","517","","f","","","","","","","","","","","","","key","f","16.64911111111099","640","356","f","true","img/S_ambi40.png","方形","prac_image_first",""
"","","","","","html-keyboard-response","30","310336","0.0-7.0-0.0-1.9","null","<span style='color:GreenYellow; font-size: 70px;'>正确! </span>","null","","","","","","","","","","","","","","","","","","","","","","","feedback_test"
"","","","","","psychophysics","31","312087","0.0-7.0-0.0-0.10","588","","j","","","","","","","","","","","","","key","j","16.654048076923154","640","356","f","false","img/C_ambi40.png","圆形","prac_image_first",""
"","","","","","html-keyboard-response","32","312397","0.0-7.0-0.0-1.10","null","<span style='color:red; font-size: 70px;'>错误! </span>","null","","","","","","","","","","","","","","","","","","","","","","","feedback_test"
"","","","","","psychophysics","33","314361","0.0-7.0-0.0-0.11","814","","j","","","","","","","","","","","","","key","j","16.652504273504217","640","356","j","true","img/S_ambi40.png","圆形","prac_image_first",""
"","","","","","html-keyboard-response","34","314669","0.0-7.0-0.0-1.11","null","<span style='color:GreenYellow; font-size: 70px;'>正确! </span>","null","","","","","","","","","","","","","","","","","","","","","","","feedback_test"
"","","","","","psychophysics","35","316479","0.0-7.0-0.0-0.12","656","","j","","","","","","","","","","","","","key","j","16.658084112149336","640","356","j","true","img/T_ambi40.png","方形","prac_image_first",""
"","","","","","html-keyboard-response","36","316786","0.0-7.0-0.0-1.12","null","<span style='color:GreenYellow; font-size: 70px;'>正确! </span>","null","","","","","","","","","","","","","","","","","","","","","","","feedback_test"
"","","","","","psychophysics","37","318541","0.0-7.0-0.0-0.13","598","","j","","","","","","","","","","","","","key","j","16.649288461538582","640","356","j","true","img/C_ambi40.png","三角","prac_image_first",""
"","","","","","html-keyboard-response","38","318851","0.0-7.0-0.0-1.13","null","<span style='color:GreenYellow; font-size: 70px;'>正确! </span>","null","","","","","","","","","","","","","","","","","","","","","","","feedback_test"
"","","","","","psychophysics","39","320656","0.0-7.0-0.0-0.14","649","","j","","","","","","","","","","","","","key","j","16.65005607476619","640","356","j","true","img/S_ambi40.png","圆形","prac_image_first",""
"","","","","","html-keyboard-response","40","320970","0.0-7.0-0.0-1.14","null","<span style='color:GreenYellow; font-size: 70px;'>正确! </span>","null","","","","","","","","","","","","","","","","","","","","","","","feedback_test"
"","","","","","psychophysics","41","322764","0.0-7.0-0.0-0.15","636","","f","","","","","","","","","","","","","key","f","16.652710280373526","640","356","f","true","img/C_ambi40.png","圆形","prac_image_first",""
"","","","","","html-keyboard-response","42","323077","0.0-7.0-0.0-1.15","null","<span style='color:GreenYellow; font-size: 70px;'>正确! </span>","null","","","","","","","","","","","","","","","","","","","","","","","feedback_test"
"","","","","","psychophysics","43","324865","0.0-7.0-0.0-0.16","628","","f","","","","","","","","","","","","","key","f","16.655811320754747","640","356","f","true","img/C_ambi40.png","圆形","prac_image_first",""
"","","","","","html-keyboard-response","44","325179","0.0-7.0-0.0-1.16","null","<span style='color:GreenYellow; font-size: 70px;'>正确! </span>","null","","","","","","","","","","","","","","","","","","","","","","","feedback_test"
"","","","","","psychophysics","45","326960","0.0-7.0-0.0-0.17","623","","j","","","","","","","","","","","","","key","j","16.65636792452841","640","356","j","true","img/T_ambi40.png","圆形","prac_image_first",""
"","","","","","html-keyboard-response","46","327263","0.0-7.0-0.0-1.17","null","<span style='color:GreenYellow; font-size: 70px;'>正确! </span>","null","","","","","","","","","","","","","","","","","","","","","","","feedback_test"
"","","","","","psychophysics","47","329440","0.0-7.0-0.0-0.18","1020","","f","","","","","","","","","","","","","key","f","16.653346153846137","640","356","f","true","img/S_ambi40.png","方形","prac_image_first",""
"","","","","","html-keyboard-response","48","329742","0.0-7.0-0.0-1.18","null","<span style='color:GreenYellow; font-size: 70px;'>正确! </span>","null","","","","","","","","","","","","","","","","","","","","","","","feedback_test"
"","","","","","psychophysics","49","331696","0.0-7.0-0.0-0.19","800","","j","","","","","","","","","","","","","key","j","16.647870689655097","640","356","j","true","img/C_ambi40.png","方形","prac_image_first",""
"","","","","","html-keyboard-response","50","332010","0.0-7.0-0.0-1.19","null","<span style='color:GreenYellow; font-size: 70px;'>正确! </span>","null","","","","","","","","","","","","","","","","","","","","","","","feedback_test"
"","","","","","psychophysics","51","334116","0.0-7.0-0.0-0.20","950","","f","","","","","","","","","","","","","key","f","16.65405600000033","640","356","f","true","img/S_ambi40.png","方形","prac_image_first",""
"","","","","","html-keyboard-response","52","334427","0.0-7.0-0.0-1.20","null","<span style='color:GreenYellow; font-size: 70px;'>正确! </span>","null","","","","","","","","","","","","","","","","","","","","","","","feedback_test"
"","","","","","psychophysics","53","336336","0.0-7.0-0.0-0.21","755","","f","","","","","","","","","","","","","key","f","16.657526315789333","640","356","f","true","img/T_ambi40.png","三角","prac_image_first",""
"","","","","","html-keyboard-response","54","336654","0.0-7.0-0.0-1.21","null","<span style='color:GreenYellow; font-size: 70px;'>正确! </span>","null","","","","","","","","","","","","","","","","","","","","","","","feedback_test"
"","","","","","psychophysics","55","338634","0.0-7.0-0.0-0.22","826","","j","","","","","","","","","","","","","key","j","16.630872881356172","640","356","j","true","img/S_ambi40.png","三角","prac_image_first",""
"","","","","","html-keyboard-response","56","338936","0.0-7.0-0.0-1.22","null","<span style='color:GreenYellow; font-size: 70px;'>正确! </span>","null","","","","","","","","","","","","","","","","","","","","","","","feedback_test"
"","","","","","psychophysics","57","341120","0.0-7.0-0.0-0.23","1026","","f","","","","","","","","","","","","","key","f","16.65437692307706","640","356","f","true","img/T_ambi40.png","三角","prac_image_first",""
"","","","","","html-keyboard-response","58","341425","0.0-7.0-0.0-1.23","null","<span style='color:GreenYellow; font-size: 70px;'>正确! </span>","null","","","","","","","","","","","","","","","","","","","","","","","feedback_test"
"","","","","","html-keyboard-response","59","345659","0.0-8.0","4229","<style>.context{color:white; font-size: 35px; line-height:40px}</style>                            <div><p class='context'>您正确回答了79% 的试次。</p><p class='context'>您的平均反应时为709毫秒。</p><p class='context'>恭喜您完成这一阶段的练习。按任意键进入<span style='color: yellow;'>先文字后图形条件</span>的练习。</p></div>"," ","","","","","","","","","","","","","","","","","","","","","","",""
"","","","","","psychophysics","60","347472","0.0-9.0-0.0-0.0","653","","j","","","","","","","","","","","","","key","j","16.653259259259492","640","356","j","true","img/C_ambi40.png","三角","prac_word_first",""
"","","","","","html-keyboard-response","61","347781","0.0-9.0-0.0-1.0","null","<span style='color:GreenYellow; font-size: 70px;'>正确! </span>","null","","","","","","","","","","","","","","","","","","","","","","","feedback_test"
"","","","","","psychophysics","62","349558","0.0-9.0-0.0-0.1","622","","f","","","","","","","","","","","","","key","f","16.643179245282706","640","356","f","true","img/S_ambi40.png","方形","prac_word_first",""
"","","","","","html-keyboard-response","63","349875","0.0-9.0-0.0-1.1","null","<span style='color:GreenYellow; font-size: 70px;'>正确! </span>","null","","","","","","","","","","","","","","","","","","","","","","","feedback_test"
"","","","","","psychophysics","64","351839","0.0-9.0-0.0-0.2","812","","f","","","","","","","","","","","","","key","f","16.651341880341835","640","356","f","true","img/T_ambi40.png","三角","prac_word_first",""
"","","","","","html-keyboard-response","65","352145","0.0-9.0-0.0-1.2","null","<span style='color:GreenYellow; font-size: 70px;'>正确! </span>","null","","","","","","","","","","","","","","","","","","","","","","","feedback_test"
"","","","","","psychophysics","66","353845","0.0-9.0-0.0-0.3","545","","j","","","","","","","","","","","","","key","j","16.65626732673263","640","356","j","true","img/T_ambi40.png","方形","prac_word_first",""
"","","","","","html-keyboard-response","67","354150","0.0-9.0-0.0-1.3","null","<span style='color:GreenYellow; font-size: 70px;'>正确! </span>","null","","","","","","","","","","","","","","","","","","","","","","","feedback_test"
"","","","","","psychophysics","68","355863","0.0-9.0-0.0-0.4","552","","j","","","","","","","","","","","","","key","j","16.650316831682886","640","356","f","false","img/T_ambi40.png","三角","prac_word_first",""
"","","","","","html-keyboard-response","69","356179","0.0-9.0-0.0-1.4","null","<span style='color:red; font-size: 70px;'>错误! </span>","null","","","","","","","","","","","","","","","","","","","","","","","feedback_test"
"","","","","","psychophysics","70","358036","0.0-9.0-0.0-0.5","706","","j","","","","","","","","","","","","","key","j","16.520472727272534","640","356","j","true","img/S_ambi40.png","三角","prac_word_first",""
"","","","","","html-keyboard-response","71","358349","0.0-9.0-0.0-1.5","null","<span style='color:GreenYellow; font-size: 70px;'>正确! </span>","null","","","","","","","","","","","","","","","","","","","","","","","feedback_test"
"","","","","","psychophysics","72","360154","0.0-9.0-0.0-0.6","644","","j","","","","","","","","","","","","","key","j","16.65097196261664","640","356","j","true","img/C_ambi40.png","方形","prac_word_first",""
"","","","","","html-keyboard-response","73","360467","0.0-9.0-0.0-1.6","null","<span style='color:GreenYellow; font-size: 70px;'>正确! </span>","null","","","","","","","","","","","","","","","","","","","","","","","feedback_test"
"","","","","","psychophysics","74","362195","0.0-9.0-0.0-0.7","570","","f","","","","","","","","","","","","","key","f","16.653961165048052","640","356","f","true","img/S_ambi40.png","方形","prac_word_first",""
"","","","","","html-keyboard-response","75","362497","0.0-9.0-0.0-1.7","null","<span style='color:GreenYellow; font-size: 70px;'>正确! </span>","null","","","","","","","","","","","","","","","","","","","","","","","feedback_test"
"","","","","","psychophysics","76","364464","0.0-9.0-0.0-0.8","813","","j","","","","","","","","","","","","","key","j","16.655435897435787","640","356","j","true","img/S_ambi40.png","圆形","prac_word_first",""
"","","","","","html-keyboard-response","77","364765","0.0-9.0-0.0-1.8","null","<span style='color:GreenYellow; font-size: 70px;'>正确! </span>","null","","","","","","","","","","","","","","","","","","","","","","","feedback_test"
"","","","","","psychophysics","78","366488","0.0-9.0-0.0-0.9","571","","j","","","","","","","","","","","","","key","j","16.65344117647071","640","356","j","true","img/T_ambi40.png","圆形","prac_word_first",""
"","","","","","html-keyboard-response","79","366799","0.0-9.0-0.0-1.9","null","<span style='color:GreenYellow; font-size: 70px;'>正确! </span>","null","","","","","","","","","","","","","","","","","","","","","","","feedback_test"
"","","","","","psychophysics","80","368443","0.0-9.0-0.0-0.10","490","","f","","","","","","","","","","","","","key","f","16.654000000000043","640","356","f","true","img/C_ambi40.png","圆形","prac_word_first",""
"","","","","","html-keyboard-response","81","368745","0.0-9.0-0.0-1.10","null","<span style='color:GreenYellow; font-size: 70px;'>正确! </span>","null","","","","","","","","","","","","","","","","","","","","","","","feedback_test"
"","","","","","psychophysics","82","370405","0.0-9.0-0.0-0.11","508","","f","","","","","","","","","","","","","key","f","16.64602020202026","640","356","f","true","img/C_ambi40.png","圆形","prac_word_first",""
"","","","","","html-keyboard-response","83","370711","0.0-9.0-0.0-1.11","null","<span style='color:GreenYellow; font-size: 70px;'>正确! </span>","null","","","","","","","","","","","","","","","","","","","","","","","feedback_test"
"","","","","","psychophysics","84","372322","0.0-9.0-0.0-0.12","457","","f","","","","","","","","","","","","","key","f","16.656708333333274","640","356","f","true","img/C_ambi40.png","圆形","prac_word_first",""
"","","","","","html-keyboard-response","85","372638","0.0-9.0-0.0-1.12","null","<span style='color:GreenYellow; font-size: 70px;'>正确! </span>","null","","","","","","","","","","","","","","","","","","","","","","","feedback_test"
"","","","","","psychophysics","86","374300","0.0-9.0-0.0-0.13","506","","f","","","","","","","","","","","","","key","f","16.654707070706987","640","356","f","true","img/T_ambi40.png","三角","prac_word_first",""
"","","","","","html-keyboard-response","87","374617","0.0-9.0-0.0-1.13","null","<span style='color:GreenYellow; font-size: 70px;'>正确! </span>","null","","","","","","","","","","","","","","","","","","","","","","","feedback_test"
"","","","","","psychophysics","88","376467","0.0-9.0-0.0-0.14","691","","f","","","","","","","","","","","","","key","f","16.651572727272818","640","356","f","true","img/T_ambi40.png","三角","prac_word_first",""
"","","","","","html-keyboard-response","89","376777","0.0-9.0-0.0-1.14","null","<span style='color:GreenYellow; font-size: 70px;'>正确! </span>","null","","","","","","","","","","","","","","","","","","","","","","","feedback_test"
"","","","","","psychophysics","90","378416","0.0-9.0-0.0-0.15","487","","f","","","","","","","","","","","","","key","f","16.653795918367795","640","356","f","true","img/S_ambi40.png","方形","prac_word_first",""
"","","","","","html-keyboard-response","91","378729","0.0-9.0-0.0-1.15","null","<span style='color:GreenYellow; font-size: 70px;'>正确! </span>","null","","","","","","","","","","","","","","","","","","","","","","","feedback_test"
"","","","","","psychophysics","92","380402","0.0-9.0-0.0-0.16","510","","j","","","","","","","","","","","","","key","j","16.652878787878883","640","356","j","true","img/C_ambi40.png","方形","prac_word_first",""
"","","","","","html-keyboard-response","93","380715","0.0-9.0-0.0-1.16","null","<span style='color:GreenYellow; font-size: 70px;'>正确! </span>","null","","","","","","","","","","","","","","","","","","","","","","","feedback_test"
"","","","","","psychophysics","94","382487","0.0-9.0-0.0-0.17","620","","j","","","","","","","","","","","","","key","j","16.647276190476536","640","356","j","true","img/S_ambi40.png","三角","prac_word_first",""
"","","","","","html-keyboard-response","95","382799","0.0-9.0-0.0-1.17","null","<span style='color:GreenYellow; font-size: 70px;'>正确! </span>","null","","","","","","","","","","","","","","","","","","","","","","","feedback_test"
"","","","","","psychophysics","96","384422","0.0-9.0-0.0-0.18","465","","j","","","","","","","","","","","","","key","j","16.653187500000058","640","356","j","true","img/T_ambi40.png","圆形","prac_word_first",""
"","","","","","html-keyboard-response","97","384730","0.0-9.0-0.0-1.18","null","<span style='color:GreenYellow; font-size: 70px;'>正确! </span>","null","","","","","","","","","","","","","","","","","","","","","","","feedback_test"
"","","","","","psychophysics","98","386316","0.0-9.0-0.0-0.19","434","","j","","","","","","","","","","","","","key","j","16.6570319148936","640","356","j","true","img/T_ambi40.png","方形","prac_word_first",""
"","","","","","html-keyboard-response","99","386618","0.0-9.0-0.0-1.19","null","<span style='color:GreenYellow; font-size: 70px;'>正确! </span>","null","","","","","","","","","","","","","","","","","","","","","","","feedback_test"
"","","","","","psychophysics","100","388208","0.0-9.0-0.0-0.20","435","","f","","","","","","","","","","","","","key","f","16.65258947368405","640","356","f","true","img/S_ambi40.png","方形","prac_word_first",""
"","","","","","html-keyboard-response","101","388513","0.0-9.0-0.0-1.20","null","<span style='color:GreenYellow; font-size: 70px;'>正确! </span>","null","","","","","","","","","","","","","","","","","","","","","","","feedback_test"
"","","","","","psychophysics","102","390091","0.0-9.0-0.0-0.21","425","","j","","","","","","","","","","","","","key","j","16.651957446808353","640","356","j","true","img/S_ambi40.png","圆形","prac_word_first",""
"","","","","","html-keyboard-response","103","390407","0.0-9.0-0.0-1.21","null","<span style='color:GreenYellow; font-size: 70px;'>正确! </span>","null","","","","","","","","","","","","","","","","","","","","","","","feedback_test"
"","","","","","psychophysics","104","392110","0.0-9.0-0.0-0.22","544","","f","","","","","","","","","","","","","key","f","16.656326732673744","640","356","j","false","img/C_ambi40.png","三角","prac_word_first",""
"","","","","","html-keyboard-response","105","392418","0.0-9.0-0.0-1.22","null","<span style='color:red; font-size: 70px;'>错误! </span>","null","","","","","","","","","","","","","","","","","","","","","","","feedback_test"
"","","","","","psychophysics","106","394111","0.0-9.0-0.0-0.23","534","","f","","","","","","","","","","","","","key","f","16.652750000000232","640","356","f","true","img/C_ambi40.png","圆形","prac_word_first",""
"","","","","","html-keyboard-response","107","394427","0.0-9.0-0.0-1.23","null","<span style='color:GreenYellow; font-size: 70px;'>正确! </span>","null","","","","","","","","","","","","","","","","","","","","","","","feedback_test"
"","","","","","html-keyboard-response","108","396477","0.0-10.0","2048","<style>.context{color:white; font-size: 35px; line-height:40px}</style>                            <div><p class='context'>您正确回答了92% 的试次。</p><p class='context'>您的平均反应时为568毫秒。</p><p class='context'>恭喜您完成练习。按任意键进入<span style='color: yellow;'>图形和文字同时呈现条件</span>的练习。</p></div>"," ","","","","","","","","","","","","","","","","","","","","","","",""
"","","","","","psychophysics","109","398216","0.0-11.0-0.0-0.0","723","","j","","","","","","","","","","","","","key","j","16.65445192307715","640","356","f","false","img/C_ambi40.png","圆形","prac_simultaneous",""
"","","","","","html-keyboard-response","110","398527","0.0-11.0-0.0-1.0","null","<span style='color:red; font-size: 70px;'>错误! </span>","null","","","","","","","","","","","","","","","","","","","","","","","feedback_test"
"","","","","","psychophysics","111","400835","0.0-11.0-0.0-0.1","1307","","j","","","","","","","","","","","","","key","j","16.55186131386848","640","356","j","true","img/C_ambi40.png","方形","prac_simultaneous",""
"","","","","","html-keyboard-response","112","401142","0.0-11.0-0.0-1.1","null","<span style='color:GreenYellow; font-size: 70px;'>正确! </span>","null","","","","","","","","","","","","","","","","","","","","","","","feedback_test"
"","","","","","psychophysics","113","402792","0.0-11.0-0.0-0.2","639","","j","","","","","","","","","","","","","key","j","16.652214285714447","640","356","j","true","img/T_ambi40.png","方形","prac_simultaneous",""
"","","","","","html-keyboard-response","114","403105","0.0-11.0-0.0-1.2","null","<span style='color:GreenYellow; font-size: 70px;'>正确! </span>","null","","","","","","","","","","","","","","","","","","","","","","","feedback_test"
"","","","","","psychophysics","115","404805","0.0-11.0-0.0-0.3","696","","f","","","","","","","","","","","","","key","f","16.65082178217829","640","356","f","true","img/S_ambi40.png","方形","prac_simultaneous",""
"","","","","","html-keyboard-response","116","405108","0.0-11.0-0.0-1.3","null","<span style='color:GreenYellow; font-size: 70px;'>正确! </span>","null","","","","","","","","","","","","","","","","","","","","","","","feedback_test"
"","","","","","psychophysics","117","406878","0.0-11.0-0.0-0.4","763","","j","","","","","","","","","","","","","key","j","16.647676190476687","640","356","j","true","img/S_ambi40.png","三角","prac_simultaneous",""
"","","","","","html-keyboard-response","118","407188","0.0-11.0-0.0-1.4","null","<span style='color:GreenYellow; font-size: 70px;'>正确! </span>","null","","","","","","","","","","","","","","","","","","","","","","","feedback_test"
"","","","","","psychophysics","119","408825","0.0-11.0-0.0-0.5","624","","f","","","","","","","","","","","","","key","f","16.65160824742274","640","356","f","true","img/C_ambi40.png","圆形","prac_simultaneous",""
"","","","","","html-keyboard-response","120","409130","0.0-11.0-0.0-1.5","null","<span style='color:GreenYellow; font-size: 70px;'>正确! </span>","null","","","","","","","","","","","","","","","","","","","","","","","feedback_test"
"","","","","","psychophysics","121","410980","0.0-11.0-0.0-0.6","846","","j","","","","","","","","","","","","","key","j","16.65219999999972","640","356","f","false","img/T_ambi40.png","三角","prac_simultaneous",""
"","","","","","html-keyboard-response","122","411297","0.0-11.0-0.0-1.6","null","<span style='color:red; font-size: 70px;'>错误! </span>","null","","","","","","","","","","","","","","","","","","","","","","","feedback_test"
"","","","","","psychophysics","123","413069","0.0-11.0-0.0-0.7","768","","j","","","","","","","","","","","","","key","j","16.653113207546994","640","356","j","true","img/C_ambi40.png","三角","prac_simultaneous",""
"","","","","","html-keyboard-response","124","413372","0.0-11.0-0.0-1.7","null","<span style='color:GreenYellow; font-size: 70px;'>正确! </span>","null","","","","","","","","","","","","","","","","","","","","","","","feedback_test"
"","","","","","psychophysics","125","414980","0.0-11.0-0.0-0.8","603","","j","","","","","","","","","","","","","key","j","16.63738947368386","640","356","j","true","img/S_ambi40.png","圆形","prac_simultaneous",""
"","","","","","html-keyboard-response","126","415287","0.0-11.0-0.0-1.8","null","<span style='color:GreenYellow; font-size: 70px;'>正确! </span>","null","","","","","","","","","","","","","","","","","","","","","","","feedback_test"
"","","","","","psychophysics","127","417023","0.0-11.0-0.0-0.9","729","","j","","","","","","","","","","","","","key","j","16.652271844660277","640","356","j","true","img/T_ambi40.png","圆形","prac_simultaneous",""
"","","","","","html-keyboard-response","128","417336","0.0-11.0-0.0-1.9","null","<span style='color:GreenYellow; font-size: 70px;'>正确! </span>","null","","","","","","","","","","","","","","","","","","","","","","","feedback_test"
"","","","","","psychophysics","129","418999","0.0-11.0-0.0-0.10","656","","f","","","","","","","","","","","","","key","f","16.655525252525223","640","356","f","true","img/T_ambi40.png","三角","prac_simultaneous",""
"","","","","","html-keyboard-response","130","419307","0.0-11.0-0.0-1.10","null","<span style='color:GreenYellow; font-size: 70px;'>正确! </span>","null","","","","","","","","","","","","","","","","","","","","","","","feedback_test"
"","","","","","psychophysics","131","421006","0.0-11.0-0.0-0.11","695","","f","","","","","","","","","","","","","key","f","16.650990099009903","640","356","f","true","img/S_ambi40.png","方形","prac_simultaneous",""
"","","","","","html-keyboard-response","132","421308","0.0-11.0-0.0-1.11","null","<span style='color:GreenYellow; font-size: 70px;'>正确! </span>","null","","","","","","","","","","","","","","","","","","","","","","","feedback_test"
"","","","","","psychophysics","133","422975","0.0-11.0-0.0-0.12","665","","j","","","","","","","","","","","","","key","j","16.6542551020411","640","356","j","true","img/S_ambi40.png","三角","prac_simultaneous",""
"","","","","","html-keyboard-response","134","423285","0.0-11.0-0.0-1.12","null","<span style='color:GreenYellow; font-size: 70px;'>正确! </span>","null","","","","","","","","","","","","","","","","","","","","","","","feedback_test"
"","","","","","psychophysics","135","425071","0.0-11.0-0.0-0.13","785","","j","","","","","","","","","","","","","key","j","16.65633018867921","640","356","j","true","img/T_ambi40.png","方形","prac_simultaneous",""
"","","","","","html-keyboard-response","136","425378","0.0-11.0-0.0-1.13","null","<span style='color:GreenYellow; font-size: 70px;'>正确! </span>","null","","","","","","","","","","","","","","","","","","","","","","","feedback_test"
"","","","","","psychophysics","137","427264","0.0-11.0-0.0-0.14","879","","j","","","","","","","","","","","","","key","j","16.649401785714353","640","356","j","true","img/C_ambi40.png","方形","prac_simultaneous",""
"","","","","","html-keyboard-response","138","427566","0.0-11.0-0.0-1.14","null","<span style='color:GreenYellow; font-size: 70px;'>正确! </span>","null","","","","","","","","","","","","","","","","","","","","","","","feedback_test"
"","","","","","psychophysics","139","429199","0.0-11.0-0.0-0.15","627","","j","","","","","","","","","","","","","key","j","16.656474226803674","640","356","j","true","img/C_ambi40.png","三角","prac_simultaneous",""
"","","","","","html-keyboard-response","140","429512","0.0-11.0-0.0-1.15","null","<span style='color:GreenYellow; font-size: 70px;'>正确! </span>","null","","","","","","","","","","","","","","","","","","","","","","","feedback_test"
"","","","","","psychophysics","141","431163","0.0-11.0-0.0-0.16","648","","f","","","","","","","","","","","","","key","f","16.654551020408245","640","356","f","true","img/S_ambi40.png","方形","prac_simultaneous",""
"","","","","","html-keyboard-response","142","431469","0.0-11.0-0.0-1.16","null","<span style='color:GreenYellow; font-size: 70px;'>正确! </span>","null","","","","","","","","","","","","","","","","","","","","","","","feedback_test"
"","","","","","psychophysics","143","433240","0.0-11.0-0.0-0.17","765","","f","","","","","","","","","","","","","key","f","16.653028571428287","640","356","f","true","img/C_ambi40.png","圆形","prac_simultaneous",""
"","","","","","html-keyboard-response","144","433542","0.0-11.0-0.0-1.17","null","<span style='color:GreenYellow; font-size: 70px;'>正确! </span>","null","","","","","","","","","","","","","","","","","","","","","","","feedback_test"
"","","","","","psychophysics","145","435230","0.0-11.0-0.0-0.18","685","","f","","","","","","","","","","","","","key","f","16.65375999999989","640","356","f","true","img/S_ambi40.png","方形","prac_simultaneous",""
"","","","","","html-keyboard-response","146","435540","0.0-11.0-0.0-1.18","null","<span style='color:GreenYellow; font-size: 70px;'>正确! </span>","null","","","","","","","","","","","","","","","","","","","","","","","feedback_test"
"","","","","","psychophysics","147","437154","0.0-11.0-0.0-0.19","608","","j","","","","","","","","","","","","","key","j","16.654239583333037","640","356","j","true","img/T_ambi40.png","圆形","prac_simultaneous",""
"","","","","","html-keyboard-response","148","437468","0.0-11.0-0.0-1.19","null","<span style='color:GreenYellow; font-size: 70px;'>正确! </span>","null","","","","","","","","","","","","","","","","","","","","","","","feedback_test"
"","","","","","psychophysics","149","439123","0.0-11.0-0.0-0.20","647","","f","","","","","","","","","","","","","key","f","16.6593469387759","640","356","f","true","img/T_ambi40.png","三角","prac_simultaneous",""
"","","","","","html-keyboard-response","150","439434","0.0-11.0-0.0-1.20","null","<span style='color:GreenYellow; font-size: 70px;'>正确! </span>","null","","","","","","","","","","","","","","","","","","","","","","","feedback_test"
"","","","","","psychophysics","151","441119","0.0-11.0-0.0-0.21","683","","j","","","","","","","","","","","","","key","j","16.656959999999962","640","356","j","true","img/S_ambi40.png","圆形","prac_simultaneous",""
"","","","","","html-keyboard-response","152","441432","0.0-11.0-0.0-1.21","null","<span style='color:GreenYellow; font-size: 70px;'>正确! </span>","null","","","","","","","","","","","","","","","","","","","","","","","feedback_test"
"","","","","","psychophysics","153","443015","0.0-11.0-0.0-0.22","579","","f","","","","","","","","","","","","","key","f","16.64658510638339","640","356","f","true","img/C_ambi40.png","圆形","prac_simultaneous",""
"","","","","","html-keyboard-response","154","443322","0.0-11.0-0.0-1.22","null","<span style='color:GreenYellow; font-size: 70px;'>正确! </span>","null","","","","","","","","","","","","","","","","","","","","","","","feedback_test"
"","","","","","psychophysics","155","445113","0.0-11.0-0.0-0.23","788","","f","","","","","","","","","","","","","key","f","16.646429906542103","640","356","f","true","img/T_ambi40.png","三角","prac_simultaneous",""
"","","","","","html-keyboard-response","156","445418","0.0-11.0-0.0-1.23","null","<span style='color:GreenYellow; font-size: 70px;'>正确! </span>","null","","","","","","","","","","","","","","","","","","","","","","","feedback_test"
"","","","","","html-keyboard-response","157","446602","0.0-12.0","1182","<style>.context{color:white; font-size: 35px; line-height:40px}</style>                            <div><p class='context'>您正确回答了92% 的试次。</p><p class='context'>您的平均反应时为720毫秒。</p><p class='context'>恭喜您完成练习。按任意键进入正式实验。</p><p class='footer' style='font-size: 35px; line-height:40px;'>请在进入正式实验实验之前将您的<span style='color: lightgreen;'>食指</span>放在电脑键盘的相应键位上进行按键。</p>"," ","","","","","","","","","","","","","","","","","","","","","","",""
"","","","","","html-keyboard-response","158","449424","0.0-13.0-0.0-0.0","2819","
    <p>请您将手指放在按键上，准备进入呈现顺序为<span style='color: yellow;'>先图形后文字条件</span>的正式匹配任务</p>
    <p> <div style = ""color: green""><按任意键进入下一阶段的匹配任务></div></p>
    "," ","","","","","","","","","","","","","","","","","","","","","","",""
"","","","","","psychophysics","159","451473","0.0-13.0-0.0-1.0-0.0-0.0","895","","j","","","","","","","","","","","","","key","j","16.648811475409588","640","356","j","true","img/C_ambi40.png","三角","image_first",""
"","","","","","html-keyboard-response","160","451781","0.0-13.0-0.0-1.0-0.0-1.0","null","<span style='color:GreenYellow; font-size: 70px;'>正确! </span>","null","","","","","","","","","","","","","","","","","","","","","","","feedback_test"
"","","","","","psychophysics","161","453497","0.0-13.0-0.0-1.0-0.0-0.1","563","","j","","","","","","","","","","","","","key","j","16.653990196078382","640","356","j","true","img/T_ambi40.png","圆形","image_first",""
"","","","","","html-keyboard-response","162","453806","0.0-13.0-0.0-1.0-0.0-1.1","null","<span style='color:GreenYellow; font-size: 70px;'>正确! </span>","null","","","","","","","","","","","","","","","","","","","","","","","feedback_test"
"","","","","","psychophysics","163","455498","0.0-13.0-0.0-1.0-0.0-0.2","533","","j","","","","","","","","","","","","","key","j","16.652249999999768","640","356","j","true","img/T_ambi40.png","方形","image_first",""
"","","","","","html-keyboard-response","164","455804","0.0-13.0-0.0-1.0-0.0-1.2","null","<span style='color:GreenYellow; font-size: 70px;'>正确! </span>","null","","","","","","","","","","","","","","","","","","","","","","","feedback_test"
"","","","","","psychophysics","165","457838","0.0-13.0-0.0-1.0-0.0-0.3","881","","j","","","","","","","","","","","","","key","j","16.65696694214842","640","356","j","true","img/S_ambi40.png","圆形","image_first",""
"","","","","","html-keyboard-response","166","458141","0.0-13.0-0.0-1.0-0.0-1.3","null","<span style='color:GreenYellow; font-size: 70px;'>正确! </span>","null","","","","","","","","","","","","","","","","","","","","","","","feedback_test"
"","","","","","psychophysics","167","459783","0.0-13.0-0.0-1.0-0.0-0.4","489","","f","","","","","","","","","","","","","key","f","16.654500000000034","640","356","f","true","img/T_ambi40.png","三角","image_first",""
"","","","","","html-keyboard-response","168","460084","0.0-13.0-0.0-1.0-0.0-1.4","null","<span style='color:GreenYellow; font-size: 70px;'>正确! </span>","null","","","","","","","","","","","","","","","","","","","","","","","feedback_test"
"","","","","","psychophysics","169","461913","0.0-13.0-0.0-1.0-0.0-0.5","672","","j","","","","","","","","","","","","","key","j","16.653027522935716","640","356","j","true","img/C_ambi40.png","方形","image_first",""
"","","","","","html-keyboard-response","170","462214","0.0-13.0-0.0-1.0-0.0-1.5","null","<span style='color:GreenYellow; font-size: 70px;'>正确! </span>","null","","","","","","","","","","","","","","","","","","","","","","","feedback_test"
"","","","","","psychophysics","171","463982","0.0-13.0-0.0-1.0-0.0-0.6","611","","f","","","","","","","","","","","","","key","f","16.65040000000015","640","356","f","true","img/T_ambi40.png","三角","image_first",""
"","","","","","html-keyboard-response","172","464298","0.0-13.0-0.0-1.0-0.0-1.6","null","<span style='color:GreenYellow; font-size: 70px;'>正确! </span>","null","","","","","","","","","","","","","","","","","","","","","","","feedback_test"
"","","","","","psychophysics","173","465950","0.0-13.0-0.0-1.0-0.0-0.7","494","","f","","","","","","","","","","","","","key","f","16.646428571428334","640","356","f","true","img/C_ambi40.png","圆形","image_first",""
"","","","","","html-keyboard-response","174","466253","0.0-13.0-0.0-1.0-0.0-1.7","null","<span style='color:GreenYellow; font-size: 70px;'>正确! </span>","null","","","","","","","","","","","","","","","","","","","","","","","feedback_test"
"","","","","","psychophysics","175","467992","0.0-13.0-0.0-1.0-0.0-0.8","588","","j","","","","","","","","","","","","","key","j","16.65424038461508","640","356","j","true","img/S_ambi40.png","三角","image_first",""
"","","","","","html-keyboard-response","176","468294","0.0-13.0-0.0-1.0-0.0-1.8","null","<span style='color:GreenYellow; font-size: 70px;'>正确! </span>","null","","","","","","","","","","","","","","","","","","","","","","","feedback_test"
"","","","","","psychophysics","177","469982","0.0-13.0-0.0-1.0-0.0-0.9","533","","f","","","","","","","","","","","","","key","f","16.652490000000107","640","356","f","true","img/C_ambi40.png","圆形","image_first",""
"","","","","","html-keyboard-response","178","470292","0.0-13.0-0.0-1.0-0.0-1.9","null","<span style='color:GreenYellow; font-size: 70px;'>正确! </span>","null","","","","","","","","","","","","","","","","","","","","","","","feedback_test"
"","","","","","psychophysics","179","472070","0.0-13.0-0.0-1.0-0.0-0.10","625","","f","","","","","","","","","","","","","key","f","16.64795283018831","640","356","f","true","img/S_ambi40.png","方形","image_first",""
"","","","","","html-keyboard-response","180","472372","0.0-13.0-0.0-1.0-0.0-1.10","null","<span style='color:GreenYellow; font-size: 70px;'>正确! </span>","null","","","","","","","","","","","","","","","","","","","","","","","feedback_test"
"","","","","","psychophysics","181","474064","0.0-13.0-0.0-1.0-0.0-0.11","534","","f","","","","","","","","","","","","","key","f","16.65383000000031","640","356","f","true","img/S_ambi40.png","方形","image_first",""
"","","","","","html-keyboard-response","182","474376","0.0-13.0-0.0-1.0-0.0-1.11","null","<span style='color:GreenYellow; font-size: 70px;'>正确! </span>","null","","","","","","","","","","","","","","","","","","","","","","","feedback_test"
"","","","","","psychophysics","183","476046","0.0-13.0-0.0-1.0-0.0-0.12","517","","f","","","","","","","","","","","","","key","f","16.65640404040401","640","356","f","true","img/C_ambi40.png","圆形","image_first",""
"","","","","","html-keyboard-response","184","476354","0.0-13.0-0.0-1.0-0.0-1.12","null","<span style='color:GreenYellow; font-size: 70px;'>正确! </span>","null","","","","","","","","","","","","","","","","","","","","","","","feedback_test"
"","","","","","psychophysics","185","478011","0.0-13.0-0.0-1.0-0.0-0.13","500","","j","","","","","","","","","","","","","key","j","16.654602040816457","640","356","j","true","img/T_ambi40.png","方形","image_first",""
"","","","","","html-keyboard-response","186","478321","0.0-13.0-0.0-1.0-0.0-1.13","null","<span style='color:GreenYellow; font-size: 70px;'>正确! </span>","null","","","","","","","","","","","","","","","","","","","","","","","feedback_test"
"","","","","","psychophysics","187","480065","0.0-13.0-0.0-1.0-0.0-0.14","589","","f","","","","","","","","","","","","","key","f","16.647826923077027","640","356","f","true","img/T_ambi40.png","三角","image_first",""
"","","","","","html-keyboard-response","188","480367","0.0-13.0-0.0-1.0-0.0-1.14","null","<span style='color:GreenYellow; font-size: 70px;'>正确! </span>","null","","","","","","","","","","","","","","","","","","","","","","","feedback_test"
"","","","","","psychophysics","189","482034","0.0-13.0-0.0-1.0-0.0-0.15","515","","j","","","","","","","","","","","","","key","j","16.649505050504825","640","356","j","true","img/C_ambi40.png","三角","image_first",""
"","","","","","html-keyboard-response","190","482347","0.0-13.0-0.0-1.0-0.0-1.15","null","<span style='color:GreenYellow; font-size: 70px;'>正确! </span>","null","","","","","","","","","","","","","","","","","","","","","","","feedback_test"
"","","","","","psychophysics","191","484018","0.0-13.0-0.0-1.0-0.0-0.16","516","","j","","","","","","","","","","","","","key","j","16.651696969696786","640","356","j","true","img/S_ambi40.png","三角","image_first",""
"","","","","","html-keyboard-response","192","484326","0.0-13.0-0.0-1.0-0.0-1.16","null","<span style='color:GreenYellow; font-size: 70px;'>正确! </span>","null","","","","","","","","","","","","","","","","","","","","","","","feedback_test"
"","","","","","psychophysics","193","486012","0.0-13.0-0.0-1.0-0.0-0.17","524","","j","","","","","","","","","","","","","key","j","16.65219999999972","640","356","j","true","img/C_ambi40.png","方形","image_first",""
"","","","","","html-keyboard-response","194","486316","0.0-13.0-0.0-1.0-0.0-1.17","null","<span style='color:GreenYellow; font-size: 70px;'>正确! </span>","null","","","","","","","","","","","","","","","","","","","","","","","feedback_test"
"","","","","","psychophysics","195","487949","0.0-13.0-0.0-1.0-0.0-0.18","476","","j","","","","","","","","","","","","","key","j","16.65076288659805","640","356","j","true","img/T_ambi40.png","圆形","image_first",""
"","","","","","html-keyboard-response","196","488256","0.0-13.0-0.0-1.0-0.0-1.18","null","<span style='color:GreenYellow; font-size: 70px;'>正确! </span>","null","","","","","","","","","","","","","","","","","","","","","","","feedback_test"
"","","","","","psychophysics","197","489924","0.0-13.0-0.0-1.0-0.0-0.19","509","","f","","","","","","","","","","","","","key","f","16.644898989899296","640","356","f","true","img/T_ambi40.png","三角","image_first",""
"","","","","","html-keyboard-response","198","490226","0.0-13.0-0.0-1.0-0.0-1.19","null","<span style='color:GreenYellow; font-size: 70px;'>正确! </span>","null","","","","","","","","","","","","","","","","","","","","","","","feedback_test"
"","","","","","psychophysics","199","491962","0.0-13.0-0.0-1.0-0.0-0.20","581","","f","","","","","","","","","","","","","key","f","16.649436893203813","640","356","f","true","img/S_ambi40.png","方形","image_first",""
"","","","","","html-keyboard-response","200","492264","0.0-13.0-0.0-1.0-0.0-1.20","null","<span style='color:GreenYellow; font-size: 70px;'>正确! </span>","null","","","","","","","","","","","","","","","","","","","","","","","feedback_test"
"","","","","","psychophysics","201","493992","0.0-13.0-0.0-1.0-0.0-0.21","575","","f","","","","","","","","","","","","","key","f","16.655330097086917","640","356","f","true","img/S_ambi40.png","方形","image_first",""
"","","","","","html-keyboard-response","202","494302","0.0-13.0-0.0-1.0-0.0-1.21","null","<span style='color:GreenYellow; font-size: 70px;'>正确! </span>","null","","","","","","","","","","","","","","","","","","","","","","","feedback_test"
"","","","","","psychophysics","203","495980","0.0-13.0-0.0-1.0-0.0-0.22","522","","j","","","","","","","","","","","","","key","j","16.654010101010424","640","356","j","true","img/S_ambi40.png","圆形","image_first",""
"","","","","","html-keyboard-response","204","496287","0.0-13.0-0.0-1.0-0.0-1.22","null","<span style='color:GreenYellow; font-size: 70px;'>正确! </span>","null","","","","","","","","","","","","","","","","","","","","","","","feedback_test"
"","","","","","psychophysics","205","498093","0.0-13.0-0.0-1.0-0.0-0.23","656","","f","","","","","","","","","","","","","key","f","16.652457943925455","640","356","f","true","img/C_ambi40.png","圆形","image_first",""
"","","","","","html-keyboard-response","206","498401","0.0-13.0-0.0-1.0-0.0-1.23","null","<span style='color:GreenYellow; font-size: 70px;'>正确! </span>","null","","","","","","","","","","","","","","","","","","","","","","","feedback_test"
"","","","","","psychophysics","207","500058","0.0-13.0-0.0-1.0-0.0-0.24","506","","j","","","","","","","","","","","","","key","j","16.654714285714398","640","356","j","true","img/T_ambi40.png","方形","image_first",""
"","","","","","html-keyboard-response","208","500364","0.0-13.0-0.0-1.0-0.0-1.24","null","<span style='color:GreenYellow; font-size: 70px;'>正确! </span>","null","","","","","","","","","","","","","","","","","","","","","","","feedback_test"
"","","","","","psychophysics","209","502008","0.0-13.0-0.0-1.0-0.0-0.25","484","","j","","","","","","","","","","","","","key","j","16.649350515464153","640","356","j","true","img/C_ambi40.png","方形","image_first",""
"","","","","","html-keyboard-response","210","502316","0.0-13.0-0.0-1.0-0.0-1.25","null","<span style='color:GreenYellow; font-size: 70px;'>正确! </span>","null","","","","","","","","","","","","","","","","","","","","","","","feedback_test"
"","","","","","psychophysics","211","503951","0.0-13.0-0.0-1.0-0.0-0.26","483","","j","","","","","","","","","","","","","key","j","16.649659793814354","640","356","j","true","img/C_ambi40.png","三角","image_first",""
"","","","","","html-keyboard-response","212","504266","0.0-13.0-0.0-1.0-0.0-1.26","null","<span style='color:GreenYellow; font-size: 70px;'>正确! </span>","null","","","","","","","","","","","","","","","","","","","","","","","feedback_test"
"","","","","","psychophysics","213","505960","0.0-13.0-0.0-1.0-0.0-0.27","540","","j","","","","","","","","","","","","","key","j","16.655871287128303","640","356","j","true","img/S_ambi40.png","三角","image_first",""
"","","","","","html-keyboard-response","214","506266","0.0-13.0-0.0-1.0-0.0-1.27","null","<span style='color:GreenYellow; font-size: 70px;'>正确! </span>","null","","","","","","","","","","","","","","","","","","","","","","","feedback_test"
"","","","","","psychophysics","215","507922","0.0-13.0-0.0-1.0-0.0-0.28","501","","f","","","","","","","","","","","","","key","f","16.657265306122564","640","356","f","true","img/T_ambi40.png","三角","image_first",""
"","","","","","html-keyboard-response","216","508231","0.0-13.0-0.0-1.0-0.0-1.28","null","<span style='color:GreenYellow; font-size: 70px;'>正确! </span>","null","","","","","","","","","","","","","","","","","","","","","","","feedback_test"
"","","","","","psychophysics","217","509900","0.0-13.0-0.0-1.0-0.0-0.29","514","","f","","","","","","","","","","","","","key","f","16.64603030303025","640","356","f","true","img/T_ambi40.png","三角","image_first",""
"","","","","","html-keyboard-response","218","510214","0.0-13.0-0.0-1.0-0.0-1.29","null","<span style='color:GreenYellow; font-size: 70px;'>正确! </span>","null","","","","","","","","","","","","","","","","","","","","","","","feedback_test"
"","","","","","psychophysics","219","511986","0.0-13.0-0.0-1.0-0.0-0.30","618","","f","","","","","","","","","","","","","key","f","16.652895238095272","640","356","f","true","img/S_ambi40.png","方形","image_first",""
"","","","","","html-keyboard-response","220","512298","0.0-13.0-0.0-1.0-0.0-1.30","null","<span style='color:GreenYellow; font-size: 70px;'>正确! </span>","null","","","","","","","","","","","","","","","","","","","","","","","feedback_test"
"","","","","","psychophysics","221","514040","0.0-13.0-0.0-1.0-0.0-0.31","591","","f","","","","","","","","","","","","","key","f","16.655480769230614","640","356","f","true","img/S_ambi40.png","方形","image_first",""
"","","","","","html-keyboard-response","222","514348","0.0-13.0-0.0-1.0-0.0-1.31","null","<span style='color:GreenYellow; font-size: 70px;'>正确! </span>","null","","","","","","","","","","","","","","","","","","","","","","","feedback_test"
"","","","","","psychophysics","223","516110","0.0-13.0-0.0-1.0-0.0-0.32","611","","f","","","","","","","","","","","","","key","f","16.64960576923085","640","356","f","true","img/C_ambi40.png","圆形","image_first",""
"","","","","","html-keyboard-response","224","516412","0.0-13.0-0.0-1.0-0.0-1.32","null","<span style='color:GreenYellow; font-size: 70px;'>正确! </span>","null","","","","","","","","","","","","","","","","","","","","","","","feedback_test"
"","","","","","psychophysics","225","518155","0.0-13.0-0.0-1.0-0.0-0.33","591","","f","","","","","","","","","","","","","key","f","16.64983495145593","640","356","f","true","img/C_ambi40.png","圆形","image_first",""
"","","","","","html-keyboard-response","226","518459","0.0-13.0-0.0-1.0-0.0-1.33","null","<span style='color:GreenYellow; font-size: 70px;'>正确! </span>","null","","","","","","","","","","","","","","","","","","","","","","","feedback_test"
"","","","","","psychophysics","227","520232","0.0-13.0-0.0-1.0-0.0-0.34","621","","j","","","","","","","","","","","","","key","j","16.628943396226465","640","356","j","true","img/S_ambi40.png","圆形","image_first",""
"","","","","","html-keyboard-response","228","520541","0.0-13.0-0.0-1.0-0.0-1.34","null","<span style='color:GreenYellow; font-size: 70px;'>正确! </span>","null","","","","","","","","","","","","","","","","","","","","","","","feedback_test"
"","","","","","psychophysics","229","522263","0.0-13.0-0.0-1.0-0.0-0.35","570","","j","","","","","","","","","","","","","key","j","16.654349514562977","640","356","j","true","img/T_ambi40.png","圆形","image_first",""
"","","","","","html-keyboard-response","230","522575","0.0-13.0-0.0-1.0-0.0-1.35","null","<span style='color:GreenYellow; font-size: 70px;'>正确! </span>","null","","","","","","","","","","","","","","","","","","","","","","","feedback_test"
"","","","","","psychophysics","231","524258","0.0-13.0-0.0-1.0-0.0-0.36","532","","f","","","","","","","","","","","","","key","f","16.65293939393884","640","356","f","true","img/T_ambi40.png","三角","image_first",""
"","","","","","html-keyboard-response","232","524570","0.0-13.0-0.0-1.0-0.0-1.36","null","<span style='color:GreenYellow; font-size: 70px;'>正确! </span>","null","","","","","","","","","","","","","","","","","","","","","","","feedback_test"
"","","","","","psychophysics","233","526292","0.0-13.0-0.0-1.0-0.0-0.37","568","","j","","","","","","","","","","","","","key","j","16.651679611649563","640","356","j","true","img/S_ambi40.png","圆形","image_first",""
"","","","","","html-keyboard-response","234","526606","0.0-13.0-0.0-1.0-0.0-1.37","null","<span style='color:GreenYellow; font-size: 70px;'>正确! </span>","null","","","","","","","","","","","","","","","","","","","","","","","feedback_test"
"","","","","","psychophysics","235","528281","0.0-13.0-0.0-1.0-0.0-0.38","525","","f","","","","","","","","","","","","","key","f","16.657212121212254","640","356","f","true","img/C_ambi40.png","圆形","image_first",""
"","","","","","html-keyboard-response","236","528596","0.0-13.0-0.0-1.0-0.0-1.38","null","<span style='color:GreenYellow; font-size: 70px;'>正确! </span>","null","","","","","","","","","","","","","","","","","","","","","","","feedback_test"
"","","","","","psychophysics","237","530218","0.0-13.0-0.0-1.0-0.0-0.39","465","","f","","","","","","","","","","","","","key","f","16.652104166666202","640","356","f","true","img/C_ambi40.png","圆形","image_first",""
"","","","","","html-keyboard-response","238","530523","0.0-13.0-0.0-1.0-0.0-1.39","null","<span style='color:GreenYellow; font-size: 70px;'>正确! </span>","null","","","","","","","","","","","","","","","","","","","","","","","feedback_test"
"","","","","","psychophysics","239","532152","0.0-13.0-0.0-1.0-0.0-0.40","468","","j","","","","","","","","","","","","","key","j","16.648701030927825","640","356","j","true","img/T_ambi40.png","方形","image_first",""
"","","","","","html-keyboard-response","240","532462","0.0-13.0-0.0-1.0-0.0-1.40","null","<span style='color:GreenYellow; font-size: 70px;'>正确! </span>","null","","","","","","","","","","","","","","","","","","","","","","","feedback_test"
"","","","","","psychophysics","241","534227","0.0-13.0-0.0-1.0-0.0-0.41","611","","f","","","","","","","","","","","","","key","f","16.65498095238138","640","356","f","true","img/S_ambi40.png","方形","image_first",""
"","","","","","html-keyboard-response","242","534538","0.0-13.0-0.0-1.0-0.0-1.41","null","<span style='color:GreenYellow; font-size: 70px;'>正确! </span>","null","","","","","","","","","","","","","","","","","","","","","","","feedback_test"
"","","","","","psychophysics","243","536139","0.0-13.0-0.0-1.0-0.0-0.42","445","","f","","","","","","","","","","","","","key","f","16.657284210525503","640","356","f","true","img/T_ambi40.png","三角","image_first",""
"","","","","","html-keyboard-response","244","536440","0.0-13.0-0.0-1.0-0.0-1.42","null","<span style='color:GreenYellow; font-size: 70px;'>正确! </span>","null","","","","","","","","","","","","","","","","","","","","","","","feedback_test"
"","","","","","psychophysics","245","538076","0.0-13.0-0.0-1.0-0.0-0.43","480","","j","","","","","","","","","","","","","key","j","16.654010309278483","640","356","j","true","img/T_ambi40.png","圆形","image_first",""
"","","","","","html-keyboard-response","246","538384","0.0-13.0-0.0-1.0-0.0-1.43","null","<span style='color:GreenYellow; font-size: 70px;'>正确! </span>","null","","","","","","","","","","","","","","","","","","","","","","","feedback_test"
"","","","","","psychophysics","247","540122","0.0-13.0-0.0-1.0-0.0-0.44","581","","j","","","","","","","","","","","","","key","j","16.652854368931532","640","356","j","true","img/C_ambi40.png","三角","image_first",""
"","","","","","html-keyboard-response","248","540436","0.0-13.0-0.0-1.0-0.0-1.44","null","<span style='color:GreenYellow; font-size: 70px;'>正确! </span>","null","","","","","","","","","","","","","","","","","","","","","","","feedback_test"
"","","","","","psychophysics","249","542051","0.0-13.0-0.0-1.0-0.0-0.45","462","","j","","","","","","","","","","","","","key","j","16.6487708333334","640","356","j","true","img/C_ambi40.png","方形","image_first",""
"","","","","","html-keyboard-response","250","542366","0.0-13.0-0.0-1.0-0.0-1.45","null","<span style='color:GreenYellow; font-size: 70px;'>正确! </span>","null","","","","","","","","","","","","","","","","","","","","","","","feedback_test"
"","","","","","psychophysics","251","544005","0.0-13.0-0.0-1.0-0.0-0.46","482","","j","","","","","","","","","","","","","key","j","16.652865979381232","640","356","j","true","img/S_ambi40.png","三角","image_first",""
"","","","","","html-keyboard-response","252","544321","0.0-13.0-0.0-1.0-0.0-1.46","null","<span style='color:GreenYellow; font-size: 70px;'>正确! </span>","null","","","","","","","","","","","","","","","","","","","","","","","feedback_test"
"","","","","","psychophysics","253","546066","0.0-13.0-0.0-1.0-0.0-0.47","590","","f","","","","","","","","","","","","","key","f","16.641144230769267","640","356","f","true","img/S_ambi40.png","方形","image_first",""
"","","","","","html-keyboard-response","254","546373","0.0-13.0-0.0-1.0-0.0-1.47","null","<span style='color:GreenYellow; font-size: 70px;'>正确! </span>","null","","","","","","","","","","","","","","","","","","","","","","","feedback_test"
"","","","","","psychophysics","255","547967","0.0-13.0-0.0-1.0-0.0-0.48","435","","j","","","","","","","","","","","","","key","j","16.648074468085046","640","356","j","true","img/T_ambi40.png","方形","image_first",""
"","","","","","html-keyboard-response","256","548277","0.0-13.0-0.0-1.0-0.0-1.48","null","<span style='color:GreenYellow; font-size: 70px;'>正确! </span>","null","","","","","","","","","","","","","","","","","","","","","","","feedback_test"
"","","","","","psychophysics","257","549922","0.0-13.0-0.0-1.0-0.0-0.49","488","","j","","","","","","","","","","","","","key","j","16.658836734693793","640","356","j","true","img/T_ambi40.png","圆形","image_first",""
"","","","","","html-keyboard-response","258","550226","0.0-13.0-0.0-1.0-0.0-1.49","null","<span style='color:GreenYellow; font-size: 70px;'>正确! </span>","null","","","","","","","","","","","","","","","","","","","","","","","feedback_test"
"","","","","","psychophysics","259","551878","0.0-13.0-0.0-1.0-0.0-0.50","494","","f","","","","","","","","","","","","","key","f","16.651428571429427","640","356","f","true","img/C_ambi40.png","圆形","image_first",""
"","","","","","html-keyboard-response","260","552184","0.0-13.0-0.0-1.0-0.0-1.50","null","<span style='color:GreenYellow; font-size: 70px;'>正确! </span>","null","","","","","","","","","","","","","","","","","","","","","","","feedback_test"
"","","","","","psychophysics","261","553852","0.0-13.0-0.0-1.0-0.0-0.51","504","","j","","","","","","","","","","","","","key","j","16.65294949494942","640","356","j","true","img/C_ambi40.png","方形","image_first",""
"","","","","","html-keyboard-response","262","554164","0.0-13.0-0.0-1.0-0.0-1.51","null","<span style='color:GreenYellow; font-size: 70px;'>正确! </span>","null","","","","","","","","","","","","","","","","","","","","","","","feedback_test"
"","","","","","psychophysics","263","555883","0.0-13.0-0.0-1.0-0.0-0.52","568","","f","","","","","","","","","","","","","key","f","16.64870588235242","640","356","f","true","img/T_ambi40.png","三角","image_first",""
"","","","","","html-keyboard-response","264","556190","0.0-13.0-0.0-1.0-0.0-1.52","null","<span style='color:GreenYellow; font-size: 70px;'>正确! </span>","null","","","","","","","","","","","","","","","","","","","","","","","feedback_test"
"","","","","","psychophysics","265","557784","0.0-13.0-0.0-1.0-0.0-0.53","440","","j","","","","","","","","","","","","","key","j","16.628084210526982","640","356","j","true","img/C_ambi40.png","三角","image_first",""
"","","","","","html-keyboard-response","266","558090","0.0-13.0-0.0-1.0-0.0-1.53","null","<span style='color:GreenYellow; font-size: 70px;'>正确! </span>","null","","","","","","","","","","","","","","","","","","","","","","","feedback_test"
"","","","","","psychophysics","267","559715","0.0-13.0-0.0-1.0-0.0-0.54","474","","f","","","","","","","","","","","","","key","f","16.656958762886358","640","356","f","true","img/C_ambi40.png","圆形","image_first",""
"","","","","","html-keyboard-response","268","560016","0.0-13.0-0.0-1.0-0.0-1.54","null","<span style='color:GreenYellow; font-size: 70px;'>正确! </span>","null","","","","","","","","","","","","","","","","","","","","","","","feedback_test"
"","","","","","psychophysics","269","561667","0.0-13.0-0.0-1.0-0.0-0.55","497","","f","","","","","","","","","","","","","key","f","16.6544387755103","640","356","f","true","img/S_ambi40.png","方形","image_first",""
"","","","","","html-keyboard-response","270","561973","0.0-13.0-0.0-1.0-0.0-1.55","null","<span style='color:GreenYellow; font-size: 70px;'>正确! </span>","null","","","","","","","","","","","","","","","","","","","","","","","feedback_test"
"","","","","","psychophysics","271","563610","0.0-13.0-0.0-1.0-0.0-0.56","484","","j","","","","","","","","","","","","","key","j","16.653224489796546","640","356","j","true","img/S_ambi40.png","圆形","image_first",""
"","","","","","html-keyboard-response","272","563914","0.0-13.0-0.0-1.0-0.0-1.56","null","<span style='color:GreenYellow; font-size: 70px;'>正确! </span>","null","","","","","","","","","","","","","","","","","","","","","","","feedback_test"
"","","","","","psychophysics","273","565522","0.0-13.0-0.0-1.0-0.0-0.57","451","","f","","","","","","","","","","","","","key","f","16.621105263157943","640","356","f","true","img/T_ambi40.png","三角","image_first",""
"","","","","","html-keyboard-response","274","565834","0.0-13.0-0.0-1.0-0.0-1.57","null","<span style='color:GreenYellow; font-size: 70px;'>正确! </span>","null","","","","","","","","","","","","","","","","","","","","","","","feedback_test"
"","","","","","psychophysics","275","567633","0.0-13.0-0.0-1.0-0.0-0.58","644","","f","","","","","","","","","","","","","key","f","16.65371962616799","640","356","f","true","img/S_ambi40.png","方形","image_first",""
"","","","","","html-keyboard-response","276","567951","0.0-13.0-0.0-1.0-0.0-1.58","null","<span style='color:GreenYellow; font-size: 70px;'>正确! </span>","null","","","","","","","","","","","","","","","","","","","","","","","feedback_test"
"","","","","","psychophysics","277","569566","0.0-13.0-0.0-1.0-0.0-0.59","461","","j","","","","","","","","","","","","","key","j","16.650062500000786","640","356","j","true","img/S_ambi40.png","三角","image_first",""
"","","","","","html-keyboard-response","278","569872","0.0-13.0-0.0-1.0-0.0-1.59","null","<span style='color:GreenYellow; font-size: 70px;'>正确! </span>","null","","","","","","","","","","","","","","","","","","","","","","","feedback_test"
"","","","","","html-keyboard-response","279","578352","0.0-13.0-0.0-1.0-1.0","8479","<style>.context{color:white; font-size: 35px; line-height:40px}</style>                            <div><p class='context'>您正确回答了100% 的试次。</p><p class='context'>您的平均反应时为545毫秒。</p><p class='context'>请按任意键进入休息</p></div>","arrowright","","","","","","","","","","","","","","","","","","","","","","",""
"","","","","","html-button-response","280","593319","0.0-13.0-0.0-1.0-2.0","14965","
                    <p>您当前还剩余3组实验</p>
                    <p>现在是休息时间，当您结束休息后，您可以点击 结束休息 按钮 继续</p>
                    <p>建议休息时间还剩余<span id=""iii"">60</span>秒</p>","0","","","","","","","","","","","","","","","","","","","","","","",""
"","","","","","psychophysics","281","595163","0.0-13.0-0.0-1.0-0.1-0.60","687","","f","","","","","","","","","","","","","key","f","16.645155963303154","640","356","f","true","img/T_ambi40.png","三角","image_first",""
"","","","","","html-keyboard-response","282","595475","0.0-13.0-0.0-1.0-0.1-1.60","null","<span style='color:GreenYellow; font-size: 70px;'>正确! </span>","null","","","","","","","","","","","","","","","","","","","","","","","feedback_test"
"","","","","","psychophysics","283","597104","0.0-13.0-0.0-1.0-0.1-0.61","477","","f","","","","","","","","","","","","","key","f","16.644113402061173","640","356","f","true","img/S_ambi40.png","方形","image_first",""
"","","","","","html-keyboard-response","284","597416","0.0-13.0-0.0-1.0-0.1-1.61","null","<span style='color:GreenYellow; font-size: 70px;'>正确! </span>","null","","","","","","","","","","","","","","","","","","","","","","","feedback_test"
"","","","","","psychophysics","285","599065","0.0-13.0-0.0-1.0-0.1-0.62","486","","j","","","","","","","","","","","","","key","j","16.64990816326641","640","356","j","true","img/C_ambi40.png","三角","image_first",""
"","","","","","html-keyboard-response","286","599372","0.0-13.0-0.0-1.0-0.1-1.62","null","<span style='color:GreenYellow; font-size: 70px;'>正确! </span>","null","","","","","","","","","","","","","","","","","","","","","","","feedback_test"
"","","","","","psychophysics","287","600990","0.0-13.0-0.0-1.0-0.1-0.63","463","","f","","","","","","","","","","","","","key","f","16.653739583332936","640","356","f","true","img/C_ambi40.png","圆形","image_first",""
"","","","","","html-keyboard-response","288","601304","0.0-13.0-0.0-1.0-0.1-1.63","null","<span style='color:GreenYellow; font-size: 70px;'>正确! </span>","null","","","","","","","","","","","","","","","","","","","","","","","feedback_test"
"","","","","","psychophysics","289","603072","0.0-13.0-0.0-1.0-0.1-0.64","611","","j","","","","","","","","","","","","","key","j","16.65620952380954","640","356","j","true","img/S_ambi40.png","三角","image_first",""
"","","","","","html-keyboard-response","290","603378","0.0-13.0-0.0-1.0-0.1-1.64","null","<span style='color:GreenYellow; font-size: 70px;'>正确! </span>","null","","","","","","","","","","","","","","","","","","","","","","","feedback_test"
"","","","","","psychophysics","291","604962","0.0-13.0-0.0-1.0-0.1-0.65","421","","f","","","","","","","","","","","","","key","f","16.649223404255338","640","356","f","true","img/C_ambi40.png","圆形","image_first",""
"","","","","","html-keyboard-response","292","605271","0.0-13.0-0.0-1.0-0.1-1.65","null","<span style='color:GreenYellow; font-size: 70px;'>正确! </span>","null","","","","","","","","","","","","","","","","","","","","","","","feedback_test"
"","","","","","psychophysics","293","606876","0.0-13.0-0.0-1.0-0.1-0.66","453","","f","","","","","","","","","","","","","key","f","16.65129166666763","640","356","f","true","img/T_ambi40.png","三角","image_first",""
"","","","","","html-keyboard-response","294","607177","0.0-13.0-0.0-1.0-0.1-1.66","null","<span style='color:GreenYellow; font-size: 70px;'>正确! </span>","null","","","","","","","","","","","","","","","","","","","","","","","feedback_test"
"","","","","","psychophysics","295","608756","0.0-13.0-0.0-1.0-0.1-0.67","421","","j","","","","","","","","","","","","","key","j","16.636329787233446","640","356","j","true","img/C_ambi40.png","方形","image_first",""
"","","","","","html-keyboard-response","296","609061","0.0-13.0-0.0-1.0-0.1-1.67","null","<span style='color:GreenYellow; font-size: 70px;'>正确! </span>","null","","","","","","","","","","","","","","","","","","","","","","","feedback_test"
"","","","","","psychophysics","297","610789","0.0-13.0-0.0-1.0-0.1-0.68","569","","j","","","","","","","","","","","","","key","j","16.648019417476146","640","356","j","true","img/S_ambi40.png","圆形","image_first",""
"","","","","","html-keyboard-response","298","611092","0.0-13.0-0.0-1.0-0.1-1.68","null","<span style='color:GreenYellow; font-size: 70px;'>正确! </span>","null","","","","","","","","","","","","","","","","","","","","","","","feedback_test"
"","","","","","psychophysics","299","612722","0.0-13.0-0.0-1.0-0.1-0.69","470","","j","","","","","","","","","","","","","key","j","16.651329896907257","640","356","j","true","img/T_ambi40.png","圆形","image_first",""
"","","","","","html-keyboard-response","300","613036","0.0-13.0-0.0-1.0-0.1-1.69","null","<span style='color:GreenYellow; font-size: 70px;'>正确! </span>","null","","","","","","","","","","","","","","","","","","","","","","","feedback_test"
"","","","","","psychophysics","301","614650","0.0-13.0-0.0-1.0-0.1-0.70","463","","f","","","","","","","","","","","","","key","f","16.649336842105626","640","356","f","true","img/S_ambi40.png","方形","image_first",""
"","","","","","html-keyboard-response","302","614958","0.0-13.0-0.0-1.0-0.1-1.70","null","<span style='color:GreenYellow; font-size: 70px;'>正确! </span>","null","","","","","","","","","","","","","","","","","","","","","","","feedback_test"
"","","","","","psychophysics","303","616522","0.0-13.0-0.0-1.0-0.1-0.71","406","","j","","","","","","","","","","","","","key","j","16.65052688171992","640","356","j","true","img/T_ambi40.png","方形","image_first",""
"","","","","","html-keyboard-response","304","616837","0.0-13.0-0.0-1.0-0.1-1.71","null","<span style='color:GreenYellow; font-size: 70px;'>正确! </span>","null","","","","","","","","","","","","","","","","","","","","","","","feedback_test"
"","","","","","psychophysics","305","618518","0.0-13.0-0.0-1.0-0.1-0.72","527","","f","","","","","","","","","","","","","key","f","16.65212999999989","640","356","j","false","img/S_ambi40.png","三角","image_first",""
"","","","","","html-keyboard-response","306","618824","0.0-13.0-0.0-1.0-0.1-1.72","null","<span style='color:red; font-size: 70px;'>错误! </span>","null","","","","","","","","","","","","","","","","","","","","","","","feedback_test"
"","","","","","psychophysics","307","620499","0.0-13.0-0.0-1.0-0.1-0.73","520","","f","","","","","","","","","","","","","key","f","16.65537000000011","640","356","f","true","img/C_ambi40.png","圆形","image_first",""
"","","","","","html-keyboard-response","308","620805","0.0-13.0-0.0-1.0-0.1-1.73","null","<span style='color:GreenYellow; font-size: 70px;'>正确! </span>","null","","","","","","","","","","","","","","","","","","","","","","","feedback_test"
"","","","","","psychophysics","309","622490","0.0-13.0-0.0-1.0-0.1-0.74","530","","j","","","","","","","","","","","","","key","j","16.65476000000024","640","356","j","true","img/S_ambi40.png","圆形","image_first",""
"","","","","","html-keyboard-response","310","622799","0.0-13.0-0.0-1.0-0.1-1.74","null","<span style='color:GreenYellow; font-size: 70px;'>正确! </span>","null","","","","","","","","","","","","","","","","","","","","","","","feedback_test"
"","","","","","psychophysics","311","624510","0.0-13.0-0.0-1.0-0.1-0.75","554","","j","","","","","","","","","","","","","key","j","16.652666666667095","640","356","j","true","img/C_ambi40.png","方形","image_first",""
"","","","","","html-keyboard-response","312","624814","0.0-13.0-0.0-1.0-0.1-1.75","null","<span style='color:GreenYellow; font-size: 70px;'>正确! </span>","null","","","","","","","","","","","","","","","","","","","","","","","feedback_test"
"","","","","","psychophysics","313","626486","0.0-13.0-0.0-1.0-0.1-0.76","518","","j","","","","","","","","","","","","","key","j","16.647404040403973","640","356","j","true","img/C_ambi40.png","三角","image_first",""
"","","","","","html-keyboard-response","314","626797","0.0-13.0-0.0-1.0-0.1-1.76","null","<span style='color:GreenYellow; font-size: 70px;'>正确! </span>","null","","","","","","","","","","","","","","","","","","","","","","","feedback_test"
"","","","","","psychophysics","315","628459","0.0-13.0-0.0-1.0-0.1-0.77","508","","f","","","","","","","","","","","","","key","f","16.657939393938793","640","356","f","true","img/C_ambi40.png","圆形","image_first",""
"","","","","","html-keyboard-response","316","628763","0.0-13.0-0.0-1.0-0.1-1.77","null","<span style='color:GreenYellow; font-size: 70px;'>正确! </span>","null","","","","","","","","","","","","","","","","","","","","","","","feedback_test"
"","","","","","psychophysics","317","630354","0.0-13.0-0.0-1.0-0.1-0.78","435","","j","","","","","","","","","","","","","key","j","16.64954736842161","640","356","j","true","img/T_ambi40.png","方形","image_first",""
"","","","","","html-keyboard-response","318","630663","0.0-13.0-0.0-1.0-0.1-1.78","null","<span style='color:GreenYellow; font-size: 70px;'>正确! </span>","null","","","","","","","","","","","","","","","","","","","","","","","feedback_test"
"","","","","","psychophysics","319","632493","0.0-13.0-0.0-1.0-0.1-0.79","675","","f","","","","","","","","","","","","","key","f","16.653908256881383","640","356","f","true","img/S_ambi40.png","方形","image_first",""
"","","","","","html-keyboard-response","320","632807","0.0-13.0-0.0-1.0-0.1-1.79","null","<span style='color:GreenYellow; font-size: 70px;'>正确! </span>","null","","","","","","","","","","","","","","","","","","","","","","","feedback_test"
"","","","","","psychophysics","321","634572","0.0-13.0-0.0-1.0-0.1-0.80","607","","f","","","","","","","","","","","","","key","f","16.65092380952445","640","356","f","true","img/S_ambi40.png","方形","image_first",""
"","","","","","html-keyboard-response","322","634875","0.0-13.0-0.0-1.0-0.1-1.80","null","<span style='color:GreenYellow; font-size: 70px;'>正确! </span>","null","","","","","","","","","","","","","","","","","","","","","","","feedback_test"
"","","","","","psychophysics","323","636536","0.0-13.0-0.0-1.0-0.1-0.81","510","","f","","","","","","","","","","","","","key","f","16.649878787878674","640","356","f","true","img/T_ambi40.png","三角","image_first",""
"","","","","","html-keyboard-response","324","636848","0.0-13.0-0.0-1.0-0.1-1.81","null","<span style='color:GreenYellow; font-size: 70px;'>正确! </span>","null","","","","","","","","","","","","","","","","","","","","","","","feedback_test"
"","","","","","psychophysics","325","638512","0.0-13.0-0.0-1.0-0.1-0.82","497","","j","","","","","","","","","","","","","key","j","16.64833673469399","640","356","j","true","img/T_ambi40.png","圆形","image_first",""
"","","","","","html-keyboard-response","326","638820","0.0-13.0-0.0-1.0-0.1-1.82","null","<span style='color:GreenYellow; font-size: 70px;'>正确! </span>","null","","","","","","","","","","","","","","","","","","","","","","","feedback_test"
"","","","","","psychophysics","327","640502","0.0-13.0-0.0-1.0-0.1-0.83","528","","f","","","","","","","","","","","","","key","f","16.647229999999983","640","356","f","true","img/T_ambi40.png","三角","image_first",""
"","","","","","html-keyboard-response","328","640816","0.0-13.0-0.0-1.0-0.1-1.83","null","<span style='color:GreenYellow; font-size: 70px;'>正确! </span>","null","","","","","","","","","","","","","","","","","","","","","","","feedback_test"
"","","","","","psychophysics","329","642432","0.0-13.0-0.0-1.0-0.1-0.84","460","","f","","","","","","","","","","","","","key","f","16.6493437500006","640","356","f","true","img/T_ambi40.png","三角","image_first",""
"","","","","","html-keyboard-response","330","642740","0.0-13.0-0.0-1.0-0.1-1.84","null","<span style='color:GreenYellow; font-size: 70px;'>正确! </span>","null","","","","","","","","","","","","","","","","","","","","","","","feedback_test"
"","","","","","psychophysics","331","644370","0.0-13.0-0.0-1.0-0.1-0.85","477","","f","","","","","","","","","","","","","key","f","16.65252577319631","640","356","f","true","img/S_ambi40.png","方形","image_first",""
"","","","","","html-keyboard-response","332","644678","0.0-13.0-0.0-1.0-0.1-1.85","null","<span style='color:GreenYellow; font-size: 70px;'>正确! </span>","null","","","","","","","","","","","","","","","","","","","","","","","feedback_test"
"","","","","","psychophysics","333","646307","0.0-13.0-0.0-1.0-0.1-0.86","476","","f","","","","","","","","","","","","","key","f","16.65023958333283","640","356","f","true","img/T_ambi40.png","三角","image_first",""
"","","","","","html-keyboard-response","334","646616","0.0-13.0-0.0-1.0-0.1-1.86","null","<span style='color:GreenYellow; font-size: 70px;'>正确! </span>","null","","","","","","","","","","","","","","","","","","","","","","","feedback_test"
"","","","","","psychophysics","335","648218","0.0-13.0-0.0-1.0-0.1-0.87","451","","j","","","","","","","","","","","","","key","j","16.65456842105272","640","356","j","true","img/C_ambi40.png","三角","image_first",""
"","","","","","html-keyboard-response","336","648530","0.0-13.0-0.0-1.0-0.1-1.87","null","<span style='color:GreenYellow; font-size: 70px;'>正确! </span>","null","","","","","","","","","","","","","","","","","","","","","","","feedback_test"
"","","","","","psychophysics","337","650228","0.0-13.0-0.0-1.0-0.1-0.88","548","","f","","","","","","","","","","","","","key","f","16.65597029702996","640","356","f","true","img/S_ambi40.png","方形","image_first",""
"","","","","","html-keyboard-response","338","650537","0.0-13.0-0.0-1.0-0.1-1.88","null","<span style='color:GreenYellow; font-size: 70px;'>正确! </span>","null","","","","","","","","","","","","","","","","","","","","","","","feedback_test"
"","","","","","psychophysics","339","652159","0.0-13.0-0.0-1.0-0.1-0.89","458","","j","","","","","","","","","","","","","key","j","16.658270833333518","640","356","j","true","img/S_ambi40.png","三角","image_first",""
"","","","","","html-keyboard-response","340","652466","0.0-13.0-0.0-1.0-0.1-1.89","null","<span style='color:GreenYellow; font-size: 70px;'>正确! </span>","null","","","","","","","","","","","","","","","","","","","","","","","feedback_test"
"","","","","","psychophysics","341","654140","0.0-13.0-0.0-1.0-0.1-0.90","523","","j","","","","","","","","","","","","","key","j","16.65099999999977","640","356","j","true","img/T_ambi40.png","方形","image_first",""
"","","","","","html-keyboard-response","342","654456","0.0-13.0-0.0-1.0-0.1-1.90","null","<span style='color:GreenYellow; font-size: 70px;'>正确! </span>","null","","","","","","","","","","","","","","","","","","","","","","","feedback_test"
"","","","","","psychophysics","343","656067","0.0-13.0-0.0-1.0-0.1-0.91","451","","j","","","","","","","","","","","","","key","j","16.62682291666715","640","356","j","true","img/C_ambi40.png","方形","image_first",""
"","","","","","html-keyboard-response","344","656373","0.0-13.0-0.0-1.0-0.1-1.91","null","<span style='color:GreenYellow; font-size: 70px;'>正确! </span>","null","","","","","","","","","","","","","","","","","","","","","","","feedback_test"
"","","","","","psychophysics","345","658047","0.0-13.0-0.0-1.0-0.1-0.92","519","","f","","","","","","","","","","","","","key","f","16.657707070707193","640","356","f","true","img/C_ambi40.png","圆形","image_first",""
"","","","","","html-keyboard-response","346","658363","0.0-13.0-0.0-1.0-0.1-1.92","null","<span style='color:GreenYellow; font-size: 70px;'>正确! </span>","null","","","","","","","","","","","","","","","","","","","","","","","feedback_test"
"","","","","","psychophysics","347","659988","0.0-13.0-0.0-1.0-0.1-0.93","462","","f","","","","","","","","","","","","","key","f","16.649447916667366","640","356","f","true","img/C_ambi40.png","圆形","image_first",""
"","","","","","html-keyboard-response","348","660292","0.0-13.0-0.0-1.0-0.1-1.93","null","<span style='color:GreenYellow; font-size: 70px;'>正确! </span>","null","","","","","","","","","","","","","","","","","","","","","","","feedback_test"
"","","","","","psychophysics","349","661942","0.0-13.0-0.0-1.0-0.1-0.94","498","","j","","","","","","","","","","","","","key","j","16.65013265306111","640","356","j","true","img/S_ambi40.png","圆形","image_first",""
"","","","","","html-keyboard-response","350","662248","0.0-13.0-0.0-1.0-0.1-1.94","null","<span style='color:GreenYellow; font-size: 70px;'>正确! </span>","null","","","","","","","","","","","","","","","","","","","","","","","feedback_test"
"","","","","","psychophysics","351","663878","0.0-13.0-0.0-1.0-0.1-0.95","472","","j","","","","","","","","","","","","","key","j","16.653154639175554","640","356","j","true","img/T_ambi40.png","圆形","image_first",""
"","","","","","html-keyboard-response","352","664179","0.0-13.0-0.0-1.0-0.1-1.95","null","<span style='color:GreenYellow; font-size: 70px;'>正确! </span>","null","","","","","","","","","","","","","","","","","","","","","","","feedback_test"
"","","","","","psychophysics","353","666046","0.0-13.0-0.0-1.0-0.1-0.96","709","","j","","","","","","","","","","","","","key","j","16.64771171171126","640","356","j","true","img/T_ambi40.png","方形","image_first",""
"","","","","","html-keyboard-response","354","666348","0.0-13.0-0.0-1.0-0.1-1.96","null","<span style='color:GreenYellow; font-size: 70px;'>正确! </span>","null","","","","","","","","","","","","","","","","","","","","","","","feedback_test"
"","","","","","psychophysics","355","668133","0.0-13.0-0.0-1.0-0.1-0.97","634","","j","","","","","","","","","","","","","key","j","16.64581132075477","640","356","j","true","img/S_ambi40.png","圆形","image_first",""
"","","","","","html-keyboard-response","356","668444","0.0-13.0-0.0-1.0-0.1-1.97","null","<span style='color:GreenYellow; font-size: 70px;'>正确! </span>","null","","","","","","","","","","","","","","","","","","","","","","","feedback_test"
"","","","","","psychophysics","357","670214","0.0-13.0-0.0-1.0-0.1-0.98","614","","f","","","","","","","","","","","","","key","f","16.652752380952283","640","356","f","true","img/C_ambi40.png","圆形","image_first",""
"","","","","","html-keyboard-response","358","670528","0.0-13.0-0.0-1.0-0.1-1.98","null","<span style='color:GreenYellow; font-size: 70px;'>正确! </span>","null","","","","","","","","","","","","","","","","","","","","","","","feedback_test"
"","","","","","psychophysics","359","672211","0.0-13.0-0.0-1.0-0.1-0.99","526","","f","","","","","","","","","","","","","key","f","16.64746999999974","640","356","f","true","img/C_ambi40.png","圆形","image_first",""
"","","","","","html-keyboard-response","360","672518","0.0-13.0-0.0-1.0-0.1-1.99","null","<span style='color:GreenYellow; font-size: 70px;'>正确! </span>","null","","","","","","","","","","","","","","","","","","","","","","","feedback_test"
"","","","","","psychophysics","361","674174","0.0-13.0-0.0-1.0-0.1-0.100","505","","j","","","","","","","","","","","","","key","j","16.653112244898008","640","356","j","true","img/S_ambi40.png","三角","image_first",""
"","","","","","html-keyboard-response","362","674486","0.0-13.0-0.0-1.0-0.1-1.100","null","<span style='color:GreenYellow; font-size: 70px;'>正确! </span>","null","","","","","","","","","","","","","","","","","","","","","","","feedback_test"
"","","","","","psychophysics","363","676208","0.0-13.0-0.0-1.0-0.1-0.101","562","","f","","","","","","","","","","","","","key","f","16.655166666666002","640","356","f","true","img/S_ambi40.png","方形","image_first",""
"","","","","","html-keyboard-response","364","676512","0.0-13.0-0.0-1.0-0.1-1.101","null","<span style='color:GreenYellow; font-size: 70px;'>正确! </span>","null","","","","","","","","","","","","","","","","","","","","","","","feedback_test"
"","","","","","psychophysics","365","678145","0.0-13.0-0.0-1.0-0.1-0.102","481","","f","","","","","","","","","","","","","key","f","16.656742268041516","640","356","f","true","img/S_ambi40.png","方形","image_first",""
"","","","","","html-keyboard-response","366","678454","0.0-13.0-0.0-1.0-0.1-1.102","null","<span style='color:GreenYellow; font-size: 70px;'>正确! </span>","null","","","","","","","","","","","","","","","","","","","","","","","feedback_test"
"","","","","","psychophysics","367","680104","0.0-13.0-0.0-1.0-0.1-0.103","492","","f","","","","","","","","","","","","","key","f","16.653877551021168","640","356","f","true","img/T_ambi40.png","三角","image_first",""
"","","","","","html-keyboard-response","368","680419","0.0-13.0-0.0-1.0-0.1-1.103","null","<span style='color:GreenYellow; font-size: 70px;'>正确! </span>","null","","","","","","","","","","","","","","","","","","","","","","","feedback_test"
"","","","","","psychophysics","369","682002","0.0-13.0-0.0-1.0-0.1-0.104","426","","f","","","","","","","","","","","","","key","f","16.648319148936586","640","356","f","true","img/T_ambi40.png","三角","image_first",""
"","","","","","html-keyboard-response","370","682306","0.0-13.0-0.0-1.0-0.1-1.104","null","<span style='color:GreenYellow; font-size: 70px;'>正确! </span>","null","","","","","","","","","","","","","","","","","","","","","","","feedback_test"
"","","","","","psychophysics","371","683944","0.0-13.0-0.0-1.0-0.1-0.105","482","","j","","","","","","","","","","","","","key","j","16.65070408163236","640","356","j","true","img/C_ambi40.png","方形","image_first",""
"","","","","","html-keyboard-response","372","684246","0.0-13.0-0.0-1.0-0.1-1.105","null","<span style='color:GreenYellow; font-size: 70px;'>正确! </span>","null","","","","","","","","","","","","","","","","","","","","","","","feedback_test"
"","","","","","psychophysics","373","685849","0.0-13.0-0.0-1.0-0.1-0.106","441","","j","","","","","","","","","","","","","key","j","16.650578947367734","640","356","j","true","img/T_ambi40.png","圆形","image_first",""
"","","","","","html-keyboard-response","374","686164","0.0-13.0-0.0-1.0-0.1-1.106","null","<span style='color:GreenYellow; font-size: 70px;'>正确! </span>","null","","","","","","","","","","","","","","","","","","","","","","","feedback_test"
"","","","","","psychophysics","375","687789","0.0-13.0-0.0-1.0-0.1-0.107","467","","j","","","","","","","","","","","","","key","j","16.65503124999911","640","356","j","true","img/C_ambi40.png","三角","image_first",""
"","","","","","html-keyboard-response","376","688096","0.0-13.0-0.0-1.0-0.1-1.107","null","<span style='color:GreenYellow; font-size: 70px;'>正确! </span>","null","","","","","","","","","","","","","","","","","","","","","","","feedback_test"
"","","","","","psychophysics","377","689732","0.0-13.0-0.0-1.0-0.1-0.108","483","","f","","","","","","","","","","","","","key","f","16.650216494845324","640","356","f","true","img/T_ambi40.png","三角","image_first",""
"","","","","","html-keyboard-response","378","690047","0.0-13.0-0.0-1.0-0.1-1.108","null","<span style='color:GreenYellow; font-size: 70px;'>正确! </span>","null","","","","","","","","","","","","","","","","","","","","","","","feedback_test"
"","","","","","psychophysics","379","691657","0.0-13.0-0.0-1.0-0.1-0.109","458","","j","","","","","","","","","","","","","key","j","16.652854166666657","640","356","j","true","img/T_ambi40.png","方形","image_first",""
"","","","","","html-keyboard-response","380","691972","0.0-13.0-0.0-1.0-0.1-1.109","null","<span style='color:GreenYellow; font-size: 70px;'>正确! </span>","null","","","","","","","","","","","","","","","","","","","","","","","feedback_test"
"","","","","","psychophysics","381","693579","0.0-13.0-0.0-1.0-0.1-0.110","455","","f","","","","","","","","","","","","","key","f","16.651726315789364","640","356","f","true","img/S_ambi40.png","方形","image_first",""
"","","","","","html-keyboard-response","382","693894","0.0-13.0-0.0-1.0-0.1-1.110","null","<span style='color:GreenYellow; font-size: 70px;'>正确! </span>","null","","","","","","","","","","","","","","","","","","","","","","","feedback_test"
"","","","","","psychophysics","383","695485","0.0-13.0-0.0-1.0-0.1-0.111","438","","j","","","","","","","","","","","","","key","j","16.648536842105617","640","356","j","true","img/C_ambi40.png","方形","image_first",""
"","","","","","html-keyboard-response","384","695789","0.0-13.0-0.0-1.0-0.1-1.111","null","<span style='color:GreenYellow; font-size: 70px;'>正确! </span>","null","","","","","","","","","","","","","","","","","","","","","","","feedback_test"
"","","","","","psychophysics","385","697466","0.0-13.0-0.0-1.0-0.1-0.112","524","","f","","","","","","","","","","","","","key","f","16.65228000000003","640","356","f","true","img/C_ambi40.png","圆形","image_first",""
"","","","","","html-keyboard-response","386","697776","0.0-13.0-0.0-1.0-0.1-1.112","null","<span style='color:GreenYellow; font-size: 70px;'>正确! </span>","null","","","","","","","","","","","","","","","","","","","","","","","feedback_test"
"","","","","","psychophysics","387","699443","0.0-13.0-0.0-1.0-0.1-0.113","514","","j","","","","","","","","","","","","","key","j","16.64117171717196","640","356","j","true","img/T_ambi40.png","圆形","image_first",""
"","","","","","html-keyboard-response","388","699751","0.0-13.0-0.0-1.0-0.1-1.113","null","<span style='color:GreenYellow; font-size: 70px;'>正确! </span>","null","","","","","","","","","","","","","","","","","","","","","","","feedback_test"
"","","","","","psychophysics","389","701371","0.0-13.0-0.0-1.0-0.1-0.114","459","","f","","","","","","","","","","","","","key","f","16.65847916666583","640","356","f","true","img/S_ambi40.png","方形","image_first",""
"","","","","","html-keyboard-response","390","701673","0.0-13.0-0.0-1.0-0.1-1.114","null","<span style='color:GreenYellow; font-size: 70px;'>正确! </span>","null","","","","","","","","","","","","","","","","","","","","","","","feedback_test"
"","","","","","psychophysics","391","703259","0.0-13.0-0.0-1.0-0.1-0.115","432","","f","","","","","","","","","","","","","key","f","16.65239361702078","640","356","f","true","img/T_ambi40.png","三角","image_first",""
"","","","","","html-keyboard-response","392","703572","0.0-13.0-0.0-1.0-0.1-1.115","null","<span style='color:GreenYellow; font-size: 70px;'>正确! </span>","null","","","","","","","","","","","","","","","","","","","","","","","feedback_test"
"","","","","","psychophysics","393","705139","0.0-13.0-0.0-1.0-0.1-0.116","411","","j","","","","","","","","","","","","","key","j","16.650333333333645","640","356","j","true","img/S_ambi40.png","三角","image_first",""
"","","","","","html-keyboard-response","394","705441","0.0-13.0-0.0-1.0-0.1-1.116","null","<span style='color:GreenYellow; font-size: 70px;'>正确! </span>","null","","","","","","","","","","","","","","","","","","","","","","","feedback_test"
"","","","","","psychophysics","395","707147","0.0-13.0-0.0-1.0-0.1-0.117","555","","j","","","","","","","","","","","","","key","j","16.653623762375695","640","356","j","true","img/C_ambi40.png","三角","image_first",""
"","","","","","html-keyboard-response","396","707452","0.0-13.0-0.0-1.0-0.1-1.117","null","<span style='color:GreenYellow; font-size: 70px;'>正确! </span>","null","","","","","","","","","","","","","","","","","","","","","","","feedback_test"
"","","","","","psychophysics","397","709100","0.0-13.0-0.0-1.0-0.1-0.118","494","","f","","","","","","","","","","","","","key","f","16.641653061224318","640","356","f","true","img/C_ambi40.png","圆形","image_first",""
"","","","","","html-keyboard-response","398","709409","0.0-13.0-0.0-1.0-0.1-1.118","null","<span style='color:GreenYellow; font-size: 70px;'>正确! </span>","null","","","","","","","","","","","","","","","","","","","","","","","feedback_test"
"","","","","","psychophysics","399","711191","0.0-13.0-0.0-1.0-0.1-0.119","627","","j","","","","","","","","","","","","","key","j","16.65353773584818","640","356","j","true","img/S_ambi40.png","圆形","image_first",""
"","","","","","html-keyboard-response","400","711496","0.0-13.0-0.0-1.0-0.1-1.119","null","<span style='color:GreenYellow; font-size: 70px;'>正确! </span>","null","","","","","","","","","","","","","","","","","","","","","","","feedback_test"
"","","","","","html-keyboard-response","401","714774","0.0-13.0-0.0-1.0-1.1","3277","<style>.context{color:white; font-size: 35px; line-height:40px}</style>                            <div><p class='context'>您正确回答了98% 的试次。</p><p class='context'>您的平均反应时为505毫秒。</p><p class='context'>请按任意键进入休息</p></div>"," ","","","","","","","","","","","","","","","","","","","","","","",""
"","","","","","html-button-response","402","768699","0.0-13.0-0.0-1.0-2.1","53924","
                    <p>您当前还剩余2组实验</p>
                    <p>现在是休息时间，当您结束休息后，您可以点击 结束休息 按钮 继续</p>
                    <p>建议休息时间还剩余<span id=""iii"">60</span>秒</p>","0","","","","","","","","","","","","","","","","","","","","","","",""
"","","","","","psychophysics","403","770294","0.0-13.0-0.0-1.0-0.2-0.120","443","","f","","","","","","","","","","","","","key","f","16.65478947368377","640","356","f","true","img/C_ambi40.png","圆形","image_first",""
"","","","","","html-keyboard-response","404","770610","0.0-13.0-0.0-1.0-0.2-1.120","null","<span style='color:GreenYellow; font-size: 70px;'>正确! </span>","null","","","","","","","","","","","","","","","","","","","","","","","feedback_test"
"","","","","","psychophysics","405","772215","0.0-13.0-0.0-1.0-0.2-0.121","445","","f","","","","","","","","","","","","","key","f","16.65397894736747","640","356","f","true","img/S_ambi40.png","方形","image_first",""
"","","","","","html-keyboard-response","406","772525","0.0-13.0-0.0-1.0-0.2-1.121","null","<span style='color:GreenYellow; font-size: 70px;'>正确! </span>","null","","","","","","","","","","","","","","","","","","","","","","","feedback_test"
"","","","","","psychophysics","407","774078","0.0-13.0-0.0-1.0-0.2-0.122","399","","j","","","","","","","","","","","","","key","j","16.651293478260808","640","356","j","true","img/S_ambi40.png","三角","image_first",""
"","","","","","html-keyboard-response","408","774394","0.0-13.0-0.0-1.0-0.2-1.122","null","<span style='color:GreenYellow; font-size: 70px;'>正确! </span>","null","","","","","","","","","","","","","","","","","","","","","","","feedback_test"
"","","","","","psychophysics","409","776005","0.0-13.0-0.0-1.0-0.2-0.123","457","","f","","","","","","","","","","","","","key","f","16.630385416666588","640","356","j","false","img/T_ambi40.png","方形","image_first",""
"","","","","","html-keyboard-response","410","776310","0.0-13.0-0.0-1.0-0.2-1.123","null","<span style='color:red; font-size: 70px;'>错误! </span>","null","","","","","","","","","","","","","","","","","","","","","","","feedback_test"
"","","","","","psychophysics","411","777910","0.0-13.0-0.0-1.0-0.2-0.124","445","","j","","","","","","","","","","","","","key","j","16.65235789473732","640","356","j","true","img/T_ambi40.png","圆形","image_first",""
"","","","","","html-keyboard-response","412","778215","0.0-13.0-0.0-1.0-0.2-1.124","null","<span style='color:GreenYellow; font-size: 70px;'>正确! </span>","null","","","","","","","","","","","","","","","","","","","","","","","feedback_test"
"","","","","","psychophysics","413","779906","0.0-13.0-0.0-1.0-0.2-0.125","533","","j","","","","","","","","","","","","","key","j","16.651840000000085","640","356","j","true","img/S_ambi40.png","圆形","image_first",""
"","","","","","html-keyboard-response","414","780210","0.0-13.0-0.0-1.0-0.2-1.125","null","<span style='color:GreenYellow; font-size: 70px;'>正确! </span>","null","","","","","","","","","","","","","","","","","","","","","","","feedback_test"
"","","","","","psychophysics","415","781840","0.0-13.0-0.0-1.0-0.2-0.126","478","","j","","","","","","","","","","","","","key","j","16.653123711340236","640","356","f","false","img/T_ambi40.png","三角","image_first",""
"","","","","","html-keyboard-response","416","782148","0.0-13.0-0.0-1.0-0.2-1.126","null","<span style='color:red; font-size: 70px;'>错误! </span>","null","","","","","","","","","","","","","","","","","","","","","","","feedback_test"
"","","","","","psychophysics","417","783944","0.0-13.0-0.0-1.0-0.2-0.127","638","","f","","","","","","","","","","","","","key","f","16.648425925926183","640","356","f","true","img/T_ambi40.png","三角","image_first",""
"","","","","","html-keyboard-response","418","784248","0.0-13.0-0.0-1.0-0.2-1.127","null","<span style='color:GreenYellow; font-size: 70px;'>正确! </span>","null","","","","","","","","","","","","","","","","","","","","","","","feedback_test"
"","","","","","psychophysics","419","785853","0.0-13.0-0.0-1.0-0.2-0.128","445","","j","","","","","","","","","","","","","key","j","16.653189473684975","640","356","j","true","img/C_ambi40.png","方形","image_first",""
"","","","","","html-keyboard-response","420","786165","0.0-13.0-0.0-1.0-0.2-1.128","null","<span style='color:GreenYellow; font-size: 70px;'>正确! </span>","null","","","","","","","","","","","","","","","","","","","","","","","feedback_test"
"","","","","","psychophysics","421","787997","0.0-13.0-0.0-1.0-0.2-0.129","679","","f","","","","","","","","","","","","","key","f","16.654311926606102","640","356","f","true","img/S_ambi40.png","方形","image_first",""
"","","","","","html-keyboard-response","422","788300","0.0-13.0-0.0-1.0-0.2-1.129","null","<span style='color:GreenYellow; font-size: 70px;'>正确! </span>","null","","","","","","","","","","","","","","","","","","","","","","","feedback_test"
"","","","","","psychophysics","423","789942","0.0-13.0-0.0-1.0-0.2-0.130","486","","j","","","","","","","","","","","","","key","j","16.643622448980306","640","356","j","true","img/C_ambi40.png","三角","image_first",""
"","","","","","html-keyboard-response","424","790246","0.0-13.0-0.0-1.0-0.2-1.130","null","<span style='color:GreenYellow; font-size: 70px;'>正确! </span>","null","","","","","","","","","","","","","","","","","","","","","","","feedback_test"
"","","","","","psychophysics","425","791858","0.0-13.0-0.0-1.0-0.2-0.131","459","","f","","","","","","","","","","","","","key","f","16.64837500000067","640","356","f","true","img/C_ambi40.png","圆形","image_first",""
"","","","","","html-keyboard-response","426","792158","0.0-13.0-0.0-1.0-0.2-1.131","null","<span style='color:GreenYellow; font-size: 70px;'>正确! </span>","null","","","","","","","","","","","","","","","","","","","","","","","feedback_test"
"","","","","","psychophysics","427","793879","0.0-13.0-0.0-1.0-0.2-0.132","560","","f","","","","","","","","","","","","","key","f","16.651725490196316","640","356","f","true","img/T_ambi40.png","三角","image_first",""
"","","","","","html-keyboard-response","428","794182","0.0-13.0-0.0-1.0-0.2-1.132","null","<span style='color:GreenYellow; font-size: 70px;'>正确! </span>","null","","","","","","","","","","","","","","","","","","","","","","","feedback_test"
"","","","","","psychophysics","429","795846","0.0-13.0-0.0-1.0-0.2-0.133","512","","j","","","","","","","","","","","","","key","j","16.653272727272718","640","356","j","true","img/C_ambi40.png","方形","image_first",""
"","","","","","html-keyboard-response","430","796157","0.0-13.0-0.0-1.0-0.2-1.133","null","<span style='color:GreenYellow; font-size: 70px;'>正确! </span>","null","","","","","","","","","","","","","","","","","","","","","","","feedback_test"
"","","","","","psychophysics","431","797738","0.0-13.0-0.0-1.0-0.2-0.134","425","","j","","","","","","","","","","","","","key","j","16.651510638297545","640","356","j","true","img/T_ambi40.png","方形","image_first",""
