"success","timeout","failed_images","failed_audio","failed_video","trial_type","trial_index","time_elapsed","internal_node_id","rt","stimulus","response","value","item_width_mm","item_height_mm","item_width_px","px2mm","view_dist_mm","item_width_deg","px2deg","scale_factor","win_width_deg","win_height_deg","view_history","response_type","key_press","avg_frame_time","center_x","center_y","correct_response","correct","Image","word","condition","screen_id"
"true","false","[]","[]","[]","preload","0","1277","0.0-0.0","","","","","","","","","","","","","","","","","","","","","","","","","",""
"","","","","","html-keyboard-response","1","30325","0.0-1.0","29047","
   <p>您好，欢迎参加本次实验。</p>
   <p>为充分保障您的权利，请确保您已经知晓并同意《参与实验同意书》以及《数据公开知情同意书》。</p>
   <p>如果您未见过上述内容，请咨询实验员。</p>
   <p>如果您选择继续实验，则表示您已经清楚两份知情同意书的内容并同意。</p>
   <p> <div style = ""color: green""><按任意键至下页></div> </p>
   "," ","","","","","","","","","","","","","","","","","","","","","","",""
"","","","","","html-keyboard-response","2","31659","0.0-2.0","1333","
   <p>本实验首先需要您填写一些基本个人信息。</p>
   <p> <div style = ""color: green""><按任意键至下页></div></p>
   "," ","","","","","","","","","","","","","","","","","","","","","","",""
"","","","","","call-function","3","31660","0.0-3.0-0.0","","","","","","","","","","","","","","","","","","","","","","","","","",""
"","","","","","survey-html-form","4","38574","0.0-3.0-1.0","6913","","{""Q0"":""13""}","","","","","","","","","","","","","","","","","","","","","","",""
"","","","","","html-button-response","5","39450","0.0-3.0-2.0","874","<p style = 'color : white'>您的性别</p>","1","","","","","","","","","","","","","","","","","","","","","","",""
"","","","","","survey-html-form","6","44123","0.0-3.0-3.0","4672","","{""Q0"":""2002""}","","","","","","","","","","","","","","","","","","","","","","",""
"","","","","","survey-html-form","7","47866","0.0-3.0-4.0","3742","","{""Q0"":""5""}","","","","","","","","","","","","","","","","","","","","","","",""
"","","","","","virtual-chinrest","8","158435","0.0-4.0","110567","","","","85.6","53.98","483.15276536431094","5.64106553178012","506.35","9.663055307286218","50","0.7782217694986912","28.84","14.92","","","","","","","","","","","",""
"true","","","","","fullscreen","9","161722","0.0-5.0","","","","","","","","","","","","","","","","","","","","","","","","","",""
"","","","","","instructions","10","232670","0.0-6.0","70948","","","","","","","","","","","","","","[{""page_index"":0,""viewing_time"":3699},{""page_index"":1,""viewing_time"":36216},{""page_index"":2,""viewing_time"":24996},{""page_index"":3,""viewing_time"":6036}]","","","","","","","","","","",""
"","","","","","psychophysics","11","235332","0.0-7.0-0.0-0.0","null","","null","","","","","","","","","","","","","key","null","7.536874643874642","768","428","f","false","img/S_ambi40.png","圆形","prac_image_first",""
"","","","","","html-keyboard-response","12","235645","0.0-7.0-0.0-1.0","null","<span class='add_' style='color:yellow; font-size: 70px;'> 太慢! </span>","null","","","","","","","","","","","","","","","","","","","","","","","feedback_test"
"","","","","","psychophysics","13","238298","0.0-7.0-0.0-0.1","null","","null","","","","","","","","","","","","","key","null","7.247857534246558","768","428","f","false","img/C_ambi40.png","方形","prac_image_first",""
"","","","","","html-keyboard-response","14","238603","0.0-7.0-0.0-1.1","null","<span class='add_' style='color:yellow; font-size: 70px;'> 太慢! </span>","null","","","","","","","","","","","","","","","","","","","","","","","feedback_test"
"","","","","","psychophysics","15","241261","0.0-7.0-0.0-0.2","null","","null","","","","","","","","","","","","","key","null","7.208986338797898","768","428","j","false","img/C_ambi40.png","圆形","prac_image_first",""
"","","","","","html-keyboard-response","16","241577","0.0-7.0-0.0-1.2","null","<span class='add_' style='color:yellow; font-size: 70px;'> 太慢! </span>","null","","","","","","","","","","","","","","","","","","","","","","","feedback_test"
"","","","","","psychophysics","17","244233","0.0-7.0-0.0-0.3","null","","null","","","","","","","","","","","","","key","null","7.169271002710055","768","428","f","false","img/T_ambi40.png","圆形","prac_image_first",""
"","","","","","html-keyboard-response","18","244546","0.0-7.0-0.0-1.3","null","<span class='add_' style='color:yellow; font-size: 70px;'> 太慢! </span>","null","","","","","","","","","","","","","","","","","","","","","","","feedback_test"
"","","","","","psychophysics","19","247198","0.0-7.0-0.0-0.4","null","","null","","","","","","","","","","","","","key","null","7.036013333333345","768","428","j","false","img/S_ambi40.png","方形","prac_image_first",""
"","","","","","html-keyboard-response","20","247501","0.0-7.0-0.0-1.4","null","<span class='add_' style='color:yellow; font-size: 70px;'> 太慢! </span>","null","","","","","","","","","","","","","","","","","","","","","","","feedback_test"
"","","","","","psychophysics","21","250153","0.0-7.0-0.0-0.5","null","","null","","","","","","","","","","","","","key","null","7.036029255319049","768","428","j","false","img/T_ambi40.png","三角","prac_image_first",""
"","","","","","html-keyboard-response","22","250459","0.0-7.0-0.0-1.5","null","<span class='add_' style='color:yellow; font-size: 70px;'> 太慢! </span>","null","","","","","","","","","","","","","","","","","","","","","","","feedback_test"
"","","","","","psychophysics","23","252575","0.0-7.0-0.0-0.6","960","","f","","","","","","","","","","","","","key","f","7.05970234113701","768","428","j","false","img/S_ambi40.png","方形","prac_image_first",""
"","","","","","html-keyboard-response","24","252891","0.0-7.0-0.0-1.6","null","<span style='color:red; font-size: 70px;'>错误! </span>","null","","","","","","","","","","","","","","","","","","","","","","","feedback_test"
"","","","","","psychophysics","25","255009","0.0-7.0-0.0-0.7","965","","j","","","","","","","","","","","","","key","j","6.989528239202651","768","428","j","true","img/T_ambi40.png","三角","prac_image_first",""
"","","","","","html-keyboard-response","26","255327","0.0-7.0-0.0-1.7","null","<span style='color:GreenYellow; font-size: 70px;'>正确! </span>","null","","","","","","","","","","","","","","","","","","","","","","","feedback_test"
"","","","","","psychophysics","27","257068","0.0-7.0-0.0-0.8","587","","j","","","","","","","","","","","","","key","j","7.028141700404862","768","428","j","true","img/C_ambi40.png","圆形","prac_image_first",""
"","","","","","html-keyboard-response","28","257382","0.0-7.0-0.0-1.8","null","<span style='color:GreenYellow; font-size: 70px;'>正确! </span>","null","","","","","","","","","","","","","","","","","","","","","","","feedback_test"
"","","","","","psychophysics","29","259270","0.0-7.0-0.0-0.9","734","","f","","","","","","","","","","","","","key","f","7.021119402985196","768","428","f","true","img/S_ambi40.png","三角","prac_image_first",""
"","","","","","html-keyboard-response","30","259593","0.0-7.0-0.0-1.9","null","<span style='color:GreenYellow; font-size: 70px;'>正确! </span>","null","","","","","","","","","","","","","","","","","","","","","","","feedback_test"
"","","","","","psychophysics","31","261442","0.0-7.0-0.0-0.10","697","","f","","","","","","","","","","","","","key","f","6.996041825094956","768","428","f","true","img/C_ambi40.png","三角","prac_image_first",""
"","","","","","html-keyboard-response","32","261749","0.0-7.0-0.0-1.10","null","<span style='color:GreenYellow; font-size: 70px;'>正确! </span>","null","","","","","","","","","","","","","","","","","","","","","","","feedback_test"
"","","","","","psychophysics","33","263541","0.0-7.0-0.0-0.11","638","","f","","","","","","","","","","","","","key","f","7.081039682539764","768","428","f","true","img/T_ambi40.png","方形","prac_image_first",""
"","","","","","html-keyboard-response","34","263857","0.0-7.0-0.0-1.11","null","<span style='color:GreenYellow; font-size: 70px;'>正确! </span>","null","","","","","","","","","","","","","","","","","","","","","","","feedback_test"
"","","","","","psychophysics","35","265733","0.0-7.0-0.0-0.12","724","","f","","","","","","","","","","","","","key","f","7.048199999999949","768","428","f","true","img/T_ambi40.png","方形","prac_image_first",""
"","","","","","html-keyboard-response","36","266055","0.0-7.0-0.0-1.12","null","<span style='color:GreenYellow; font-size: 70px;'>正确! </span>","null","","","","","","","","","","","","","","","","","","","","","","","feedback_test"
"","","","","","psychophysics","37","267576","0.0-7.0-0.0-0.13","367","","j","","","","","","","","","","","","","key","j","7.040367441860482","768","428","f","false","img/C_ambi40.png","方形","prac_image_first",""
"","","","","","html-keyboard-response","38","267890","0.0-7.0-0.0-1.13","null","<span style='color:red; font-size: 70px;'>错误! </span>","null","","","","","","","","","","","","","","","","","","","","","","","feedback_test"
"","","","","","psychophysics","39","269683","0.0-7.0-0.0-0.14","642","","j","","","","","","","","","","","","","key","j","7.053450592885322","768","428","j","true","img/T_ambi40.png","三角","prac_image_first",""
"","","","","","html-keyboard-response","40","270000","0.0-7.0-0.0-1.14","null","<span style='color:GreenYellow; font-size: 70px;'>正确! </span>","null","","","","","","","","","","","","","","","","","","","","","","","feedback_test"
"","","","","","psychophysics","41","271856","0.0-7.0-0.0-0.15","703","","j","","","","","","","","","","","","","key","j","7.271385826771541","768","428","j","true","img/C_ambi40.png","圆形","prac_image_first",""
"","","","","","html-keyboard-response","42","272171","0.0-7.0-0.0-1.15","null","<span style='color:GreenYellow; font-size: 70px;'>正确! </span>","null","","","","","","","","","","","","","","","","","","","","","","","feedback_test"
"","","","","","psychophysics","43","273942","0.0-7.0-0.0-0.16","616","","f","","","","","","","","","","","","","key","f","7.571999999999866","768","428","f","true","img/S_ambi40.png","圆形","prac_image_first",""
"","","","","","html-keyboard-response","44","274261","0.0-7.0-0.0-1.16","null","<span style='color:GreenYellow; font-size: 70px;'>正确! </span>","null","","","","","","","","","","","","","","","","","","","","","","","feedback_test"
"","","","","","psychophysics","45","276088","0.0-7.0-0.0-0.17","672","","j","","","","","","","","","","","","","key","j","7.425359183673423","768","428","j","true","img/S_ambi40.png","方形","prac_image_first",""
"","","","","","html-keyboard-response","46","276404","0.0-7.0-0.0-1.17","null","<span style='color:GreenYellow; font-size: 70px;'>正确! </span>","null","","","","","","","","","","","","","","","","","","","","","","","feedback_test"
"","","","","","psychophysics","47","278205","0.0-7.0-0.0-0.18","648","","j","","","","","","","","","","","","","key","j","7.311555102040839","768","428","j","true","img/T_ambi40.png","三角","prac_image_first",""
"","","","","","html-keyboard-response","48","278524","0.0-7.0-0.0-1.18","null","<span style='color:GreenYellow; font-size: 70px;'>正确! </span>","null","","","","","","","","","","","","","","","","","","","","","","","feedback_test"
"","","","","","psychophysics","49","280362","0.0-7.0-0.0-0.19","684","","f","","","","","","","","","","","","","key","f","8.004908296943023","768","428","f","true","img/C_ambi40.png","三角","prac_image_first",""
"","","","","","html-keyboard-response","50","280667","0.0-7.0-0.0-1.19","null","<span style='color:GreenYellow; font-size: 70px;'>正确! </span>","null","","","","","","","","","","","","","","","","","","","","","","","feedback_test"
"","","","","","psychophysics","51","282544","0.0-7.0-0.0-0.20","723","","j","","","","","","","","","","","","","key","j","7.296027343749984","768","428","j","true","img/S_ambi40.png","方形","prac_image_first",""
"","","","","","html-keyboard-response","52","282854","0.0-7.0-0.0-1.20","null","<span style='color:GreenYellow; font-size: 70px;'>正确! </span>","null","","","","","","","","","","","","","","","","","","","","","","","feedback_test"
"","","","","","psychophysics","53","284695","0.0-7.0-0.0-0.21","679","","f","","","","","","","","","","","","","key","f","8.004764192139803","768","428","f","true","img/S_ambi40.png","三角","prac_image_first",""
"","","","","","html-keyboard-response","54","285009","0.0-7.0-0.0-1.21","null","<span style='color:GreenYellow; font-size: 70px;'>正确! </span>","null","","","","","","","","","","","","","","","","","","","","","","","feedback_test"
"","","","","","psychophysics","55","286757","0.0-7.0-0.0-0.22","597","","j","","","","","","","","","","","","","key","j","7.1721687242798335","768","428","j","true","img/C_ambi40.png","圆形","prac_image_first",""
"","","","","","html-keyboard-response","56","287071","0.0-7.0-0.0-1.22","null","<span style='color:GreenYellow; font-size: 70px;'>正确! </span>","null","","","","","","","","","","","","","","","","","","","","","","","feedback_test"
"","","","","","psychophysics","57","289014","0.0-7.0-0.0-0.23","790","","f","","","","","","","","","","","","","key","f","7.337776515151552","768","428","f","true","img/T_ambi40.png","圆形","prac_image_first",""
"","","","","","html-keyboard-response","58","289321","0.0-7.0-0.0-1.23","null","<span style='color:GreenYellow; font-size: 70px;'>正确! </span>","null","","","","","","","","","","","","","","","","","","","","","","","feedback_test"
"","","","","","html-keyboard-response","59","302596","0.0-8.0","13273","<style>.context{color:white; font-size: 35px; line-height:40px}</style>                            <div><p class='context'>您正确回答了67% 的试次。</p><p class='context'>您的平均反应时为694毫秒。</p><p class='context'>恭喜您完成这一阶段的练习。按任意键进入<span style='color: yellow;'>先文字后图形条件</span>的练习。</p></div>"," ","","","","","","","","","","","","","","","","","","","","","","",""
"","","","","","psychophysics","60","304758","0.0-9.0-0.0-0.0","1006","","f","","","","","","","","","","","","","key","f","7.174890000000014","768","428","f","true","img/T_ambi40.png","方形","prac_word_first",""
"","","","","","html-keyboard-response","61","305078","0.0-9.0-0.0-1.0","null","<span style='color:GreenYellow; font-size: 70px;'>正确! </span>","null","","","","","","","","","","","","","","","","","","","","","","","feedback_test"
"","","","","","psychophysics","62","306895","0.0-9.0-0.0-0.1","665","","f","","","","","","","","","","","","","key","f","7.368559183673553","768","428","f","true","img/S_ambi40.png","三角","prac_word_first",""
"","","","","","html-keyboard-response","63","307205","0.0-9.0-0.0-1.1","null","<span style='color:GreenYellow; font-size: 70px;'>正确! </span>","null","","","","","","","","","","","","","","","","","","","","","","","feedback_test"
"","","","","","psychophysics","64","308910","0.0-9.0-0.0-0.2","554","","f","","","","","","","","","","","","","key","f","7.001272727272807","768","428","f","true","img/S_ambi40.png","圆形","prac_word_first",""
"","","","","","html-keyboard-response","65","309224","0.0-9.0-0.0-1.2","null","<span style='color:GreenYellow; font-size: 70px;'>正确! </span>","null","","","","","","","","","","","","","","","","","","","","","","","feedback_test"
"","","","","","psychophysics","66","311174","0.0-9.0-0.0-0.3","798","","f","","","","","","","","","","","","","key","f","6.993646209386248","768","428","j","false","img/T_ambi40.png","三角","prac_word_first",""
"","","","","","html-keyboard-response","67","311489","0.0-9.0-0.0-1.3","null","<span style='color:red; font-size: 70px;'>错误! </span>","null","","","","","","","","","","","","","","","","","","","","","","","feedback_test"
"","","","","","psychophysics","68","313245","0.0-9.0-0.0-0.4","604","","f","","","","","","","","","","","","","key","f","7.027140562249119","768","428","f","true","img/C_ambi40.png","方形","prac_word_first",""
"","","","","","html-keyboard-response","69","313550","0.0-9.0-0.0-1.4","null","<span style='color:GreenYellow; font-size: 70px;'>正确! </span>","null","","","","","","","","","","","","","","","","","","","","","","","feedback_test"
"","","","","","psychophysics","70","315244","0.0-9.0-0.0-0.5","543","","j","","","","","","","","","","","","","key","j","7.0893991596638735","768","428","j","true","img/C_ambi40.png","圆形","prac_word_first",""
"","","","","","html-keyboard-response","71","315551","0.0-9.0-0.0-1.5","null","<span style='color:GreenYellow; font-size: 70px;'>正确! </span>","null","","","","","","","","","","","","","","","","","","","","","","","feedback_test"
"","","","","","psychophysics","72","317381","0.0-9.0-0.0-0.6","676","","j","","","","","","","","","","","","","key","j","7.161372549019471","768","428","j","true","img/T_ambi40.png","三角","prac_word_first",""
"","","","","","html-keyboard-response","73","317704","0.0-9.0-0.0-1.6","null","<span style='color:GreenYellow; font-size: 70px;'>正确! </span>","null","","","","","","","","","","","","","","","","","","","","","","","feedback_test"
"","","","","","psychophysics","74","319832","0.0-9.0-0.0-0.7","976","","j","","","","","","","","","","","","","key","j","7.645263537906181","768","428","j","true","img/S_ambi40.png","方形","prac_word_first",""
"","","","","","html-keyboard-response","75","320137","0.0-9.0-0.0-1.7","null","<span style='color:GreenYellow; font-size: 70px;'>正确! </span>","null","","","","","","","","","","","","","","","","","","","","","","","feedback_test"
"","","","","","psychophysics","76","322088","0.0-9.0-0.0-0.8","798","","j","","","","","","","","","","","","","key","j","7.019173913043535","768","428","j","true","img/S_ambi40.png","方形","prac_word_first",""
"","","","","","html-keyboard-response","77","322401","0.0-9.0-0.0-1.8","null","<span style='color:GreenYellow; font-size: 70px;'>正确! </span>","null","","","","","","","","","","","","","","","","","","","","","","","feedback_test"
"","","","","","psychophysics","78","324161","0.0-9.0-0.0-0.9","608","","j","","","","","","","","","","","","","key","j","7.445859574468093","768","428","j","true","img/C_ambi40.png","圆形","prac_word_first",""
"","","","","","html-keyboard-response","79","324466","0.0-9.0-0.0-1.9","null","<span style='color:GreenYellow; font-size: 70px;'>正确! </span>","null","","","","","","","","","","","","","","","","","","","","","","","feedback_test"
"","","","","","psychophysics","80","326916","0.0-9.0-0.0-0.10","1298","","f","","","","","","","","","","","","","key","f","7.10475290697667","768","428","f","true","img/T_ambi40.png","圆形","prac_word_first",""
"","","","","","html-keyboard-response","81","327230","0.0-9.0-0.0-1.10","null","<span style='color:GreenYellow; font-size: 70px;'>正确! </span>","null","","","","","","","","","","","","","","","","","","","","","","","feedback_test"
"","","","","","psychophysics","82","329137","0.0-9.0-0.0-0.11","752","","f","","","","","","","","","","","","","key","f","7.125520599251029","768","428","f","true","img/C_ambi40.png","三角","prac_word_first",""
"","","","","","html-keyboard-response","83","329452","0.0-9.0-0.0-1.11","null","<span style='color:GreenYellow; font-size: 70px;'>正确! </span>","null","","","","","","","","","","","","","","","","","","","","","","","feedback_test"
"","","","","","psychophysics","84","331253","0.0-9.0-0.0-0.12","644","","j","","","","","","","","","","","","","key","j","7.372102880658325","768","428","j","true","img/C_ambi40.png","圆形","prac_word_first",""
"","","","","","html-keyboard-response","85","331575","0.0-9.0-0.0-1.12","null","<span style='color:GreenYellow; font-size: 70px;'>正确! </span>","null","","","","","","","","","","","","","","","","","","","","","","","feedback_test"
"","","","","","psychophysics","86","333562","0.0-9.0-0.0-0.13","834","","f","","","","","","","","","","","","","key","f","7.1968467153284195","768","428","f","true","img/T_ambi40.png","圆形","prac_word_first",""
"","","","","","html-keyboard-response","87","333875","0.0-9.0-0.0-1.13","null","<span style='color:GreenYellow; font-size: 70px;'>正确! </span>","null","","","","","","","","","","","","","","","","","","","","","","","feedback_test"
"","","","","","psychophysics","88","335768","0.0-9.0-0.0-0.14","743","","f","","","","","","","","","","","","","key","f","7.264042307692356","768","428","f","true","img/C_ambi40.png","方形","prac_word_first",""
"","","","","","html-keyboard-response","89","336086","0.0-9.0-0.0-1.14","null","<span style='color:GreenYellow; font-size: 70px;'>正确! </span>","null","","","","","","","","","","","","","","","","","","","","","","","feedback_test"
"","","","","","psychophysics","90","338183","0.0-9.0-0.0-0.15","944","","j","","","","","","","","","","","","","key","j","7.283629370629225","768","428","j","true","img/S_ambi40.png","方形","prac_word_first",""
"","","","","","html-keyboard-response","91","338494","0.0-9.0-0.0-1.15","null","<span style='color:GreenYellow; font-size: 70px;'>正确! </span>","null","","","","","","","","","","","","","","","","","","","","","","","feedback_test"
"","","","","","psychophysics","92","340276","0.0-9.0-0.0-0.16","627","","j","","","","","","","","","","","","","key","j","7.285450819671988","768","428","j","true","img/S_ambi40.png","方形","prac_word_first",""
"","","","","","html-keyboard-response","93","340590","0.0-9.0-0.0-1.16","null","<span style='color:GreenYellow; font-size: 70px;'>正确! </span>","null","","","","","","","","","","","","","","","","","","","","","","","feedback_test"
"","","","","","psychophysics","94","342355","0.0-9.0-0.0-0.17","608","","f","","","","","","","","","","","","","key","f","7.2291934156379325","768","428","f","true","img/S_ambi40.png","圆形","prac_word_first",""
"","","","","","html-keyboard-response","95","342665","0.0-9.0-0.0-1.17","null","<span style='color:GreenYellow; font-size: 70px;'>正确! </span>","null","","","","","","","","","","","","","","","","","","","","","","","feedback_test"
"","","","","","psychophysics","96","344535","0.0-9.0-0.0-0.18","715","","j","","","","","","","","","","","","","key","j","7.384134920634789","768","428","j","true","img/T_ambi40.png","三角","prac_word_first",""
"","","","","","html-keyboard-response","97","344845","0.0-9.0-0.0-1.18","null","<span style='color:GreenYellow; font-size: 70px;'>正确! </span>","null","","","","","","","","","","","","","","","","","","","","","","","feedback_test"
"","","","","","psychophysics","98","346957","0.0-9.0-0.0-0.19","958","","f","","","","","","","","","","","","","key","f","7.489078571428503","768","428","f","true","img/S_ambi40.png","三角","prac_word_first",""
"","","","","","html-keyboard-response","99","347278","0.0-9.0-0.0-1.19","null","<span style='color:GreenYellow; font-size: 70px;'>正确! </span>","null","","","","","","","","","","","","","","","","","","","","","","","feedback_test"
"","","","","","psychophysics","100","349079","0.0-9.0-0.0-0.20","647","","j","","","","","","","","","","","","","key","j","7.281267206477725","768","428","j","true","img/T_ambi40.png","三角","prac_word_first",""
"","","","","","html-keyboard-response","101","349392","0.0-9.0-0.0-1.20","null","<span style='color:GreenYellow; font-size: 70px;'>正确! </span>","null","","","","","","","","","","","","","","","","","","","","","","","feedback_test"
"","","","","","psychophysics","102","351270","0.0-9.0-0.0-0.21","724","","j","","","","","","","","","","","","","key","j","8.055073593073631","768","428","j","true","img/C_ambi40.png","圆形","prac_word_first",""
"","","","","","html-keyboard-response","103","351589","0.0-9.0-0.0-1.21","null","<span style='color:GreenYellow; font-size: 70px;'>正确! </span>","null","","","","","","","","","","","","","","","","","","","","","","","feedback_test"
"","","","","","psychophysics","104","353267","0.0-9.0-0.0-0.22","519","","j","","","","","","","","","","","","","key","j","7.8563990610328664","768","428","f","false","img/C_ambi40.png","三角","prac_word_first",""
"","","","","","html-keyboard-response","105","353575","0.0-9.0-0.0-1.22","null","<span style='color:red; font-size: 70px;'>错误! </span>","null","","","","","","","","","","","","","","","","","","","","","","","feedback_test"
"","","","","","psychophysics","106","355382","0.0-9.0-0.0-0.23","653","","f","","","","","","","","","","","","","key","f","7.193672000000021","768","428","f","true","img/T_ambi40.png","方形","prac_word_first",""
"","","","","","html-keyboard-response","107","355696","0.0-9.0-0.0-1.23","null","<span style='color:GreenYellow; font-size: 70px;'>正确! </span>","null","","","","","","","","","","","","","","","","","","","","","","","feedback_test"
"","","","","","html-keyboard-response","108","360034","0.0-10.0","4336","<style>.context{color:white; font-size: 35px; line-height:40px}</style>                            <div><p class='context'>您正确回答了92% 的试次。</p><p class='context'>您的平均反应时为754毫秒。</p><p class='context'>恭喜您完成练习。按任意键进入<span style='color: yellow;'>图形和文字同时呈现条件</span>的练习。</p></div>"," ","","","","","","","","","","","","","","","","","","","","","","",""
"","","","","","psychophysics","109","362542","0.0-11.0-0.0-0.0","null","","null","","","","","","","","","","","","","key","null","7.203749279538908","768","428","f","false","img/C_ambi40.png","方形","prac_simultaneous",""
"","","","","","html-keyboard-response","110","362854","0.0-11.0-0.0-1.0","null","<span class='add_' style='color:yellow; font-size: 70px;'> 太慢! </span>","null","","","","","","","","","","","","","","","","","","","","","","","feedback_test"
"","","","","","psychophysics","111","364913","0.0-11.0-0.0-0.1","1059","","f","","","","","","","","","","","","","key","f","6.990754266211496","768","428","j","false","img/S_ambi40.png","方形","prac_simultaneous",""
"","","","","","html-keyboard-response","112","365228","0.0-11.0-0.0-1.1","null","<span style='color:red; font-size: 70px;'>错误! </span>","null","","","","","","","","","","","","","","","","","","","","","","","feedback_test"
"","","","","","psychophysics","113","367636","0.0-11.0-0.0-0.2","1403","","f","","","","","","","","","","","","","key","f","7.0045467836257105","768","428","f","true","img/T_ambi40.png","圆形","prac_simultaneous",""
"","","","","","html-keyboard-response","114","367946","0.0-11.0-0.0-1.2","null","<span style='color:GreenYellow; font-size: 70px;'>正确! </span>","null","","","","","","","","","","","","","","","","","","","","","","","feedback_test"
"","","","","","psychophysics","115","370060","0.0-11.0-0.0-0.3","1110","","f","","","","","","","","","","","","","key","f","8.255559055118153","768","428","f","true","img/S_ambi40.png","圆形","prac_simultaneous",""
"","","","","","html-keyboard-response","116","370365","0.0-11.0-0.0-1.3","null","<span style='color:GreenYellow; font-size: 70px;'>正确! </span>","null","","","","","","","","","","","","","","","","","","","","","","","feedback_test"
"","","","","","psychophysics","117","372094","0.0-11.0-0.0-0.4","729","","f","","","","","","","","","","","","","key","f","6.971510121457444","768","428","f","true","img/S_ambi40.png","三角","prac_simultaneous",""
"","","","","","html-keyboard-response","118","372402","0.0-11.0-0.0-1.4","null","<span style='color:GreenYellow; font-size: 70px;'>正确! </span>","null","","","","","","","","","","","","","","","","","","","","","","","feedback_test"
"","","","","","psychophysics","119","374438","0.0-11.0-0.0-0.5","1031","","j","","","","","","","","","","","","","key","j","7.113891228070287","768","428","j","true","img/S_ambi40.png","方形","prac_simultaneous",""
"","","","","","html-keyboard-response","120","374760","0.0-11.0-0.0-1.5","null","<span style='color:GreenYellow; font-size: 70px;'>正确! </span>","null","","","","","","","","","","","","","","","","","","","","","","","feedback_test"
"","","","","","psychophysics","121","377263","0.0-11.0-0.0-0.6","null","","null","","","","","","","","","","","","","key","null","7.12162108262112","768","428","j","false","img/T_ambi40.png","三角","prac_simultaneous",""
"","","","","","html-keyboard-response","122","377572","0.0-11.0-0.0-1.6","null","<span class='add_' style='color:yellow; font-size: 70px;'> 太慢! </span>","null","","","","","","","","","","","","","","","","","","","","","","","feedback_test"
"","","","","","psychophysics","123","379355","0.0-11.0-0.0-0.7","781","","f","","","","","","","","","","","","","key","f","7.110615999999922","768","428","f","true","img/T_ambi40.png","方形","prac_simultaneous",""
"","","","","","html-keyboard-response","124","379671","0.0-11.0-0.0-1.7","null","<span style='color:GreenYellow; font-size: 70px;'>正确! </span>","null","","","","","","","","","","","","","","","","","","","","","","","feedback_test"
"","","","","","psychophysics","125","381390","0.0-11.0-0.0-0.8","718","","j","","","","","","","","","","","","","key","j","7.058198347107568","768","428","j","true","img/C_ambi40.png","圆形","prac_simultaneous",""
"","","","","","html-keyboard-response","126","381712","0.0-11.0-0.0-1.8","null","<span style='color:GreenYellow; font-size: 70px;'>正确! </span>","null","","","","","","","","","","","","","","","","","","","","","","","feedback_test"
"","","","","","psychophysics","127","384139","0.0-11.0-0.0-0.9","1424","","f","","","","","","","","","","","","","key","f","7.0859736070382375","768","428","f","true","img/C_ambi40.png","三角","prac_simultaneous",""
"","","","","","html-keyboard-response","128","384440","0.0-11.0-0.0-1.9","null","<span style='color:GreenYellow; font-size: 70px;'>正确! </span>","null","","","","","","","","","","","","","","","","","","","","","","","feedback_test"
"","","","","","psychophysics","129","386053","0.0-11.0-0.0-0.10","612","","j","","","","","","","","","","","","","key","j","7.389376146788815","768","428","j","true","img/C_ambi40.png","圆形","prac_simultaneous",""
"","","","","","html-keyboard-response","130","386367","0.0-11.0-0.0-1.10","null","<span style='color:GreenYellow; font-size: 70px;'>正确! </span>","null","","","","","","","","","","","","","","","","","","","","","","","feedback_test"
"","","","","","psychophysics","131","388076","0.0-11.0-0.0-0.11","706","","j","","","","","","","","","","","","","key","j","7.088208333333266","768","428","j","true","img/T_ambi40.png","三角","prac_simultaneous",""
"","","","","","html-keyboard-response","132","388395","0.0-11.0-0.0-1.11","null","<span style='color:GreenYellow; font-size: 70px;'>正确! </span>","null","","","","","","","","","","","","","","","","","","","","","","","feedback_test"
"","","","","","psychophysics","133","390078","0.0-11.0-0.0-0.12","679","","j","","","","","","","","","","","","","key","j","7.031050420168126","768","428","j","true","img/S_ambi40.png","方形","prac_simultaneous",""
"","","","","","html-keyboard-response","134","390396","0.0-11.0-0.0-1.12","null","<span style='color:GreenYellow; font-size: 70px;'>正确! </span>","null","","","","","","","","","","","","","","","","","","","","","","","feedback_test"
"","","","","","psychophysics","135","392112","0.0-11.0-0.0-0.13","714","","f","","","","","","","","","","","","","key","f","7.117208333333353","768","428","f","true","img/S_ambi40.png","三角","prac_simultaneous",""
"","","","","","html-keyboard-response","136","392431","0.0-11.0-0.0-1.13","null","<span style='color:GreenYellow; font-size: 70px;'>正确! </span>","null","","","","","","","","","","","","","","","","","","","","","","","feedback_test"
"","","","","","psychophysics","137","394213","0.0-11.0-0.0-0.14","781","","j","","","","","","","","","","","","","key","j","7.869222222222274","768","428","j","true","img/T_ambi40.png","三角","prac_simultaneous",""
"","","","","","html-keyboard-response","138","394530","0.0-11.0-0.0-1.14","null","<span style='color:GreenYellow; font-size: 70px;'>正确! </span>","null","","","","","","","","","","","","","","","","","","","","","","","feedback_test"
"","","","","","psychophysics","139","396275","0.0-11.0-0.0-0.15","739","","f","","","","","","","","","","","","","key","f","7.056661224489965","768","428","f","true","img/T_ambi40.png","圆形","prac_simultaneous",""
"","","","","","html-keyboard-response","140","396592","0.0-11.0-0.0-1.15","null","<span style='color:GreenYellow; font-size: 70px;'>正确! </span>","null","","","","","","","","","","","","","","","","","","","","","","","feedback_test"
"","","","","","psychophysics","141","398340","0.0-11.0-0.0-0.16","747","","j","","","","","","","","","","","","","key","j","7.027781376518311","768","428","j","true","img/T_ambi40.png","三角","prac_simultaneous",""
"","","","","","html-keyboard-response","142","398656","0.0-11.0-0.0-1.16","null","<span style='color:GreenYellow; font-size: 70px;'>正确! </span>","null","","","","","","","","","","","","","","","","","","","","","","","feedback_test"
"","","","","","psychophysics","143","400351","0.0-11.0-0.0-0.17","692","","j","","","","","","","","","","","","","key","j","6.972128099173573","768","428","j","true","img/S_ambi40.png","方形","prac_simultaneous",""
"","","","","","html-keyboard-response","144","400657","0.0-11.0-0.0-1.17","null","<span style='color:GreenYellow; font-size: 70px;'>正确! </span>","null","","","","","","","","","","","","","","","","","","","","","","","feedback_test"
"","","","","","psychophysics","145","402118","0.0-11.0-0.0-0.18","457","","j","","","","","","","","","","","","","key","j","7.010661835748768","768","428","f","false","img/C_ambi40.png","三角","prac_simultaneous",""
"","","","","","html-keyboard-response","146","402441","0.0-11.0-0.0-1.18","null","<span style='color:red; font-size: 70px;'>错误! </span>","null","","","","","","","","","","","","","","","","","","","","","","","feedback_test"
"","","","","","psychophysics","147","404008","0.0-11.0-0.0-0.19","563","","j","","","","","","","","","","","","","key","j","8.274010638297694","768","428","j","true","img/C_ambi40.png","圆形","prac_simultaneous",""
"","","","","","html-keyboard-response","148","404320","0.0-11.0-0.0-1.19","null","<span style='color:GreenYellow; font-size: 70px;'>正确! </span>","null","","","","","","","","","","","","","","","","","","","","","","","feedback_test"
"","","","","","psychophysics","149","406402","0.0-11.0-0.0-0.20","1079","","f","","","","","","","","","","","","","key","f","7.389657142857114","768","428","f","true","img/T_ambi40.png","方形","prac_simultaneous",""
"","","","","","html-keyboard-response","150","406714","0.0-11.0-0.0-1.20","null","<span style='color:GreenYellow; font-size: 70px;'>正确! </span>","null","","","","","","","","","","","","","","","","","","","","","","","feedback_test"
"","","","","","psychophysics","151","408330","0.0-11.0-0.0-0.21","615","","j","","","","","","","","","","","","","key","j","8.218831632653078","768","428","f","false","img/C_ambi40.png","方形","prac_simultaneous",""
"","","","","","html-keyboard-response","152","408639","0.0-11.0-0.0-1.21","null","<span style='color:red; font-size: 70px;'>错误! </span>","null","","","","","","","","","","","","","","","","","","","","","","","feedback_test"
"","","","","","psychophysics","153","410138","0.0-11.0-0.0-0.22","498","","j","","","","","","","","","","","","","key","j","7.143711538461503","768","428","j","true","img/C_ambi40.png","圆形","prac_simultaneous",""
"","","","","","html-keyboard-response","154","410454","0.0-11.0-0.0-1.22","null","<span style='color:GreenYellow; font-size: 70px;'>正确! </span>","null","","","","","","","","","","","","","","","","","","","","","","","feedback_test"
"","","","","","psychophysics","155","412287","0.0-11.0-0.0-0.23","829","","f","","","","","","","","","","","","","key","f","7.105552529183022","768","428","f","true","img/S_ambi40.png","圆形","prac_simultaneous",""
"","","","","","html-keyboard-response","156","412600","0.0-11.0-0.0-1.23","null","<span style='color:GreenYellow; font-size: 70px;'>正确! </span>","null","","","","","","","","","","","","","","","","","","","","","","","feedback_test"
"","","","","","html-keyboard-response","157","417900","0.0-12.0","5299","<style>.context{color:white; font-size: 35px; line-height:40px}</style>                            <div><p class='context'>您正确回答了79% 的试次。</p><p class='context'>您的平均反应时为833毫秒。</p><p class='context'>恭喜您完成练习。按任意键进入正式实验。</p><p class='footer' style='font-size: 35px; line-height:40px;'>请在进入正式实验实验之前将您的<span style='color: lightgreen;'>食指</span>放在电脑键盘的相应键位上进行按键。</p>"," ","","","","","","","","","","","","","","","","","","","","","","",""
"","","","","","html-keyboard-response","158","420961","0.0-13.0-1.0-0.0","3058","
    <p>请您将手指放在按键上，准备进入呈现顺序为<span style='color: yellow;'>先文字后图形条件</span>的正式匹配任务</p>
    <p> <div style = ""color: green""><按任意键进入下一阶段的匹配任务></div></p>
    "," ","","","","","","","","","","","","","","","","","","","","","","",""
"","","","","","psychophysics","159","422645","0.0-13.0-1.0-1.0-0.0-0.0","531","","j","","","","","","","","","","","","","key","j","7.001533333333403","768","428","j","true","img/T_ambi40.png","三角","word_first",""
"","","","","","html-keyboard-response","160","422960","0.0-13.0-1.0-1.0-0.0-1.0","null","<span style='color:GreenYellow; font-size: 70px;'>正确! </span>","null","","","","","","","","","","","","","","","","","","","","","","","feedback_test"
"","","","","","psychophysics","161","424795","0.0-13.0-1.0-1.0-0.0-0.1","681","","f","","","","","","","","","","","","","key","f","7.133238281249987","768","428","f","true","img/S_ambi40.png","三角","word_first",""
"","","","","","html-keyboard-response","162","425109","0.0-13.0-1.0-1.0-0.0-1.1","null","<span style='color:GreenYellow; font-size: 70px;'>正确! </span>","null","","","","","","","","","","","","","","","","","","","","","","","feedback_test"
"","","","","","psychophysics","163","426774","0.0-13.0-1.0-1.0-0.0-0.2","513","","j","","","","","","","","","","","","","key","j","8.220592039801176","768","428","f","false","img/S_ambi40.png","圆形","word_first",""
"","","","","","html-keyboard-response","164","427094","0.0-13.0-1.0-1.0-0.0-1.2","null","<span style='color:red; font-size: 70px;'>错误! </span>","null","","","","","","","","","","","","","","","","","","","","","","","feedback_test"
"","","","","","psychophysics","165","428957","0.0-13.0-1.0-1.0-0.0-0.3","710","","f","","","","","","","","","","","","","key","f","6.995784905660494","768","428","f","true","img/C_ambi40.png","方形","word_first",""
"","","","","","html-keyboard-response","166","429268","0.0-13.0-1.0-1.0-0.0-1.3","null","<span style='color:GreenYellow; font-size: 70px;'>正确! </span>","null","","","","","","","","","","","","","","","","","","","","","","","feedback_test"
"","","","","","psychophysics","167","430941","0.0-13.0-1.0-1.0-0.0-0.4","521","","j","","","","","","","","","","","","","key","j","7.031686440677978","768","428","j","true","img/C_ambi40.png","圆形","word_first",""
"","","","","","html-keyboard-response","168","431256","0.0-13.0-1.0-1.0-0.0-1.4","null","<span style='color:GreenYellow; font-size: 70px;'>正确! </span>","null","","","","","","","","","","","","","","","","","","","","","","","feedback_test"
"","","","","","psychophysics","169","433189","0.0-13.0-1.0-1.0-0.0-0.5","780","","j","","","","","","","","","","","","","key","j","6.943151624548831","768","428","j","true","img/S_ambi40.png","方形","word_first",""
"","","","","","html-keyboard-response","170","433505","0.0-13.0-1.0-1.0-0.0-1.5","null","<span style='color:GreenYellow; font-size: 70px;'>正确! </span>","null","","","","","","","","","","","","","","","","","","","","","","","feedback_test"
"","","","","","psychophysics","171","435219","0.0-13.0-1.0-1.0-0.0-0.6","563","","j","","","","","","","","","","","","","key","j","7.029070247933778","768","428","j","true","img/S_ambi40.png","方形","word_first",""
"","","","","","html-keyboard-response","172","435523","0.0-13.0-1.0-1.0-0.0-1.6","null","<span style='color:GreenYellow; font-size: 70px;'>正确! </span>","null","","","","","","","","","","","","","","","","","","","","","","","feedback_test"
"","","","","","psychophysics","173","437370","0.0-13.0-1.0-1.0-0.0-0.7","694","","j","","","","","","","","","","","","","key","j","7.1324824902724115","768","428","j","true","img/C_ambi40.png","圆形","word_first",""
"","","","","","html-keyboard-response","174","437679","0.0-13.0-1.0-1.0-0.0-1.7","null","<span style='color:GreenYellow; font-size: 70px;'>正确! </span>","null","","","","","","","","","","","","","","","","","","","","","","","feedback_test"
"","","","","","psychophysics","175","439396","0.0-13.0-1.0-1.0-0.0-0.8","566","","f","","","","","","","","","","","","","key","f","7.000308641975357","768","428","f","true","img/C_ambi40.png","三角","word_first",""
"","","","","","html-keyboard-response","176","439699","0.0-13.0-1.0-1.0-0.0-1.8","null","<span style='color:GreenYellow; font-size: 70px;'>正确! </span>","null","","","","","","","","","","","","","","","","","","","","","","","feedback_test"
"","","","","","psychophysics","177","441643","0.0-13.0-1.0-1.0-0.0-0.9","791","","f","","","","","","","","","","","","","key","f","7.070377289377248","768","428","f","true","img/T_ambi40.png","方形","word_first",""
"","","","","","html-keyboard-response","178","441954","0.0-13.0-1.0-1.0-0.0-1.9","null","<span style='color:GreenYellow; font-size: 70px;'>正确! </span>","null","","","","","","","","","","","","","","","","","","","","","","","feedback_test"
"","","","","","psychophysics","179","443562","0.0-13.0-1.0-1.0-0.0-0.10","457","","j","","","","","","","","","","","","","key","j","7.129357142857251","768","428","j","true","img/T_ambi40.png","三角","word_first",""
"","","","","","html-keyboard-response","180","443874","0.0-13.0-1.0-1.0-0.0-1.10","null","<span style='color:GreenYellow; font-size: 70px;'>正确! </span>","null","","","","","","","","","","","","","","","","","","","","","","","feedback_test"
"","","","","","psychophysics","181","445542","0.0-13.0-1.0-1.0-0.0-0.11","513","","f","","","","","","","","","","","","","key","f","7.122210300429084","768","428","f","true","img/T_ambi40.png","圆形","word_first",""
"","","","","","html-keyboard-response","182","445854","0.0-13.0-1.0-1.0-0.0-1.11","null","<span style='color:GreenYellow; font-size: 70px;'>正确! </span>","null","","","","","","","","","","","","","","","","","","","","","","","feedback_test"
"","","","","","psychophysics","183","447683","0.0-13.0-1.0-1.0-0.0-0.12","675","","f","","","","","","","","","","","","","key","f","6.97049425287356","768","428","f","true","img/T_ambi40.png","方形","word_first",""
"","","","","","html-keyboard-response","184","447996","0.0-13.0-1.0-1.0-0.0-1.12","null","<span style='color:GreenYellow; font-size: 70px;'>正确! </span>","null","","","","","","","","","","","","","","","","","","","","","","","feedback_test"
"","","","","","psychophysics","185","449779","0.0-13.0-1.0-1.0-0.0-0.13","628","","j","","","","","","","","","","","","","key","j","8.084607305935984","768","428","j","true","img/S_ambi40.png","方形","word_first",""
"","","","","","html-keyboard-response","186","450090","0.0-13.0-1.0-1.0-0.0-1.13","null","<span style='color:GreenYellow; font-size: 70px;'>正确! </span>","null","","","","","","","","","","","","","","","","","","","","","","","feedback_test"
"","","","","","psychophysics","187","451850","0.0-13.0-1.0-1.0-0.0-0.14","607","","j","","","","","","","","","","","","","key","j","7.026999999999992","768","428","j","true","img/T_ambi40.png","三角","word_first",""
"","","","","","html-keyboard-response","188","452164","0.0-13.0-1.0-1.0-0.0-1.14","null","<span style='color:GreenYellow; font-size: 70px;'>正确! </span>","null","","","","","","","","","","","","","","","","","","","","","","","feedback_test"
"","","","","","psychophysics","189","453815","0.0-13.0-1.0-1.0-0.0-0.15","495","","j","","","","","","","","","","","","","key","j","7.657514018691787","768","428","j","true","img/T_ambi40.png","三角","word_first",""
"","","","","","html-keyboard-response","190","454127","0.0-13.0-1.0-1.0-0.0-1.15","null","<span style='color:GreenYellow; font-size: 70px;'>正确! </span>","null","","","","","","","","","","","","","","","","","","","","","","","feedback_test"
"","","","","","psychophysics","191","455829","0.0-13.0-1.0-1.0-0.0-0.16","548","","f","","","","","","","","","","","","","key","f","7.1184369747897716","768","428","f","true","img/C_ambi40.png","方形","word_first",""
"","","","","","html-keyboard-response","192","456145","0.0-13.0-1.0-1.0-0.0-1.16","null","<span style='color:GreenYellow; font-size: 70px;'>正确! </span>","null","","","","","","","","","","","","","","","","","","","","","","","feedback_test"
"","","","","","psychophysics","193","457672","0.0-13.0-1.0-1.0-0.0-0.17","375","","j","","","","","","","","","","","","","key","j","6.975589861751326","768","428","j","true","img/C_ambi40.png","圆形","word_first",""
"","","","","","html-keyboard-response","194","457979","0.0-13.0-1.0-1.0-0.0-1.17","null","<span style='color:GreenYellow; font-size: 70px;'>正确! </span>","null","","","","","","","","","","","","","","","","","","","","","","","feedback_test"
"","","","","","psychophysics","195","459879","0.0-13.0-1.0-1.0-0.0-0.18","748","","f","","","","","","","","","","","","","key","f","7.020769516728623","768","428","f","true","img/S_ambi40.png","三角","word_first",""
"","","","","","html-keyboard-response","196","460191","0.0-13.0-1.0-1.0-0.0-1.18","null","<span style='color:GreenYellow; font-size: 70px;'>正确! </span>","null","","","","","","","","","","","","","","","","","","","","","","","feedback_test"
"","","","","","psychophysics","197","461934","0.0-13.0-1.0-1.0-0.0-0.19","588","","j","","","","","","","","","","","","","key","j","6.999483870967636","768","428","f","false","img/C_ambi40.png","三角","word_first",""
"","","","","","html-keyboard-response","198","462256","0.0-13.0-1.0-1.0-0.0-1.19","null","<span style='color:red; font-size: 70px;'>错误! </span>","null","","","","","","","","","","","","","","","","","","","","","","","feedback_test"
"","","","","","psychophysics","199","463841","0.0-13.0-1.0-1.0-0.0-0.20","432","","j","","","","","","","","","","","","","key","j","7.004852678571426","768","428","j","true","img/C_ambi40.png","圆形","word_first",""
"","","","","","html-keyboard-response","200","464161","0.0-13.0-1.0-1.0-0.0-1.20","null","<span style='color:GreenYellow; font-size: 70px;'>正确! </span>","null","","","","","","","","","","","","","","","","","","","","","","","feedback_test"
"","","","","","psychophysics","201","466345","0.0-13.0-1.0-1.0-0.0-0.21","1033","","f","","","","","","","","","","","","","key","f","7.03302912621361","768","428","f","true","img/S_ambi40.png","圆形","word_first",""
"","","","","","html-keyboard-response","202","466652","0.0-13.0-1.0-1.0-0.0-1.21","null","<span style='color:GreenYellow; font-size: 70px;'>正确! </span>","null","","","","","","","","","","","","","","","","","","","","","","","feedback_test"
"","","","","","psychophysics","203","468932","0.0-13.0-1.0-1.0-0.0-0.22","1128","","j","","","","","","","","","","","","","key","j","7.0295356037151056","768","428","j","true","img/S_ambi40.png","方形","word_first",""
"","","","","","html-keyboard-response","204","469247","0.0-13.0-1.0-1.0-0.0-1.22","null","<span style='color:GreenYellow; font-size: 70px;'>正确! </span>","null","","","","","","","","","","","","","","","","","","","","","","","feedback_test"
"","","","","","psychophysics","205","470911","0.0-13.0-1.0-1.0-0.0-0.23","510","","f","","","","","","","","","","","","","key","f","7.184021645021732","768","428","f","true","img/T_ambi40.png","圆形","word_first",""
"","","","","","html-keyboard-response","206","471230","0.0-13.0-1.0-1.0-0.0-1.23","null","<span style='color:GreenYellow; font-size: 70px;'>正确! </span>","null","","","","","","","","","","","","","","","","","","","","","","","feedback_test"
"","","","","","psychophysics","207","472841","0.0-13.0-1.0-1.0-0.0-0.24","458","","j","","","","","","","","","","","","","key","j","7.159504464285679","768","428","f","false","img/T_ambi40.png","圆形","word_first",""
"","","","","","html-keyboard-response","208","473156","0.0-13.0-1.0-1.0-0.0-1.24","null","<span style='color:red; font-size: 70px;'>错误! </span>","null","","","","","","","","","","","","","","","","","","","","","","","feedback_test"
"","","","","","psychophysics","209","474947","0.0-13.0-1.0-1.0-0.0-0.25","638","","f","","","","","","","","","","","","","key","f","7.053162055336014","768","428","f","true","img/C_ambi40.png","三角","word_first",""
"","","","","","html-keyboard-response","210","475264","0.0-13.0-1.0-1.0-0.0-1.25","null","<span style='color:GreenYellow; font-size: 70px;'>正确! </span>","null","","","","","","","","","","","","","","","","","","","","","","","feedback_test"
"","","","","","psychophysics","211","477285","0.0-13.0-1.0-1.0-0.0-0.26","869","","j","","","","","","","","","","","","","key","j","7.245739130434653","768","428","j","true","img/S_ambi40.png","方形","word_first",""
"","","","","","html-keyboard-response","212","477608","0.0-13.0-1.0-1.0-0.0-1.26","null","<span style='color:GreenYellow; font-size: 70px;'>正确! </span>","null","","","","","","","","","","","","","","","","","","","","","","","feedback_test"
"","","","","","psychophysics","213","479394","0.0-13.0-1.0-1.0-0.0-0.27","633","","f","","","","","","","","","","","","","key","f","7.2551591836735705","768","428","f","true","img/S_ambi40.png","圆形","word_first",""
"","","","","","html-keyboard-response","214","479704","0.0-13.0-1.0-1.0-0.0-1.27","null","<span style='color:GreenYellow; font-size: 70px;'>正确! </span>","null","","","","","","","","","","","","","","","","","","","","","","","feedback_test"
"","","","","","psychophysics","215","481462","0.0-13.0-1.0-1.0-0.0-0.28","605","","j","","","","","","","","","","","","","key","j","7.922354545454569","768","428","j","true","img/C_ambi40.png","圆形","word_first",""
"","","","","","html-keyboard-response","216","481774","0.0-13.0-1.0-1.0-0.0-1.28","null","<span style='color:GreenYellow; font-size: 70px;'>正确! </span>","null","","","","","","","","","","","","","","","","","","","","","","","feedback_test"
"","","","","","psychophysics","217","483689","0.0-13.0-1.0-1.0-0.0-0.29","762","","j","","","","","","","","","","","","","key","j","8.130286324786422","768","428","j","true","img/T_ambi40.png","三角","word_first",""
"","","","","","html-keyboard-response","218","484006","0.0-13.0-1.0-1.0-0.0-1.29","null","<span style='color:GreenYellow; font-size: 70px;'>正确! </span>","null","","","","","","","","","","","","","","","","","","","","","","","feedback_test"
"","","","","","psychophysics","219","485720","0.0-13.0-1.0-1.0-0.0-0.30","563","","f","","","","","","","","","","","","","key","f","7.087593360995792","768","428","f","true","img/C_ambi40.png","方形","word_first",""
"","","","","","html-keyboard-response","220","486035","0.0-13.0-1.0-1.0-0.0-1.30","null","<span style='color:GreenYellow; font-size: 70px;'>正确! </span>","null","","","","","","","","","","","","","","","","","","","","","","","feedback_test"
"","","","","","psychophysics","221","487823","0.0-13.0-1.0-1.0-0.0-0.31","636","","f","","","","","","","","","","","","","key","f","8.345145539905845","768","428","f","true","img/S_ambi40.png","三角","word_first",""
"","","","","","html-keyboard-response","222","488139","0.0-13.0-1.0-1.0-0.0-1.31","null","<span style='color:GreenYellow; font-size: 70px;'>正确! </span>","null","","","","","","","","","","","","","","","","","","","","","","","feedback_test"
"","","","","","psychophysics","223","489791","0.0-13.0-1.0-1.0-0.0-0.32","498","","j","","","","","","","","","","","","","key","j","7.123887445887519","768","428","j","true","img/S_ambi40.png","方形","word_first",""
"","","","","","html-keyboard-response","224","490104","0.0-13.0-1.0-1.0-0.0-1.32","null","<span style='color:GreenYellow; font-size: 70px;'>正确! </span>","null","","","","","","","","","","","","","","","","","","","","","","","feedback_test"
"","","","","","psychophysics","225","492489","0.0-13.0-1.0-1.0-0.0-0.33","1233","","f","","","","","","","","","","","","","key","f","7.562684713375857","768","428","j","false","img/T_ambi40.png","三角","word_first",""
"","","","","","html-keyboard-response","226","492806","0.0-13.0-1.0-1.0-0.0-1.33","null","<span style='color:red; font-size: 70px;'>错误! </span>","null","","","","","","","","","","","","","","","","","","","","","","","feedback_test"
"","","","","","psychophysics","227","494604","0.0-13.0-1.0-1.0-0.0-0.34","645","","f","","","","","","","","","","","","","key","f","7.0532490118577424","768","428","f","true","img/T_ambi40.png","方形","word_first",""
"","","","","","html-keyboard-response","228","494919","0.0-13.0-1.0-1.0-0.0-1.34","null","<span style='color:GreenYellow; font-size: 70px;'>正确! </span>","null","","","","","","","","","","","","","","","","","","","","","","","feedback_test"
"","","","","","psychophysics","229","496502","0.0-13.0-1.0-1.0-0.0-0.35","432","","j","","","","","","","","","","","","","key","j","6.943480176211638","768","428","j","true","img/C_ambi40.png","圆形","word_first",""
"","","","","","html-keyboard-response","230","496813","0.0-13.0-1.0-1.0-0.0-1.35","null","<span style='color:GreenYellow; font-size: 70px;'>正确! </span>","null","","","","","","","","","","","","","","","","","","","","","","","feedback_test"
"","","","","","psychophysics","231","498592","0.0-13.0-1.0-1.0-0.0-0.36","626","","j","","","","","","","","","","","","","key","j","6.9698346456692475","768","428","j","true","img/T_ambi40.png","三角","word_first",""
"","","","","","html-keyboard-response","232","498906","0.0-13.0-1.0-1.0-0.0-1.36","null","<span style='color:GreenYellow; font-size: 70px;'>正确! </span>","null","","","","","","","","","","","","","","","","","","","","","","","feedback_test"
"","","","","","psychophysics","233","500793","0.0-13.0-1.0-1.0-0.0-0.37","736","","j","","","","","","","","","","","","","key","j","7.019354477611851","768","428","j","true","img/S_ambi40.png","方形","word_first",""
"","","","","","html-keyboard-response","234","501106","0.0-13.0-1.0-1.0-0.0-1.37","null","<span style='color:GreenYellow; font-size: 70px;'>正确! </span>","null","","","","","","","","","","","","","","","","","","","","","","","feedback_test"
"","","","","","psychophysics","235","503126","0.0-13.0-1.0-1.0-0.0-0.38","869","","f","","","","","","","","","","","","","key","f","7.065284210526417","768","428","f","true","img/C_ambi40.png","方形","word_first",""
"","","","","","html-keyboard-response","236","503446","0.0-13.0-1.0-1.0-0.0-1.38","null","<span style='color:GreenYellow; font-size: 70px;'>正确! </span>","null","","","","","","","","","","","","","","","","","","","","","","","feedback_test"
"","","","","","psychophysics","237","505283","0.0-13.0-1.0-1.0-0.0-0.39","686","","f","","","","","","","","","","","","","key","f","6.943422053231921","768","428","f","true","img/S_ambi40.png","三角","word_first",""
"","","","","","html-keyboard-response","238","505586","0.0-13.0-1.0-1.0-0.0-1.39","null","<span style='color:GreenYellow; font-size: 70px;'>正确! </span>","null","","","","","","","","","","","","","","","","","","","","","","","feedback_test"
"","","","","","psychophysics","239","507254","0.0-13.0-1.0-1.0-0.0-0.40","518","","j","","","","","","","","","","","","","key","j","6.9434267782428885","768","428","j","true","img/C_ambi40.png","圆形","word_first",""
"","","","","","html-keyboard-response","240","507563","0.0-13.0-1.0-1.0-0.0-1.40","null","<span style='color:GreenYellow; font-size: 70px;'>正确! </span>","null","","","","","","","","","","","","","","","","","","","","","","","feedback_test"
"","","","","","psychophysics","241","509263","0.0-13.0-1.0-1.0-0.0-0.41","549","","f","","","","","","","","","","","","","key","f","7.059573221757373","768","428","f","true","img/S_ambi40.png","圆形","word_first",""
"","","","","","html-keyboard-response","242","509572","0.0-13.0-1.0-1.0-0.0-1.41","null","<span style='color:GreenYellow; font-size: 70px;'>正确! </span>","null","","","","","","","","","","","","","","","","","","","","","","","feedback_test"
"","","","","","psychophysics","243","511340","0.0-13.0-1.0-1.0-0.0-0.42","612","","f","","","","","","","","","","","","","key","f","7.602012931034551","768","428","f","true","img/T_ambi40.png","圆形","word_first",""
"","","","","","html-keyboard-response","244","511647","0.0-13.0-1.0-1.0-0.0-1.42","null","<span style='color:GreenYellow; font-size: 70px;'>正确! </span>","null","","","","","","","","","","","","","","","","","","","","","","","feedback_test"
"","","","","","psychophysics","245","513224","0.0-13.0-1.0-1.0-0.0-0.43","425","","j","","","","","","","","","","","","","key","j","7.19820642201796","768","428","j","true","img/C_ambi40.png","圆形","word_first",""
"","","","","","html-keyboard-response","246","513539","0.0-13.0-1.0-1.0-0.0-1.43","null","<span style='color:GreenYellow; font-size: 70px;'>正确! </span>","null","","","","","","","","","","","","","","","","","","","","","","","feedback_test"
"","","","","","psychophysics","247","515481","0.0-13.0-1.0-1.0-0.0-0.44","789","","f","","","","","","","","","","","","","key","f","7.123055350553499","768","428","f","true","img/C_ambi40.png","三角","word_first",""
"","","","","","html-keyboard-response","248","515785","0.0-13.0-1.0-1.0-0.0-1.44","null","<span style='color:GreenYellow; font-size: 70px;'>正确! </span>","null","","","","","","","","","","","","","","","","","","","","","","","feedback_test"
"","","","","","psychophysics","249","517447","0.0-13.0-1.0-1.0-0.0-0.45","511","","j","","","","","","","","","","","","","key","j","7.122999999999843","768","428","j","true","img/S_ambi40.png","方形","word_first",""
"","","","","","html-keyboard-response","250","517761","0.0-13.0-1.0-1.0-0.0-1.45","null","<span style='color:GreenYellow; font-size: 70px;'>正确! </span>","null","","","","","","","","","","","","","","","","","","","","","","","feedback_test"
"","","","","","psychophysics","251","519299","0.0-13.0-1.0-1.0-0.0-0.46","386","","j","","","","","","","","","","","","","key","j","7.240289099526071","768","428","f","false","img/T_ambi40.png","方形","word_first",""
"","","","","","html-keyboard-response","252","519606","0.0-13.0-1.0-1.0-0.0-1.46","null","<span style='color:red; font-size: 70px;'>错误! </span>","null","","","","","","","","","","","","","","","","","","","","","","","feedback_test"
"","","","","","psychophysics","253","521330","0.0-13.0-1.0-1.0-0.0-0.47","570","","j","","","","","","","","","","","","","key","j","7.20604201680648","768","428","j","true","img/T_ambi40.png","三角","word_first",""
"","","","","","html-keyboard-response","254","521633","0.0-13.0-1.0-1.0-0.0-1.47","null","<span style='color:GreenYellow; font-size: 70px;'>正确! </span>","null","","","","","","","","","","","","","","","","","","","","","","","feedback_test"
"","","","","","psychophysics","255","523300","0.0-13.0-1.0-1.0-0.0-0.48","514","","j","","","","","","","","","","","","","key","j","7.215113043478366","768","428","j","true","img/T_ambi40.png","三角","word_first",""
"","","","","","html-keyboard-response","256","523621","0.0-13.0-1.0-1.0-0.0-1.48","null","<span style='color:GreenYellow; font-size: 70px;'>正确! </span>","null","","","","","","","","","","","","","","","","","","","","","","","feedback_test"
"","","","","","psychophysics","257","525325","0.0-13.0-1.0-1.0-0.0-0.49","551","","j","","","","","","","","","","","","","key","j","7.879809302325512","768","428","j","true","img/T_ambi40.png","三角","word_first",""
"","","","","","html-keyboard-response","258","525641","0.0-13.0-1.0-1.0-0.0-1.49","null","<span style='color:GreenYellow; font-size: 70px;'>正确! </span>","null","","","","","","","","","","","","","","","","","","","","","","","feedback_test"
"","","","","","psychophysics","259","527346","0.0-13.0-1.0-1.0-0.0-0.50","553","","f","","","","","","","","","","","","","key","f","7.239446808510718","768","428","f","true","img/S_ambi40.png","圆形","word_first",""
"","","","","","html-keyboard-response","260","527660","0.0-13.0-1.0-1.0-0.0-1.50","null","<span style='color:GreenYellow; font-size: 70px;'>正确! </span>","null","","","","","","","","","","","","","","","","","","","","","","","feedback_test"
"","","","","","psychophysics","261","529742","0.0-13.0-1.0-1.0-0.0-0.51","923","","j","","","","","","","","","","","","","key","j","7.362556737588375","768","428","f","false","img/C_ambi40.png","三角","word_first",""
"","","","","","html-keyboard-response","262","530051","0.0-13.0-1.0-1.0-0.0-1.51","null","<span style='color:red; font-size: 70px;'>错误! </span>","null","","","","","","","","","","","","","","","","","","","","","","","feedback_test"
"","","","","","psychophysics","263","531628","0.0-13.0-1.0-1.0-0.0-0.52","425","","j","","","","","","","","","","","","","key","j","7.475090909090882","768","428","j","true","img/C_ambi40.png","圆形","word_first",""
"","","","","","html-keyboard-response","264","531945","0.0-13.0-1.0-1.0-0.0-1.52","null","<span style='color:GreenYellow; font-size: 70px;'>正确! </span>","null","","","","","","","","","","","","","","","","","","","","","","","feedback_test"
"","","","","","psychophysics","265","533638","0.0-13.0-1.0-1.0-0.0-0.53","541","","f","","","","","","","","","","","","","key","f","7.43294273127775","768","428","f","true","img/S_ambi40.png","三角","word_first",""
"","","","","","html-keyboard-response","266","533947","0.0-13.0-1.0-1.0-0.0-1.53","null","<span style='color:GreenYellow; font-size: 70px;'>正确! </span>","null","","","","","","","","","","","","","","","","","","","","","","","feedback_test"
"","","","","","psychophysics","267","535694","0.0-13.0-1.0-1.0-0.0-0.54","596","","f","","","","","","","","","","","","","key","f","7.819292792792932","768","428","f","true","img/T_ambi40.png","方形","word_first",""
"","","","","","html-keyboard-response","268","536005","0.0-13.0-1.0-1.0-0.0-1.54","null","<span style='color:GreenYellow; font-size: 70px;'>正确! </span>","null","","","","","","","","","","","","","","","","","","","","","","","feedback_test"
"","","","","","psychophysics","269","537654","0.0-13.0-1.0-1.0-0.0-0.55","487","","j","","","","","","","","","","","","","key","j","8.072108374384412","768","428","j","true","img/S_ambi40.png","方形","word_first",""
"","","","","","html-keyboard-response","270","537974","0.0-13.0-1.0-1.0-0.0-1.55","null","<span style='color:GreenYellow; font-size: 70px;'>正确! </span>","null","","","","","","","","","","","","","","","","","","","","","","","feedback_test"
"","","","","","psychophysics","271","539598","0.0-13.0-1.0-1.0-0.0-0.56","472","","f","","","","","","","","","","","","","key","f","7.8965000000002785","768","428","f","true","img/T_ambi40.png","圆形","word_first",""
"","","","","","html-keyboard-response","272","539907","0.0-13.0-1.0-1.0-0.0-1.56","null","<span style='color:GreenYellow; font-size: 70px;'>正确! </span>","null","","","","","","","","","","","","","","","","","","","","","","","feedback_test"
"","","","","","psychophysics","273","541493","0.0-13.0-1.0-1.0-0.0-0.57","436","","j","","","","","","","","","","","","","key","j","7.2970509259261975","768","428","f","false","img/C_ambi40.png","方形","word_first",""
"","","","","","html-keyboard-response","274","541812","0.0-13.0-1.0-1.0-0.0-1.57","null","<span style='color:red; font-size: 70px;'>错误! </span>","null","","","","","","","","","","","","","","","","","","","","","","","feedback_test"
"","","","","","psychophysics","275","543619","0.0-13.0-1.0-1.0-0.0-0.58","653","","j","","","","","","","","","","","","","key","j","8.065062780268887","768","428","j","true","img/S_ambi40.png","方形","word_first",""
"","","","","","html-keyboard-response","276","543931","0.0-13.0-1.0-1.0-0.0-1.58","null","<span style='color:GreenYellow; font-size: 70px;'>正确! </span>","null","","","","","","","","","","","","","","","","","","","","","","","feedback_test"
"","","","","","psychophysics","277","545550","0.0-13.0-1.0-1.0-0.0-0.59","466","","j","","","","","","","","","","","","","key","j","8.183142857143194","768","428","j","true","img/C_ambi40.png","圆形","word_first",""
"","","","","","html-keyboard-response","278","545870","0.0-13.0-1.0-1.0-0.0-1.59","null","<span style='color:GreenYellow; font-size: 70px;'>正确! </span>","null","","","","","","","","","","","","","","","","","","","","","","","feedback_test"
"","","","","","html-keyboard-response","279","548696","0.0-13.0-1.0-1.0-1.0","2824","<style>.context{color:white; font-size: 35px; line-height:40px}</style>                            <div><p class='context'>您正确回答了88% 的试次。</p><p class='context'>您的平均反应时为612毫秒。</p><p class='context'>请按任意键进入休息</p></div>"," ","","","","","","","","","","","","","","","","","","","","","","",""
"","","","","","html-button-response","280","590127","0.0-13.0-1.0-1.0-2.0","41429","
                    <p>您当前还剩余3组实验</p>
                    <p>现在是休息时间，当您结束休息后，您可以点击 结束休息 按钮 继续</p>
                    <p>建议休息时间还剩余<span id=""iii"">60</span>秒</p>","0","","","","","","","","","","","","","","","","","","","","","","",""
"","","","","","psychophysics","281","591939","0.0-13.0-1.0-1.0-0.1-0.60","657","","j","","","","","","","","","","","","","key","j","7.221979919678894","768","428","j","true","img/C_ambi40.png","圆形","word_first",""
"","","","","","html-keyboard-response","282","592251","0.0-13.0-1.0-1.0-0.1-1.60","null","<span style='color:GreenYellow; font-size: 70px;'>正确! </span>","null","","","","","","","","","","","","","","","","","","","","","","","feedback_test"
"","","","","","psychophysics","283","593869","0.0-13.0-1.0-1.0-0.1-0.61","467","","f","","","","","","","","","","","","","key","f","7.2890678733029945","768","428","f","true","img/T_ambi40.png","圆形","word_first",""
"","","","","","html-keyboard-response","284","594188","0.0-13.0-1.0-1.0-0.1-1.61","null","<span style='color:GreenYellow; font-size: 70px;'>正确! </span>","null","","","","","","","","","","","","","","","","","","","","","","","feedback_test"
"","","","","","psychophysics","285","595788","0.0-13.0-1.0-1.0-0.1-0.62","447","","j","","","","","","","","","","","","","key","j","7.361495370370836","768","428","f","false","img/C_ambi40.png","三角","word_first",""
"","","","","","html-keyboard-response","286","596108","0.0-13.0-1.0-1.0-0.1-1.62","null","<span style='color:red; font-size: 70px;'>错误! </span>","null","","","","","","","","","","","","","","","","","","","","","","","feedback_test"
"","","","","","psychophysics","287","597803","0.0-13.0-1.0-1.0-0.1-0.63","540","","f","","","","","","","","","","","","","key","f","7.305343478260582","768","428","f","true","img/C_ambi40.png","方形","word_first",""
"","","","","","html-keyboard-response","288","598106","0.0-13.0-1.0-1.0-0.1-1.63","null","<span style='color:GreenYellow; font-size: 70px;'>正确! </span>","null","","","","","","","","","","","","","","","","","","","","","","","feedback_test"
"","","","","","psychophysics","289","599819","0.0-13.0-1.0-1.0-0.1-0.64","563","","j","","","","","","","","","","","","","key","j","7.460938596491408","768","428","j","true","img/T_ambi40.png","三角","word_first",""
"","","","","","html-keyboard-response","290","600133","0.0-13.0-1.0-1.0-0.1-1.64","null","<span style='color:GreenYellow; font-size: 70px;'>正确! </span>","null","","","","","","","","","","","","","","","","","","","","","","","feedback_test"
"","","","","","psychophysics","291","601772","0.0-13.0-1.0-1.0-0.1-0.65","484","","j","","","","","","","","","","","","","key","j","8.199738693467443","768","428","j","true","img/S_ambi40.png","方形","word_first",""
"","","","","","html-keyboard-response","292","602082","0.0-13.0-1.0-1.0-0.1-1.65","null","<span style='color:GreenYellow; font-size: 70px;'>正确! </span>","null","","","","","","","","","","","","","","","","","","","","","","","feedback_test"
"","","","","","psychophysics","293","603753","0.0-13.0-1.0-1.0-0.1-0.66","519","","j","","","","","","","","","","","","","key","j","7.508841628959399","768","428","f","false","img/T_ambi40.png","方形","word_first",""
"","","","","","html-keyboard-response","294","604058","0.0-13.0-1.0-1.0-0.1-1.66","null","<span style='color:red; font-size: 70px;'>错误! </span>","null","","","","","","","","","","","","","","","","","","","","","","","feedback_test"
"","","","","","psychophysics","295","605671","0.0-13.0-1.0-1.0-0.1-0.67","458","","f","","","","","","","","","","","","","key","f","7.290686363636368","768","428","f","true","img/S_ambi40.png","三角","word_first",""
"","","","","","html-keyboard-response","296","605977","0.0-13.0-1.0-1.0-0.1-1.67","null","<span style='color:GreenYellow; font-size: 70px;'>正确! </span>","null","","","","","","","","","","","","","","","","","","","","","","","feedback_test"
"","","","","","psychophysics","297","607575","0.0-13.0-1.0-1.0-0.1-0.68","446","","j","","","","","","","","","","","","","key","j","7.194760180995547","768","428","j","true","img/T_ambi40.png","三角","word_first",""
"","","","","","html-keyboard-response","298","607881","0.0-13.0-1.0-1.0-0.1-1.68","null","<span style='color:GreenYellow; font-size: 70px;'>正确! </span>","null","","","","","","","","","","","","","","","","","","","","","","","feedback_test"
"","","","","","psychophysics","299","609524","0.0-13.0-1.0-1.0-0.1-0.69","492","","j","","","","","","","","","","","","","key","j","7.003124463519326","768","428","j","true","img/S_ambi40.png","方形","word_first",""
"","","","","","html-keyboard-response","300","609838","0.0-13.0-1.0-1.0-0.1-1.69","null","<span style='color:GreenYellow; font-size: 70px;'>正确! </span>","null","","","","","","","","","","","","","","","","","","","","","","","feedback_test"
"","","","","","psychophysics","301","611494","0.0-13.0-1.0-1.0-0.1-0.70","504","","j","","","","","","","","","","","","","key","j","6.972775423728616","768","428","j","true","img/C_ambi40.png","圆形","word_first",""
"","","","","","html-keyboard-response","302","611801","0.0-13.0-1.0-1.0-0.1-1.70","null","<span style='color:GreenYellow; font-size: 70px;'>正确! </span>","null","","","","","","","","","","","","","","","","","","","","","","","feedback_test"
"","","","","","psychophysics","303","613550","0.0-13.0-1.0-1.0-0.1-0.71","595","","j","","","","","","","","","","","","","key","j","6.971324000000022","768","428","f","false","img/S_ambi40.png","圆形","word_first",""
"","","","","","html-keyboard-response","304","613869","0.0-13.0-1.0-1.0-0.1-1.71","null","<span style='color:red; font-size: 70px;'>错误! </span>","null","","","","","","","","","","","","","","","","","","","","","","","feedback_test"
"","","","","","psychophysics","305","615500","0.0-13.0-1.0-1.0-0.1-0.72","475","","f","","","","","","","","","","","","","key","f","6.973304721030162","768","428","f","true","img/S_ambi40.png","三角","word_first",""
"","","","","","html-keyboard-response","306","615824","0.0-13.0-1.0-1.0-0.1-1.72","null","<span style='color:GreenYellow; font-size: 70px;'>正确! </span>","null","","","","","","","","","","","","","","","","","","","","","","","feedback_test"
"","","","","","psychophysics","307","617622","0.0-13.0-1.0-1.0-0.1-0.73","646","","j","","","","","","","","","","","","","key","j","7.404597510373572","768","428","f","false","img/T_ambi40.png","方形","word_first",""
"","","","","","html-keyboard-response","308","617934","0.0-13.0-1.0-1.0-0.1-1.73","null","<span style='color:red; font-size: 70px;'>错误! </span>","null","","","","","","","","","","","","","","","","","","","","","","","feedback_test"
"","","","","","psychophysics","309","619457","0.0-13.0-1.0-1.0-0.1-0.74","370","","j","","","","","","","","","","","","","key","j","7.242693779904298","768","428","j","true","img/C_ambi40.png","圆形","word_first",""
"","","","","","html-keyboard-response","310","619774","0.0-13.0-1.0-1.0-0.1-1.74","null","<span style='color:GreenYellow; font-size: 70px;'>正确! </span>","null","","","","","","","","","","","","","","","","","","","","","","","feedback_test"
"","","","","","psychophysics","311","621430","0.0-13.0-1.0-1.0-0.1-0.75","503","","j","","","","","","","","","","","","","key","j","7.1548565217389966","768","428","j","true","img/C_ambi40.png","圆形","word_first",""
"","","","","","html-keyboard-response","312","621746","0.0-13.0-1.0-1.0-0.1-1.75","null","<span style='color:GreenYellow; font-size: 70px;'>正确! </span>","null","","","","","","","","","","","","","","","","","","","","","","","feedback_test"
"","","","","","psychophysics","313","623379","0.0-13.0-1.0-1.0-0.1-0.76","480","","f","","","","","","","","","","","","","key","f","6.943606837606853","768","428","f","true","img/C_ambi40.png","方形","word_first",""
"","","","","","html-keyboard-response","314","623684","0.0-13.0-1.0-1.0-0.1-1.76","null","<span style='color:GreenYellow; font-size: 70px;'>正确! </span>","null","","","","","","","","","","","","","","","","","","","","","","","feedback_test"
"","","","","","psychophysics","315","625430","0.0-13.0-1.0-1.0-0.1-0.77","595","","j","","","","","","","","","","","","","key","j","8.188174528301527","768","428","j","true","img/T_ambi40.png","三角","word_first",""
"","","","","","html-keyboard-response","316","625742","0.0-13.0-1.0-1.0-0.1-1.77","null","<span style='color:GreenYellow; font-size: 70px;'>正确! </span>","null","","","","","","","","","","","","","","","","","","","","","","","feedback_test"
"","","","","","psychophysics","317","627394","0.0-13.0-1.0-1.0-0.1-0.78","500","","j","","","","","","","","","","","","","key","j","6.972898305084466","768","428","j","true","img/S_ambi40.png","方形","word_first",""
"","","","","","html-keyboard-response","318","627701","0.0-13.0-1.0-1.0-0.1-1.78","null","<span style='color:GreenYellow; font-size: 70px;'>正确! </span>","null","","","","","","","","","","","","","","","","","","","","","","","feedback_test"
"","","","","","psychophysics","319","629405","0.0-13.0-1.0-1.0-0.1-0.79","549","","f","","","","","","","","","","","","","key","f","7.029987551867517","768","428","f","true","img/S_ambi40.png","圆形","word_first",""
"","","","","","html-keyboard-response","320","629718","0.0-13.0-1.0-1.0-0.1-1.79","null","<span style='color:GreenYellow; font-size: 70px;'>正确! </span>","null","","","","","","","","","","","","","","","","","","","","","","","feedback_test"
"","","","","","psychophysics","321","631375","0.0-13.0-1.0-1.0-0.1-0.80","505","","j","","","","","","","","","","","","","key","j","7.002408510638262","768","428","j","true","img/T_ambi40.png","三角","word_first",""
"","","","","","html-keyboard-response","322","631690","0.0-13.0-1.0-1.0-0.1-1.80","null","<span style='color:GreenYellow; font-size: 70px;'>正确! </span>","null","","","","","","","","","","","","","","","","","","","","","","","feedback_test"
"","","","","","psychophysics","323","633334","0.0-13.0-1.0-1.0-0.1-0.81","493","","f","","","","","","","","","","","","","key","f","7.063714285714258","768","428","f","true","img/C_ambi40.png","三角","word_first",""
"","","","","","html-keyboard-response","324","633642","0.0-13.0-1.0-1.0-0.1-1.81","null","<span style='color:GreenYellow; font-size: 70px;'>正确! </span>","null","","","","","","","","","","","","","","","","","","","","","","","feedback_test"
"","","","","","psychophysics","325","635491","0.0-13.0-1.0-1.0-0.1-0.82","698","","f","","","","","","","","","","","","","key","f","7.159614785992475","768","428","f","true","img/T_ambi40.png","圆形","word_first",""
"","","","","","html-keyboard-response","326","635793","0.0-13.0-1.0-1.0-0.1-1.82","null","<span style='color:GreenYellow; font-size: 70px;'>正确! </span>","null","","","","","","","","","","","","","","","","","","","","","","","feedback_test"
"","","","","","psychophysics","327","637446","0.0-13.0-1.0-1.0-0.1-0.83","501","","j","","","","","","","","","","","","","key","j","7.154852173912704","768","428","j","true","img/S_ambi40.png","方形","word_first",""
"","","","","","html-keyboard-response","328","637764","0.0-13.0-1.0-1.0-0.1-1.83","null","<span style='color:GreenYellow; font-size: 70px;'>正确! </span>","null","","","","","","","","","","","","","","","","","","","","","","","feedback_test"
"","","","","","psychophysics","329","639426","0.0-13.0-1.0-1.0-0.1-0.84","509","","f","","","","","","","","","","","","","key","f","7.344653333333424","768","428","f","true","img/C_ambi40.png","三角","word_first",""
"","","","","","html-keyboard-response","330","639738","0.0-13.0-1.0-1.0-0.1-1.84","null","<span style='color:GreenYellow; font-size: 70px;'>正确! </span>","null","","","","","","","","","","","","","","","","","","","","","","","feedback_test"
"","","","","","psychophysics","331","641386","0.0-13.0-1.0-1.0-0.1-0.85","497","","j","","","","","","","","","","","","","key","j","8.27593434343439","768","428","j","true","img/C_ambi40.png","圆形","word_first",""
"","","","","","html-keyboard-response","332","641694","0.0-13.0-1.0-1.0-0.1-1.85","null","<span style='color:GreenYellow; font-size: 70px;'>正确! </span>","null","","","","","","","","","","","","","","","","","","","","","","","feedback_test"
"","","","","","psychophysics","333","643356","0.0-13.0-1.0-1.0-0.1-0.86","509","","j","","","","","","","","","","","","","key","j","7.217333333332933","768","428","j","true","img/C_ambi40.png","圆形","word_first",""
"","","","","","html-keyboard-response","334","643661","0.0-13.0-1.0-1.0-0.1-1.86","null","<span style='color:GreenYellow; font-size: 70px;'>正确! </span>","null","","","","","","","","","","","","","","","","","","","","","","","feedback_test"
"","","","","","psychophysics","335","645407","0.0-13.0-1.0-1.0-0.1-0.87","590","","j","","","","","","","","","","","","","key","j","7.3242025316456125","768","428","j","true","img/T_ambi40.png","三角","word_first",""
"","","","","","html-keyboard-response","336","645721","0.0-13.0-1.0-1.0-0.1-1.87","null","<span style='color:GreenYellow; font-size: 70px;'>正确! </span>","null","","","","","","","","","","","","","","","","","","","","","","","feedback_test"
"","","","","","psychophysics","337","647310","0.0-13.0-1.0-1.0-0.1-0.88","437","","j","","","","","","","","","","","","","key","j","7.228821917808058","768","428","j","true","img/T_ambi40.png","三角","word_first",""
"","","","","","html-keyboard-response","338","647631","0.0-13.0-1.0-1.0-0.1-1.88","null","<span style='color:GreenYellow; font-size: 70px;'>正确! </span>","null","","","","","","","","","","","","","","","","","","","","","","","feedback_test"
"","","","","","psychophysics","339","649199","0.0-13.0-1.0-1.0-0.1-0.89","415","","f","","","","","","","","","","","","","key","f","7.302117370892132","768","428","f","true","img/S_ambi40.png","圆形","word_first",""
"","","","","","html-keyboard-response","340","649508","0.0-13.0-1.0-1.0-0.1-1.89","null","<span style='color:GreenYellow; font-size: 70px;'>正确! </span>","null","","","","","","","","","","","","","","","","","","","","","","","feedback_test"
"","","","","","psychophysics","341","651029","0.0-13.0-1.0-1.0-0.1-0.90","366","","j","","","","","","","","","","","","","key","j","7.459064356435786","768","428","f","false","img/T_ambi40.png","方形","word_first",""
"","","","","","html-keyboard-response","342","651351","0.0-13.0-1.0-1.0-0.1-1.90","null","<span style='color:red; font-size: 70px;'>错误! </span>","null","","","","","","","","","","","","","","","","","","","","","","","feedback_test"
"","","","","","psychophysics","343","652811","0.0-13.0-1.0-1.0-0.1-0.91","305","","j","","","","","","","","","","","","","key","j","7.185820895522272","768","428","j","true","img/S_ambi40.png","方形","word_first",""
"","","","","","html-keyboard-response","344","653118","0.0-13.0-1.0-1.0-0.1-1.91","null","<span style='color:GreenYellow; font-size: 70px;'>正确! </span>","null","","","","","","","","","","","","","","","","","","","","","","","feedback_test"
"","","","","","psychophysics","345","654544","0.0-13.0-1.0-1.0-0.1-0.92","275","","j","","","","","","","","","","","","","key","j","7.301355670103035","768","428","f","false","img/C_ambi40.png","方形","word_first",""
"","","","","","html-keyboard-response","346","654863","0.0-13.0-1.0-1.0-0.1-1.92","null","<span style='color:red; font-size: 70px;'>错误! </span>","null","","","","","","","","","","","","","","","","","","","","","","","feedback_test"
"","","","","","psychophysics","347","656507","0.0-13.0-1.0-1.0-0.1-0.93","491","","f","","","","","","","","","","","","","key","f","7.315504464285498","768","428","f","true","img/T_ambi40.png","圆形","word_first",""
"","","","","","html-keyboard-response","348","656814","0.0-13.0-1.0-1.0-0.1-1.93","null","<span style='color:GreenYellow; font-size: 70px;'>正确! </span>","null","","","","","","","","","","","","","","","","","","","","","","","feedback_test"
"","","","","","psychophysics","349","658572","0.0-13.0-1.0-1.0-0.1-0.94","603","","f","","","","","","","","","","","","","key","f","7.200580246913258","768","428","f","true","img/S_ambi40.png","三角","word_first",""
"","","","","","html-keyboard-response","350","658892","0.0-13.0-1.0-1.0-0.1-1.94","null","<span style='color:GreenYellow; font-size: 70px;'>正确! </span>","null","","","","","","","","","","","","","","","","","","","","","","","feedback_test"
"","","","","","psychophysics","351","660502","0.0-13.0-1.0-1.0-0.1-0.95","456","","j","","","","","","","","","","","","","key","j","7.258981818181928","768","428","j","true","img/S_ambi40.png","方形","word_first",""
"","","","","","html-keyboard-response","352","660820","0.0-13.0-1.0-1.0-0.1-1.95","null","<span style='color:GreenYellow; font-size: 70px;'>正确! </span>","null","","","","","","","","","","","","","","","","","","","","","","","feedback_test"
"","","","","","psychophysics","353","662473","0.0-13.0-1.0-1.0-0.1-0.96","501","","j","","","","","","","","","","","","","key","j","7.414764705882618","768","428","j","true","img/S_ambi40.png","方形","word_first",""
"","","","","","html-keyboard-response","354","662787","0.0-13.0-1.0-1.0-0.1-1.96","null","<span style='color:GreenYellow; font-size: 70px;'>正确! </span>","null","","","","","","","","","","","","","","","","","","","","","","","feedback_test"
"","","","","","psychophysics","355","664479","0.0-13.0-1.0-1.0-0.1-0.97","538","","f","","","","","","","","","","","","","key","f","7.241699570815415","768","428","f","true","img/C_ambi40.png","方形","word_first",""
"","","","","","html-keyboard-response","356","664788","0.0-13.0-1.0-1.0-0.1-1.97","null","<span style='color:GreenYellow; font-size: 70px;'>正确! </span>","null","","","","","","","","","","","","","","","","","","","","","","","feedback_test"
"","","","","","psychophysics","357","666446","0.0-13.0-1.0-1.0-0.1-0.98","507","","j","","","","","","","","","","","","","key","j","7.062635193133223","768","428","j","true","img/C_ambi40.png","圆形","word_first",""
"","","","","","html-keyboard-response","358","666761","0.0-13.0-1.0-1.0-0.1-1.98","null","<span style='color:GreenYellow; font-size: 70px;'>正确! </span>","null","","","","","","","","","","","","","","","","","","","","","","","feedback_test"
"","","","","","psychophysics","359","668450","0.0-13.0-1.0-1.0-0.1-0.99","537","","f","","","","","","","","","","","","","key","f","7.059882352941086","768","428","j","false","img/T_ambi40.png","三角","word_first",""
"","","","","","html-keyboard-response","360","668766","0.0-13.0-1.0-1.0-0.1-1.99","null","<span style='color:red; font-size: 70px;'>错误! </span>","null","","","","","","","","","","","","","","","","","","","","","","","feedback_test"
"","","","","","psychophysics","361","670743","0.0-13.0-1.0-1.0-0.1-0.100","824","","j","","","","","","","","","","","","","key","j","7.018153571428515","768","428","j","true","img/S_ambi40.png","方形","word_first",""
"","","","","","html-keyboard-response","362","671058","0.0-13.0-1.0-1.0-0.1-1.100","null","<span style='color:GreenYellow; font-size: 70px;'>正确! </span>","null","","","","","","","","","","","","","","","","","","","","","","","feedback_test"
"","","","","","psychophysics","363","672741","0.0-13.0-1.0-1.0-0.1-0.101","529","","f","","","","","","","","","","","","","key","f","7.676252293577759","768","428","f","true","img/C_ambi40.png","三角","word_first",""
"","","","","","html-keyboard-response","364","673050","0.0-13.0-1.0-1.0-0.1-1.101","null","<span style='color:GreenYellow; font-size: 70px;'>正确! </span>","null","","","","","","","","","","","","","","","","","","","","","","","feedback_test"
"","","","","","psychophysics","365","674930","0.0-13.0-1.0-1.0-0.1-0.102","726","","f","","","","","","","","","","","","","key","f","7.182823754789511","768","428","f","true","img/T_ambi40.png","方形","word_first",""
"","","","","","html-keyboard-response","366","675238","0.0-13.0-1.0-1.0-0.1-1.102","null","<span style='color:GreenYellow; font-size: 70px;'>正确! </span>","null","","","","","","","","","","","","","","","","","","","","","","","feedback_test"
"","","","","","psychophysics","367","676905","0.0-13.0-1.0-1.0-0.1-0.103","515","","f","","","","","","","","","","","","","key","f","6.943504201680688","768","428","f","true","img/S_ambi40.png","圆形","word_first",""
"","","","","","html-keyboard-response","368","677211","0.0-13.0-1.0-1.0-0.1-1.103","null","<span style='color:GreenYellow; font-size: 70px;'>正确! </span>","null","","","","","","","","","","","","","","","","","","","","","","","feedback_test"
"","","","","","psychophysics","369","678850","0.0-13.0-1.0-1.0-0.1-0.104","487","","j","","","","","","","","","","","","","key","j","7.00276394849773","768","428","j","true","img/C_ambi40.png","圆形","word_first",""
"","","","","","html-keyboard-response","370","679166","0.0-13.0-1.0-1.0-0.1-1.104","null","<span style='color:GreenYellow; font-size: 70px;'>正确! </span>","null","","","","","","","","","","","","","","","","","","","","","","","feedback_test"
"","","","","","psychophysics","371","680961","0.0-13.0-1.0-1.0-0.1-0.105","641","","f","","","","","","","","","","","","","key","f","6.9976171874996","768","428","f","true","img/S_ambi40.png","三角","word_first",""
"","","","","","html-keyboard-response","372","681279","0.0-13.0-1.0-1.0-0.1-1.105","null","<span style='color:GreenYellow; font-size: 70px;'>正确! </span>","null","","","","","","","","","","","","","","","","","","","","","","","feedback_test"
"","","","","","psychophysics","373","683095","0.0-13.0-1.0-1.0-0.1-0.106","663","","f","","","","","","","","","","","","","key","f","6.9704362934362685","768","428","f","true","img/T_ambi40.png","圆形","word_first",""
"","","","","","html-keyboard-response","374","683415","0.0-13.0-1.0-1.0-0.1-1.106","null","<span style='color:GreenYellow; font-size: 70px;'>正确! </span>","null","","","","","","","","","","","","","","","","","","","","","","","feedback_test"
"","","","","","psychophysics","375","685290","0.0-13.0-1.0-1.0-0.1-0.107","720","","j","","","","","","","","","","","","","key","j","7.048800000000113","768","428","j","true","img/T_ambi40.png","三角","word_first",""
"","","","","","html-keyboard-response","376","685603","0.0-13.0-1.0-1.0-0.1-1.107","null","<span style='color:GreenYellow; font-size: 70px;'>正确! </span>","null","","","","","","","","","","","","","","","","","","","","","","","feedback_test"
"","","","","","psychophysics","377","687235","0.0-13.0-1.0-1.0-0.1-0.108","477","","j","","","","","","","","","","","","","key","j","7.926190243902752","768","428","j","true","img/T_ambi40.png","三角","word_first",""
"","","","","","html-keyboard-response","378","687542","0.0-13.0-1.0-1.0-0.1-1.108","null","<span style='color:GreenYellow; font-size: 70px;'>正确! </span>","null","","","","","","","","","","","","","","","","","","","","","","","feedback_test"
"","","","","","psychophysics","379","689112","0.0-13.0-1.0-1.0-0.1-0.109","418","","j","","","","","","","","","","","","","key","j","7.1011863636366215","768","428","j","true","img/T_ambi40.png","三角","word_first",""
"","","","","","html-keyboard-response","380","689432","0.0-13.0-1.0-1.0-0.1-1.109","null","<span style='color:GreenYellow; font-size: 70px;'>正确! </span>","null","","","","","","","","","","","","","","","","","","","","","","","feedback_test"
"","","","","","psychophysics","381","691602","0.0-13.0-1.0-1.0-0.1-0.110","1019","","f","","","","","","","","","","","","","key","f","7.103342105263054","768","428","f","true","img/S_ambi40.png","三角","word_first",""
"","","","","","html-keyboard-response","382","691912","0.0-13.0-1.0-1.0-0.1-1.110","null","<span style='color:GreenYellow; font-size: 70px;'>正确! </span>","null","","","","","","","","","","","","","","","","","","","","","","","feedback_test"
"","","","","","psychophysics","383","693881","0.0-13.0-1.0-1.0-0.1-0.111","818","","f","","","","","","","","","","","","","key","f","7.146394160584237","768","428","f","true","img/C_ambi40.png","方形","word_first",""
"","","","","","html-keyboard-response","384","694188","0.0-13.0-1.0-1.0-0.1-1.111","null","<span style='color:GreenYellow; font-size: 70px;'>正确! </span>","null","","","","","","","","","","","","","","","","","","","","","","","feedback_test"
"","","","","","psychophysics","385","696417","0.0-13.0-1.0-1.0-0.1-0.112","1078","","f","","","","","","","","","","","","","key","f","7.60960273972588","768","428","f","true","img/T_ambi40.png","圆形","word_first",""
"","","","","","html-keyboard-response","386","696730","0.0-13.0-1.0-1.0-0.1-1.112","null","<span style='color:GreenYellow; font-size: 70px;'>正确! </span>","null","","","","","","","","","","","","","","","","","","","","","","","feedback_test"
"","","","","","psychophysics","387","698563","0.0-13.0-1.0-1.0-0.1-0.113","674","","f","","","","","","","","","","","","","key","f","7.245825396825297","768","428","f","true","img/C_ambi40.png","三角","word_first",""
"","","","","","html-keyboard-response","388","698868","0.0-13.0-1.0-1.0-0.1-1.113","null","<span style='color:GreenYellow; font-size: 70px;'>正确! </span>","null","","","","","","","","","","","","","","","","","","","","","","","feedback_test"
"","","","","","psychophysics","389","700513","0.0-13.0-1.0-1.0-0.1-0.114","489","","j","","","","","","","","","","","","","key","j","7.186947368421355","768","428","j","true","img/C_ambi40.png","圆形","word_first",""
"","","","","","html-keyboard-response","390","700821","0.0-13.0-1.0-1.0-0.1-1.114","null","<span style='color:GreenYellow; font-size: 70px;'>正确! </span>","null","","","","","","","","","","","","","","","","","","","","","","","feedback_test"
"","","","","","psychophysics","391","702573","0.0-13.0-1.0-1.0-0.1-0.115","601","","j","","","","","","","","","","","","","key","j","7.322789915966481","768","428","j","true","img/S_ambi40.png","方形","word_first",""
"","","","","","html-keyboard-response","392","702888","0.0-13.0-1.0-1.0-0.1-1.115","null","<span style='color:GreenYellow; font-size: 70px;'>正确! </span>","null","","","","","","","","","","","","","","","","","","","","","","","feedback_test"
"","","","","","psychophysics","393","704710","0.0-13.0-1.0-1.0-0.1-0.116","668","","f","","","","","","","","","","","","","key","f","7.278068273092141","768","428","f","true","img/T_ambi40.png","方形","word_first",""
"","","","","","html-keyboard-response","394","705020","0.0-13.0-1.0-1.0-0.1-1.116","null","<span style='color:GreenYellow; font-size: 70px;'>正确! </span>","null","","","","","","","","","","","","","","","","","","","","","","","feedback_test"
"","","","","","psychophysics","395","706613","0.0-13.0-1.0-1.0-0.1-0.117","439","","j","","","","","","","","","","","","","key","j","7.262119266055012","768","428","j","true","img/S_ambi40.png","方形","word_first",""
"","","","","","html-keyboard-response","396","706933","0.0-13.0-1.0-1.0-0.1-1.117","null","<span style='color:GreenYellow; font-size: 70px;'>正确! </span>","null","","","","","","","","","","","","","","","","","","","","","","","feedback_test"
"","","","","","psychophysics","397","708628","0.0-13.0-1.0-1.0-0.1-0.118","542","","j","","","","","","","","","","","","","key","j","7.304393939393697","768","428","j","true","img/C_ambi40.png","圆形","word_first",""
"","","","","","html-keyboard-response","398","708939","0.0-13.0-1.0-1.0-0.1-1.118","null","<span style='color:GreenYellow; font-size: 70px;'>正确! </span>","null","","","","","","","","","","","","","","","","","","","","","","","feedback_test"
"","","","","","psychophysics","399","710512","0.0-13.0-1.0-1.0-0.1-0.119","420","","j","","","","","","","","","","","","","key","j","7.367497652582168","768","428","f","false","img/S_ambi40.png","圆形","word_first",""
"","","","","","html-keyboard-response","400","710826","0.0-13.0-1.0-1.0-0.1-1.119","null","<span style='color:red; font-size: 70px;'>错误! </span>","null","","","","","","","","","","","","","","","","","","","","","","","feedback_test"
"","","","","","html-keyboard-response","401","713657","0.0-13.0-1.0-1.0-1.1","2830","<style>.context{color:white; font-size: 35px; line-height:40px}</style>                            <div><p class='context'>您正确回答了87% 的试次。</p><p class='context'>您的平均反应时为557毫秒。</p><p class='context'>请按任意键进入休息</p></div>"," ","","","","","","","","","","","","","","","","","","","","","","",""
"","","","","","html-button-response","402","745671","0.0-13.0-1.0-1.0-2.1","32011","
                    <p>您当前还剩余2组实验</p>
                    <p>现在是休息时间，当您结束休息后，您可以点击 结束休息 按钮 继续</p>
                    <p>建议休息时间还剩余<span id=""iii"">60</span>秒</p>","0","","","","","","","","","","","","","","","","","","","","","","",""
"","","","","","psychophysics","403","747948","0.0-13.0-1.0-1.0-0.2-0.120","1124","","j","","","","","","","","","","","","","key","j","7.278163987138141","768","428","f","false","img/T_ambi40.png","圆形","word_first",""
"","","","","","html-keyboard-response","404","748264","0.0-13.0-1.0-1.0-0.2-1.120","null","<span style='color:red; font-size: 70px;'>错误! </span>","null","","","","","","","","","","","","","","","","","","","","","","","feedback_test"
"","","","","","psychophysics","405","749964","0.0-13.0-1.0-1.0-0.2-0.121","548","","f","","","","","","","","","","","","","key","f","7.333926406926355","768","428","f","true","img/C_ambi40.png","三角","word_first",""
"","","","","","html-keyboard-response","406","750277","0.0-13.0-1.0-1.0-0.2-1.121","null","<span style='color:GreenYellow; font-size: 70px;'>正确! </span>","null","","","","","","","","","","","","","","","","","","","","","","","feedback_test"
"","","","","","psychophysics","407","752200","0.0-13.0-1.0-1.0-0.2-0.122","770","","f","","","","","","","","","","","","","key","f","7.951576763485304","768","428","f","true","img/S_ambi40.png","三角","word_first",""
"","","","","","html-keyboard-response","408","752510","0.0-13.0-1.0-1.0-0.2-1.122","null","<span style='color:GreenYellow; font-size: 70px;'>正确! </span>","null","","","","","","","","","","","","","","","","","","","","","","","feedback_test"
"","","","","","psychophysics","409","754165","0.0-13.0-1.0-1.0-0.2-0.123","504","","j","","","","","","","","","","","","","key","j","7.154708695652105","768","428","j","true","img/S_ambi40.png","方形","word_first",""
"","","","","","html-keyboard-response","410","754478","0.0-13.0-1.0-1.0-0.2-1.123","null","<span style='color:GreenYellow; font-size: 70px;'>正确! </span>","null","","","","","","","","","","","","","","","","","","","","","","","feedback_test"
"","","","","","psychophysics","411","756086","0.0-13.0-1.0-1.0-0.2-0.124","456","","j","","","","","","","","","","","","","key","j","7.066376106194386","768","428","j","true","img/T_ambi40.png","三角","word_first",""
"","","","","","html-keyboard-response","412","756408","0.0-13.0-1.0-1.0-0.2-1.124","null","<span style='color:GreenYellow; font-size: 70px;'>正确! </span>","null","","","","","","","","","","","","","","","","","","","","","","","feedback_test"
"","","","","","psychophysics","413","757971","0.0-13.0-1.0-1.0-0.2-0.125","412","","j","","","","","","","","","","","","","key","j","6.974627802690341","768","428","j","true","img/T_ambi40.png","三角","word_first",""
"","","","","","html-keyboard-response","414","758279","0.0-13.0-1.0-1.0-0.2-1.125","null","<span style='color:GreenYellow; font-size: 70px;'>正确! </span>","null","","","","","","","","","","","","","","","","","","","","","","","feedback_test"
"","","","","","psychophysics","415","759984","0.0-13.0-1.0-1.0-0.2-0.126","550","","f","","","","","","","","","","","","","key","f","8.024504716980891","768","428","f","true","img/T_ambi40.png","方形","word_first",""
"","","","","","html-keyboard-response","416","760296","0.0-13.0-1.0-1.0-0.2-1.126","null","<span style='color:GreenYellow; font-size: 70px;'>正确! </span>","null","","","","","","","","","","","","","","","","","","","","","","","feedback_test"
"","","","","","psychophysics","417","761986","0.0-13.0-1.0-1.0-0.2-0.127","539","","f","","","","","","","","","","","","","key","f","8.236759803921563","768","428","f","true","img/S_ambi40.png","圆形","word_first",""
"","","","","","html-keyboard-response","418","762293","0.0-13.0-1.0-1.0-0.2-1.127","null","<span style='color:GreenYellow; font-size: 70px;'>正确! </span>","null","","","","","","","","","","","","","","","","","","","","","","","feedback_test"
"","","","","","psychophysics","419","763824","0.0-13.0-1.0-1.0-0.2-0.128","377","","j","","","","","","","","","","","","","key","j","7.007279816513492","768","428","j","true","img/C_ambi40.png","圆形","word_first",""
"","","","","","html-keyboard-response","420","764130","0.0-13.0-1.0-1.0-0.2-1.128","null","<span style='color:GreenYellow; font-size: 70px;'>正确! </span>","null","","","","","","","","","","","","","","","","","","","","","","","feedback_test"
"","","","","","psychophysics","421","765825","0.0-13.0-1.0-1.0-0.2-0.129","544","","f","","","","","","","","","","","","","key","f","6.94296296296302","768","428","f","true","img/C_ambi40.png","方形","word_first",""
"","","","","","html-keyboard-response","422","766134","0.0-13.0-1.0-1.0-0.2-1.129","null","<span style='color:GreenYellow; font-size: 70px;'>正确! </span>","null","","","","","","","","","","","","","","","","","","","","","","","feedback_test"
"","","","","","psychophysics","423","767727","0.0-13.0-1.0-1.0-0.2-0.130","441","","j","","","","","","","","","","","","","key","j","6.943508771929804","768","428","j","true","img/S_ambi40.png","方形","word_first",""
"","","","","","html-keyboard-response","424","768040","0.0-13.0-1.0-1.0-0.2-1.130","null","<span style='color:GreenYellow; font-size: 70px;'>正确! </span>","null","","","","","","","","","","","","","","","","","","","","","","","feedback_test"
"","","","","","psychophysics","425","769667","0.0-13.0-1.0-1.0-0.2-0.131","473","","j","","","","","","","","","","","","","key","j","7.001380952381029","768","428","j","true","img/C_ambi40.png","圆形","word_first",""
"","","","","","html-keyboard-response","426","769974","0.0-13.0-1.0-1.0-0.2-1.131","null","<span style='color:GreenYellow; font-size: 70px;'>正确! </span>","null","","","","","","","","","","","","","","","","","","","","","","","feedback_test"
"","","","","","psychophysics","427","771742","0.0-13.0-1.0-1.0-0.2-0.132","616","","j","","","","","","","","","","","","","key","j","6.971309523809598","768","428","j","true","img/T_ambi40.png","三角","word_first",""
"","","","","","html-keyboard-response","428","772049","0.0-13.0-1.0-1.0-0.2-1.132","null","<span style='color:GreenYellow; font-size: 70px;'>正确! </span>","null","","","","","","","","","","","","","","","","","","","","","","","feedback_test"
"","","","","","psychophysics","429","773783","0.0-13.0-1.0-1.0-0.2-0.133","582","","j","","","","","","","","","","","","","key","j","7.390497854077397","768","428","j","true","img/C_ambi40.png","圆形","word_first",""
"","","","","","html-keyboard-response","430","774102","0.0-13.0-1.0-1.0-0.2-1.133","null","<span style='color:GreenYellow; font-size: 70px;'>正确! </span>","null","","","","","","","","","","","","","","","","","","","","","","","feedback_test"
"","","","","","psychophysics","431","775581","0.0-13.0-1.0-1.0-0.2-0.134","328","","j","","","","","","","","","","","","","key","j","6.943448113207815","768","428","f","false","img/S_ambi40.png","圆形","word_first",""
"","","","","","html-keyboard-response","432","775883","0.0-13.0-1.0-1.0-0.2-1.134","null","<span style='color:red; font-size: 70px;'>错误! </span>","null","","","","","","","","","","","","","","","","","","","","","","","feedback_test"
