"success","timeout","failed_images","failed_audio","failed_video","trial_type","trial_index","time_elapsed","internal_node_id","rt","stimulus","response","value","item_width_mm","item_height_mm","item_width_px","px2mm","view_dist_mm","item_width_deg","px2deg","scale_factor","win_width_deg","win_height_deg","view_history","response_type","key_press","avg_frame_time","center_x","center_y","correct_response","correct","Image","word","condition","screen_id"
"true","false","[]","[]","[]","preload","0","10306","0.0-0.0","","","","","","","","","","","","","","","","","","","","","","","","","",""
"","","","","","html-keyboard-response","1","26672","0.0-1.0","16365","
   <p>您好，欢迎参加本次实验。</p>
   <p>为充分保障您的权利，请确保您已经知晓并同意《参与实验同意书》以及《数据公开知情同意书》。</p>
   <p>如果您未见过上述内容，请咨询实验员。</p>
   <p>如果您选择继续实验，则表示您已经清楚两份知情同意书的内容并同意。</p>
   <p> <div style = ""color: green""><按任意键至下页></div> </p>
   ","q","","","","","","","","","","","","","","","","","","","","","","",""
"","","","","","html-keyboard-response","2","28756","0.0-2.0","2084","
   <p>本实验首先需要您填写一些基本个人信息。</p>
   <p> <div style = ""color: green""><按任意键至下页></div></p>
   ","q","","","","","","","","","","","","","","","","","","","","","","",""
"","","","","","call-function","3","28757","0.0-3.0-0.0","","","","","","","","","","","","","","","","","","","","","","","","","",""
"","","","","","survey-html-form","4","249273","0.0-3.0-1.0","220514","","{""Q0"":""24""}","","","","","","","","","","","","","","","","","","","","","","",""
"","","","","","html-button-response","5","250582","0.0-3.0-2.0","1308","<p style = 'color : white'>您的性别</p>","1","","","","","","","","","","","","","","","","","","","","","","",""
"","","","","","survey-html-form","6","257743","0.0-3.0-3.0","7161","","{""Q0"":""2001""}","","","","","","","","","","","","","","","","","","","","","","",""
"","","","","","survey-html-form","7","263388","0.0-3.0-4.0","5644","","{""Q0"":""5""}","","","","","","","","","","","","","","","","","","","","","","",""
"","","","","","virtual-chinrest","8","385972","0.0-4.0","122583","","","","85.6","53.98","390.3552056513653","4.55581653896452","627.24","7.8071041130273064","50","0.9965282757044217","29.8","14.92","","","","","","","","","","","",""
"true","","","","","fullscreen","9","389597","0.0-5.0","","","","","","","","","","","","","","","","","","","","","","","","","",""
"","","","","","instructions","10","468512","0.0-6.0","78914","","","","","","","","","","","","","","[{""page_index"":0,""viewing_time"":10274},{""page_index"":1,""viewing_time"":32274},{""page_index"":2,""viewing_time"":31504},{""page_index"":3,""viewing_time"":4862}]","","","","","","","","","","",""
"","","","","","psychophysics","11","471116","0.0-7.0-0.0-0.0","1451","","j","","","","","","","","","","","","","key","j","16.66445454545455","768","428","j","true","img/C_ambi40.png","三角","prac_image_first",""
"","","","","","html-keyboard-response","12","471424","0.0-7.0-0.0-1.0","null","<span style='color:GreenYellow; font-size: 70px;'>正确! </span>","null","","","","","","","","","","","","","","","","","","","","","","","feedback_test"
"","","","","","psychophysics","13","473956","0.0-7.0-0.0-0.1","1377","","f","","","","","","","","","","","","","key","f","16.66441447368408","768","428","f","true","img/T_ambi40.png","三角","prac_image_first",""
"","","","","","html-keyboard-response","14","474257","0.0-7.0-0.0-1.1","null","<span style='color:GreenYellow; font-size: 70px;'>正确! </span>","null","","","","","","","","","","","","","","","","","","","","","","","feedback_test"
"","","","","","psychophysics","15","476623","0.0-7.0-0.0-0.2","1207","","j","","","","","","","","","","","","","key","j","16.667338028168928","768","428","j","true","img/S_ambi40.png","圆形","prac_image_first",""
"","","","","","html-keyboard-response","16","476929","0.0-7.0-0.0-1.2","null","<span style='color:GreenYellow; font-size: 70px;'>正确! </span>","null","","","","","","","","","","","","","","","","","","","","","","","feedback_test"
"","","","","","psychophysics","17","479190","0.0-7.0-0.0-0.3","1106","","j","","","","","","","","","","","","","key","j","16.665199999999754","768","428","j","true","img/S_ambi40.png","三角","prac_image_first",""
"","","","","","html-keyboard-response","18","479505","0.0-7.0-0.0-1.3","null","<span style='color:GreenYellow; font-size: 70px;'>正确! </span>","null","","","","","","","","","","","","","","","","","","","","","","","feedback_test"
"","","","","","psychophysics","19","481412","0.0-7.0-0.0-0.4","754","","f","","","","","","","","","","","","","key","f","16.66439473684244","768","428","f","true","img/C_ambi40.png","圆形","prac_image_first",""
"","","","","","html-keyboard-response","20","481723","0.0-7.0-0.0-1.4","null","<span style='color:GreenYellow; font-size: 70px;'>正确! </span>","null","","","","","","","","","","","","","","","","","","","","","","","feedback_test"
"","","","","","psychophysics","21","483635","0.0-7.0-0.0-0.5","760","","f","","","","","","","","","","","","","key","f","16.666034782609053","768","428","f","true","img/T_ambi40.png","三角","prac_image_first",""
"","","","","","html-keyboard-response","22","483936","0.0-7.0-0.0-1.5","null","<span style='color:GreenYellow; font-size: 70px;'>正确! </span>","null","","","","","","","","","","","","","","","","","","","","","","","feedback_test"
"","","","","","psychophysics","23","486037","0.0-7.0-0.0-0.6","945","","f","","","","","","","","","","","","","key","f","16.661277777777748","768","428","f","true","img/S_ambi40.png","方形","prac_image_first",""
"","","","","","html-keyboard-response","24","486339","0.0-7.0-0.0-1.6","null","<span style='color:GreenYellow; font-size: 70px;'>正确! </span>","null","","","","","","","","","","","","","","","","","","","","","","","feedback_test"
"","","","","","psychophysics","25","488272","0.0-7.0-0.0-0.7","778","","f","","","","","","","","","","","","","key","f","16.66432173913041","768","428","f","true","img/C_ambi40.png","圆形","prac_image_first",""
"","","","","","html-keyboard-response","26","488586","0.0-7.0-0.0-1.7","null","<span style='color:GreenYellow; font-size: 70px;'>正确! </span>","null","","","","","","","","","","","","","","","","","","","","","","","feedback_test"
"","","","","","psychophysics","27","490387","0.0-7.0-0.0-0.8","643","","j","","","","","","","","","","","","","key","j","16.66336111111148","768","428","j","true","img/T_ambi40.png","方形","prac_image_first",""
"","","","","","html-keyboard-response","28","490696","0.0-7.0-0.0-1.8","null","<span style='color:GreenYellow; font-size: 70px;'>正确! </span>","null","","","","","","","","","","","","","","","","","","","","","","","feedback_test"
"","","","","","psychophysics","29","492807","0.0-7.0-0.0-0.9","959","","j","","","","","","","","","","","","","key","j","16.665642857142736","768","428","j","true","img/C_ambi40.png","方形","prac_image_first",""
"","","","","","html-keyboard-response","30","493118","0.0-7.0-0.0-1.9","null","<span style='color:GreenYellow; font-size: 70px;'>正确! </span>","null","","","","","","","","","","","","","","","","","","","","","","","feedback_test"
"","","","","","psychophysics","31","495070","0.0-7.0-0.0-0.10","799","","f","","","","","","","","","","","","","key","f","16.660948717948767","768","428","f","true","img/S_ambi40.png","方形","prac_image_first",""
"","","","","","html-keyboard-response","32","495380","0.0-7.0-0.0-1.10","null","<span style='color:GreenYellow; font-size: 70px;'>正确! </span>","null","","","","","","","","","","","","","","","","","","","","","","","feedback_test"
"","","","","","psychophysics","33","497826","0.0-7.0-0.0-0.11","1295","","j","","","","","","","","","","","","","key","j","16.664821917808307","768","428","j","true","img/T_ambi40.png","圆形","prac_image_first",""
"","","","","","html-keyboard-response","34","498140","0.0-7.0-0.0-1.11","null","<span style='color:GreenYellow; font-size: 70px;'>正确! </span>","null","","","","","","","","","","","","","","","","","","","","","","","feedback_test"
"","","","","","psychophysics","35","500317","0.0-7.0-0.0-0.12","1024","","f","","","","","","","","","","","","","key","f","16.663161538461168","768","428","f","true","img/T_ambi40.png","三角","prac_image_first",""
"","","","","","html-keyboard-response","36","500619","0.0-7.0-0.0-1.12","null","<span style='color:GreenYellow; font-size: 70px;'>正确! </span>","null","","","","","","","","","","","","","","","","","","","","","","","feedback_test"
"","","","","","psychophysics","37","502683","0.0-7.0-0.0-0.13","908","","j","","","","","","","","","","","","","key","j","16.664395161290397","768","428","j","true","img/T_ambi40.png","圆形","prac_image_first",""
"","","","","","html-keyboard-response","38","502993","0.0-7.0-0.0-1.13","null","<span style='color:GreenYellow; font-size: 70px;'>正确! </span>","null","","","","","","","","","","","","","","","","","","","","","","","feedback_test"
"","","","","","psychophysics","39","505350","0.0-7.0-0.0-0.14","1203","","j","","","","","","","","","","","","","key","j","16.783609929078025","768","428","j","true","img/T_ambi40.png","方形","prac_image_first",""
"","","","","","html-keyboard-response","40","505653","0.0-7.0-0.0-1.14","null","<span style='color:GreenYellow; font-size: 70px;'>正确! </span>","null","","","","","","","","","","","","","","","","","","","","","","","feedback_test"
"","","","","","psychophysics","41","507704","0.0-7.0-0.0-0.15","897","","f","","","","","","","","","","","","","key","f","16.66281967213116","768","428","f","true","img/C_ambi40.png","圆形","prac_image_first",""
"","","","","","html-keyboard-response","42","508013","0.0-7.0-0.0-1.15","null","<span style='color:GreenYellow; font-size: 70px;'>正确! </span>","null","","","","","","","","","","","","","","","","","","","","","","","feedback_test"
"","","","","","psychophysics","43","510225","0.0-7.0-0.0-0.16","1061","","f","","","","","","","","","","","","","key","f","16.661053030303183","768","428","f","true","img/S_ambi40.png","方形","prac_image_first",""
"","","","","","html-keyboard-response","44","510540","0.0-7.0-0.0-1.16","null","<span style='color:GreenYellow; font-size: 70px;'>正确! </span>","null","","","","","","","","","","","","","","","","","","","","","","","feedback_test"
"","","","","","psychophysics","45","512555","0.0-7.0-0.0-0.17","860","","j","","","","","","","","","","","","","key","j","16.804999999999804","768","428","j","true","img/C_ambi40.png","三角","prac_image_first",""
"","","","","","html-keyboard-response","46","512861","0.0-7.0-0.0-1.17","null","<span style='color:GreenYellow; font-size: 70px;'>正确! </span>","null","","","","","","","","","","","","","","","","","","","","","","","feedback_test"
"","","","","","psychophysics","47","514819","0.0-7.0-0.0-0.18","808","","f","","","","","","","","","","","","","key","f","16.664482758621332","768","428","f","true","img/T_ambi40.png","三角","prac_image_first",""
"","","","","","html-keyboard-response","48","515130","0.0-7.0-0.0-1.18","null","<span style='color:GreenYellow; font-size: 70px;'>正确! </span>","null","","","","","","","","","","","","","","","","","","","","","","","feedback_test"
"","","","","","psychophysics","49","517180","0.0-7.0-0.0-0.19","898","","f","","","","","","","","","","","","","key","f","16.66408130081325","768","428","f","true","img/S_ambi40.png","方形","prac_image_first",""
"","","","","","html-keyboard-response","50","517487","0.0-7.0-0.0-1.19","null","<span style='color:GreenYellow; font-size: 70px;'>正确! </span>","null","","","","","","","","","","","","","","","","","","","","","","","feedback_test"
"","","","","","psychophysics","51","519482","0.0-7.0-0.0-0.20","839","","j","","","","","","","","","","","","","key","j","16.66397500000021","768","428","j","true","img/C_ambi40.png","方形","prac_image_first",""
"","","","","","html-keyboard-response","52","519796","0.0-7.0-0.0-1.20","null","<span style='color:GreenYellow; font-size: 70px;'>正确! </span>","null","","","","","","","","","","","","","","","","","","","","","","","feedback_test"
"","","","","","psychophysics","53","521967","0.0-7.0-0.0-0.21","1020","","j","","","","","","","","","","","","","key","j","16.661914728682078","768","428","j","true","img/S_ambi40.png","三角","prac_image_first",""
"","","","","","html-keyboard-response","54","522268","0.0-7.0-0.0-1.21","null","<span style='color:GreenYellow; font-size: 70px;'>正确! </span>","null","","","","","","","","","","","","","","","","","","","","","","","feedback_test"
"","","","","","psychophysics","55","524282","0.0-7.0-0.0-0.22","860","","j","","","","","","","","","","","","","key","j","16.664611570247494","768","428","j","true","img/S_ambi40.png","圆形","prac_image_first",""
"","","","","","html-keyboard-response","56","524585","0.0-7.0-0.0-1.22","null","<span style='color:GreenYellow; font-size: 70px;'>正确! </span>","null","","","","","","","","","","","","","","","","","","","","","","","feedback_test"
"","","","","","psychophysics","57","526541","0.0-7.0-0.0-0.23","799","","f","","","","","","","","","","","","","key","f","16.66529059829091","768","428","f","true","img/C_ambi40.png","圆形","prac_image_first",""
"","","","","","html-keyboard-response","58","526849","0.0-7.0-0.0-1.23","null","<span style='color:GreenYellow; font-size: 70px;'>正确! </span>","null","","","","","","","","","","","","","","","","","","","","","","","feedback_test"
"","","","","","html-keyboard-response","59","531153","0.0-8.0","4302","<style>.context{color:white; font-size: 35px; line-height:40px}</style>                            <div><p class='context'>您正确回答了100% 的试次。</p><p class='context'>您的平均反应时为969毫秒。</p><p class='context'>恭喜您完成这一阶段的练习。按任意键进入<span style='color: yellow;'>先文字后图形条件</span>的练习。</p></div>"," ","","","","","","","","","","","","","","","","","","","","","","",""
"","","","","","psychophysics","60","533810","0.0-9.0-0.0-0.0","null","","null","","","","","","","","","","","","","key","null","16.665358490565406","768","428","j","false","img/S_ambi40.png","三角","prac_word_first",""
"","","","","","html-keyboard-response","61","534125","0.0-9.0-0.0-1.0","null","<span class='add_' style='color:yellow; font-size: 70px;'> 太慢! </span>","null","","","","","","","","","","","","","","","","","","","","","","","feedback_test"
"","","","","","psychophysics","62","535825","0.0-9.0-0.0-0.1","549","","f","","","","","","","","","","","","","key","f","16.668772277227454","768","428","f","true","img/C_ambi40.png","圆形","prac_word_first",""
"","","","","","html-keyboard-response","63","536140","0.0-9.0-0.0-1.1","null","<span style='color:GreenYellow; font-size: 70px;'>正确! </span>","null","","","","","","","","","","","","","","","","","","","","","","","feedback_test"
"","","","","","psychophysics","64","537956","0.0-9.0-0.0-0.2","663","","f","","","","","","","","","","","","","key","f","16.665129629628844","768","428","f","true","img/S_ambi40.png","方形","prac_word_first",""
"","","","","","html-keyboard-response","65","538260","0.0-9.0-0.0-1.2","null","<span style='color:GreenYellow; font-size: 70px;'>正确! </span>","null","","","","","","","","","","","","","","","","","","","","","","","feedback_test"
"","","","","","psychophysics","66","539895","0.0-9.0-0.0-0.3","469","","f","","","","","","","","","","","","","key","f","16.667123711339112","768","428","f","true","img/S_ambi40.png","方形","prac_word_first",""
"","","","","","html-keyboard-response","67","540205","0.0-9.0-0.0-1.3","null","<span style='color:GreenYellow; font-size: 70px;'>正确! </span>","null","","","","","","","","","","","","","","","","","","","","","","","feedback_test"
"","","","","","psychophysics","68","542121","0.0-9.0-0.0-0.4","763","","j","","","","","","","","","","","","","key","j","16.664850877192517","768","428","j","true","img/C_ambi40.png","三角","prac_word_first",""
"","","","","","html-keyboard-response","69","542435","0.0-9.0-0.0-1.4","null","<span style='color:GreenYellow; font-size: 70px;'>正确! </span>","null","","","","","","","","","","","","","","","","","","","","","","","feedback_test"
"","","","","","psychophysics","70","544296","0.0-9.0-0.0-0.5","705","","j","","","","","","","","","","","","","key","j","16.664702702702762","768","428","j","true","img/S_ambi40.png","圆形","prac_word_first",""
"","","","","","html-keyboard-response","71","544607","0.0-9.0-0.0-1.5","null","<span style='color:GreenYellow; font-size: 70px;'>正确! </span>","null","","","","","","","","","","","","","","","","","","","","","","","feedback_test"
"","","","","","psychophysics","72","546627","0.0-9.0-0.0-0.6","869","","j","","","","","","","","","","","","","key","j","16.679680672268766","768","428","j","true","img/C_ambi40.png","方形","prac_word_first",""
"","","","","","html-keyboard-response","73","546937","0.0-9.0-0.0-1.6","null","<span style='color:GreenYellow; font-size: 70px;'>正确! </span>","null","","","","","","","","","","","","","","","","","","","","","","","feedback_test"
"","","","","","psychophysics","74","548729","0.0-9.0-0.0-0.7","639","","j","","","","","","","","","","","","","key","j","16.563103773585027","768","428","j","true","img/T_ambi40.png","方形","prac_word_first",""
"","","","","","html-keyboard-response","75","549037","0.0-9.0-0.0-1.7","null","<span style='color:GreenYellow; font-size: 70px;'>正确! </span>","null","","","","","","","","","","","","","","","","","","","","","","","feedback_test"
"","","","","","psychophysics","76","550761","0.0-9.0-0.0-0.8","570","","j","","","","","","","","","","","","","key","j","16.82628155339767","768","428","j","true","img/T_ambi40.png","圆形","prac_word_first",""
"","","","","","html-keyboard-response","77","551075","0.0-9.0-0.0-1.8","null","<span style='color:GreenYellow; font-size: 70px;'>正确! </span>","null","","","","","","","","","","","","","","","","","","","","","","","feedback_test"
"","","","","","psychophysics","78","553064","0.0-9.0-0.0-0.9","839","","f","","","","","","","","","","","","","key","f","16.665403361344207","768","428","f","true","img/T_ambi40.png","三角","prac_word_first",""
"","","","","","html-keyboard-response","79","553376","0.0-9.0-0.0-1.9","null","<span style='color:GreenYellow; font-size: 70px;'>正确! </span>","null","","","","","","","","","","","","","","","","","","","","","","","feedback_test"
"","","","","","psychophysics","80","555093","0.0-9.0-0.0-0.10","561","","f","","","","","","","","","","","","","key","f","16.66560784313718","768","428","f","true","img/T_ambi40.png","三角","prac_word_first",""
"","","","","","html-keyboard-response","81","555406","0.0-9.0-0.0-1.10","null","<span style='color:GreenYellow; font-size: 70px;'>正确! </span>","null","","","","","","","","","","","","","","","","","","","","","","","feedback_test"
"","","","","","psychophysics","82","557188","0.0-9.0-0.0-0.11","631","","f","","","","","","","","","","","","","key","f","16.66067924528308","768","428","f","true","img/C_ambi40.png","圆形","prac_word_first",""
"","","","","","html-keyboard-response","83","557494","0.0-9.0-0.0-1.11","null","<span style='color:GreenYellow; font-size: 70px;'>正确! </span>","null","","","","","","","","","","","","","","","","","","","","","","","feedback_test"
"","","","","","psychophysics","84","559294","0.0-9.0-0.0-0.12","645","","f","","","","","","","","","","","","","key","f","16.66282407407373","768","428","f","true","img/C_ambi40.png","圆形","prac_word_first",""
"","","","","","html-keyboard-response","85","559609","0.0-9.0-0.0-1.12","null","<span style='color:GreenYellow; font-size: 70px;'>正确! </span>","null","","","","","","","","","","","","","","","","","","","","","","","feedback_test"
"","","","","","psychophysics","86","561469","0.0-9.0-0.0-0.13","702","","j","","","","","","","","","","","","","key","j","16.662100000000052","768","428","j","true","img/T_ambi40.png","圆形","prac_word_first",""
"","","","","","html-keyboard-response","87","561773","0.0-9.0-0.0-1.13","null","<span style='color:GreenYellow; font-size: 70px;'>正确! </span>","null","","","","","","","","","","","","","","","","","","","","","","","feedback_test"
"","","","","","psychophysics","88","563527","0.0-9.0-0.0-0.14","598","","f","","","","","","","","","","","","","key","f","16.66357142857187","768","428","f","true","img/T_ambi40.png","三角","prac_word_first",""
"","","","","","html-keyboard-response","89","563836","0.0-9.0-0.0-1.14","null","<span style='color:GreenYellow; font-size: 70px;'>正确! </span>","null","","","","","","","","","","","","","","","","","","","","","","","feedback_test"
"","","","","","psychophysics","90","566183","0.0-9.0-0.0-0.15","1195","","j","","","","","","","","","","","","","key","j","16.664949999999955","768","428","f","false","img/S_ambi40.png","方形","prac_word_first",""
"","","","","","html-keyboard-response","91","566489","0.0-9.0-0.0-1.15","null","<span style='color:red; font-size: 70px;'>错误! </span>","null","","","","","","","","","","","","","","","","","","","","","","","feedback_test"
"","","","","","psychophysics","92","568324","0.0-9.0-0.0-0.16","684","","j","","","","","","","","","","","","","key","j","16.664844036697186","768","428","j","true","img/T_ambi40.png","方形","prac_word_first",""
"","","","","","html-keyboard-response","93","568629","0.0-9.0-0.0-1.16","null","<span style='color:GreenYellow; font-size: 70px;'>正确! </span>","null","","","","","","","","","","","","","","","","","","","","","","","feedback_test"
"","","","","","psychophysics","94","571054","0.0-9.0-0.0-0.17","1266","","j","","","","","","","","","","","","","key","j","16.6647241379311","768","428","j","true","img/S_ambi40.png","圆形","prac_word_first",""
"","","","","","html-keyboard-response","95","571360","0.0-9.0-0.0-1.17","null","<span style='color:GreenYellow; font-size: 70px;'>正确! </span>","null","","","","","","","","","","","","","","","","","","","","","","","feedback_test"
"","","","","","psychophysics","96","573192","0.0-9.0-0.0-0.18","672","","j","","","","","","","","","","","","","key","j","16.667654545453843","768","428","j","true","img/S_ambi40.png","三角","prac_word_first",""
"","","","","","html-keyboard-response","97","573503","0.0-9.0-0.0-1.18","null","<span style='color:GreenYellow; font-size: 70px;'>正确! </span>","null","","","","","","","","","","","","","","","","","","","","","","","feedback_test"
"","","","","","psychophysics","98","575450","0.0-9.0-0.0-0.19","796","","f","","","","","","","","","","","","","key","f","16.66514655172319","768","428","f","true","img/T_ambi40.png","三角","prac_word_first",""
"","","","","","html-keyboard-response","99","575765","0.0-9.0-0.0-1.19","null","<span style='color:GreenYellow; font-size: 70px;'>正确! </span>","null","","","","","","","","","","","","","","","","","","","","","","","feedback_test"
"","","","","","psychophysics","100","577866","0.0-9.0-0.0-0.20","945","","j","","","","","","","","","","","","","key","j","16.798287999999708","768","428","j","true","img/C_ambi40.png","三角","prac_word_first",""
"","","","","","html-keyboard-response","101","578179","0.0-9.0-0.0-1.20","null","<span style='color:GreenYellow; font-size: 70px;'>正确! </span>","null","","","","","","","","","","","","","","","","","","","","","","","feedback_test"
"","","","","","psychophysics","102","579986","0.0-9.0-0.0-0.21","652","","f","","","","","","","","","","","","","key","f","16.66450467289678","768","428","f","true","img/S_ambi40.png","方形","prac_word_first",""
"","","","","","html-keyboard-response","103","580300","0.0-9.0-0.0-1.21","null","<span style='color:GreenYellow; font-size: 70px;'>正确! </span>","null","","","","","","","","","","","","","","","","","","","","","","","feedback_test"
"","","","","","psychophysics","104","582168","0.0-9.0-0.0-0.22","714","","f","","","","","","","","","","","","","key","f","16.6683963963957","768","428","f","true","img/C_ambi40.png","圆形","prac_word_first",""
"","","","","","html-keyboard-response","105","582469","0.0-9.0-0.0-1.22","null","<span style='color:GreenYellow; font-size: 70px;'>正确! </span>","null","","","","","","","","","","","","","","","","","","","","","","","feedback_test"
"","","","","","psychophysics","106","584456","0.0-9.0-0.0-0.23","836","","j","","","","","","","","","","","","","key","j","16.664033613445536","768","428","j","true","img/C_ambi40.png","方形","prac_word_first",""
"","","","","","html-keyboard-response","107","584765","0.0-9.0-0.0-1.23","null","<span style='color:GreenYellow; font-size: 70px;'>正确! </span>","null","","","","","","","","","","","","","","","","","","","","","","","feedback_test"
"","","","","","html-keyboard-response","108","589518","0.0-10.0","4752","<style>.context{color:white; font-size: 35px; line-height:40px}</style>                            <div><p class='context'>您正确回答了92% 的试次。</p><p class='context'>您的平均反应时为717毫秒。</p><p class='context'>恭喜您完成练习。按任意键进入<span style='color: yellow;'>图形和文字同时呈现条件</span>的练习。</p></div>"," ","","","","","","","","","","","","","","","","","","","","","","",""
"","","","","","psychophysics","109","591420","0.0-11.0-0.0-0.0","895","","j","","","","","","","","","","","","","key","j","16.661752212388787","768","428","j","true","img/C_ambi40.png","三角","prac_simultaneous",""
"","","","","","html-keyboard-response","110","591729","0.0-11.0-0.0-1.0","null","<span style='color:GreenYellow; font-size: 70px;'>正确! </span>","null","","","","","","","","","","","","","","","","","","","","","","","feedback_test"
"","","","","","psychophysics","111","593450","0.0-11.0-0.0-0.1","715","","j","","","","","","","","","","","","","key","j","16.664660194175525","768","428","j","true","img/S_ambi40.png","三角","prac_simultaneous",""
"","","","","","html-keyboard-response","112","593755","0.0-11.0-0.0-1.1","null","<span style='color:GreenYellow; font-size: 70px;'>正确! </span>","null","","","","","","","","","","","","","","","","","","","","","","","feedback_test"
"","","","","","psychophysics","113","595716","0.0-11.0-0.0-0.2","960","","f","","","","","","","","","","","","","key","f","16.664495726496092","768","428","f","true","img/T_ambi40.png","三角","prac_simultaneous",""
"","","","","","html-keyboard-response","114","596030","0.0-11.0-0.0-1.2","null","<span style='color:GreenYellow; font-size: 70px;'>正确! </span>","null","","","","","","","","","","","","","","","","","","","","","","","feedback_test"
"","","","","","psychophysics","115","597780","0.0-11.0-0.0-0.3","748","","f","","","","","","","","","","","","","key","f","16.663019047619862","768","428","f","true","img/C_ambi40.png","圆形","prac_simultaneous",""
"","","","","","html-keyboard-response","116","598095","0.0-11.0-0.0-1.3","null","<span style='color:GreenYellow; font-size: 70px;'>正确! </span>","null","","","","","","","","","","","","","","","","","","","","","","","feedback_test"
"","","","","","psychophysics","117","599811","0.0-11.0-0.0-0.4","714","","f","","","","","","","","","","","","","key","f","16.665339805825514","768","428","f","true","img/S_ambi40.png","方形","prac_simultaneous",""
"","","","","","html-keyboard-response","118","600125","0.0-11.0-0.0-1.4","null","<span style='color:GreenYellow; font-size: 70px;'>正确! </span>","null","","","","","","","","","","","","","","","","","","","","","","","feedback_test"
"","","","","","psychophysics","119","602050","0.0-11.0-0.0-0.5","924","","j","","","","","","","","","","","","","key","j","16.662000000000138","768","428","j","true","img/C_ambi40.png","方形","prac_simultaneous",""
"","","","","","html-keyboard-response","120","602358","0.0-11.0-0.0-1.5","null","<span style='color:GreenYellow; font-size: 70px;'>正确! </span>","null","","","","","","","","","","","","","","","","","","","","","","","feedback_test"
"","","","","","psychophysics","121","604474","0.0-11.0-0.0-0.6","1106","","f","","","","","","","","","","","","","key","f","16.664503937007815","768","428","f","true","img/S_ambi40.png","方形","prac_simultaneous",""
"","","","","","html-keyboard-response","122","604780","0.0-11.0-0.0-1.6","null","<span style='color:GreenYellow; font-size: 70px;'>正确! </span>","null","","","","","","","","","","","","","","","","","","","","","","","feedback_test"
"","","","","","psychophysics","123","606933","0.0-11.0-0.0-0.7","1152","","j","","","","","","","","","","","","","key","j","16.568257812499724","768","428","j","true","img/T_ambi40.png","方形","prac_simultaneous",""
"","","","","","html-keyboard-response","124","607243","0.0-11.0-0.0-1.7","null","<span style='color:GreenYellow; font-size: 70px;'>正确! </span>","null","","","","","","","","","","","","","","","","","","","","","","","feedback_test"
"","","","","","psychophysics","125","609736","0.0-11.0-0.0-0.8","1490","","f","","","","","","","","","","","","","key","f","16.663979999999672","768","428","f","true","img/T_ambi40.png","三角","prac_simultaneous",""
"","","","","","html-keyboard-response","126","610041","0.0-11.0-0.0-1.8","null","<span style='color:GreenYellow; font-size: 70px;'>正确! </span>","null","","","","","","","","","","","","","","","","","","","","","","","feedback_test"
"","","","","","psychophysics","127","611934","0.0-11.0-0.0-0.9","885","","j","","","","","","","","","","","","","key","j","16.665026315790193","768","428","j","true","img/T_ambi40.png","圆形","prac_simultaneous",""
"","","","","","html-keyboard-response","128","612236","0.0-11.0-0.0-1.9","null","<span style='color:GreenYellow; font-size: 70px;'>正确! </span>","null","","","","","","","","","","","","","","","","","","","","","","","feedback_test"
"","","","","","psychophysics","129","614052","0.0-11.0-0.0-0.10","806","","f","","","","","","","","","","","","","key","f","16.663453703703084","768","428","f","true","img/C_ambi40.png","圆形","prac_simultaneous",""
"","","","","","html-keyboard-response","130","614357","0.0-11.0-0.0-1.10","null","<span style='color:GreenYellow; font-size: 70px;'>正确! </span>","null","","","","","","","","","","","","","","","","","","","","","","","feedback_test"
"","","","","","psychophysics","131","616278","0.0-11.0-0.0-0.11","913","","j","","","","","","","","","","","","","key","j","16.6647565217385","768","428","j","true","img/S_ambi40.png","圆形","prac_simultaneous",""
"","","","","","html-keyboard-response","132","616586","0.0-11.0-0.0-1.11","null","<span style='color:GreenYellow; font-size: 70px;'>正确! </span>","null","","","","","","","","","","","","","","","","","","","","","","","feedback_test"
"","","","","","psychophysics","133","618585","0.0-11.0-0.0-0.12","987","","f","","","","","","","","","","","","","key","f","16.662541666666705","768","428","f","true","img/T_ambi40.png","三角","prac_simultaneous",""
"","","","","","html-keyboard-response","134","618895","0.0-11.0-0.0-1.12","null","<span style='color:GreenYellow; font-size: 70px;'>正确! </span>","null","","","","","","","","","","","","","","","","","","","","","","","feedback_test"
"","","","","","psychophysics","135","620940","0.0-11.0-0.0-0.13","1042","","f","","","","","","","","","","","","","key","f","16.664347107437525","768","428","f","true","img/S_ambi40.png","方形","prac_simultaneous",""
"","","","","","html-keyboard-response","136","621250","0.0-11.0-0.0-1.13","null","<span style='color:GreenYellow; font-size: 70px;'>正确! </span>","null","","","","","","","","","","","","","","","","","","","","","","","feedback_test"
"","","","","","psychophysics","137","623299","0.0-11.0-0.0-0.14","1048","","f","","","","","","","","","","","","","key","f","16.662219512194955","768","428","f","true","img/T_ambi40.png","三角","prac_simultaneous",""
"","","","","","html-keyboard-response","138","623604","0.0-11.0-0.0-1.14","null","<span style='color:GreenYellow; font-size: 70px;'>正确! </span>","null","","","","","","","","","","","","","","","","","","","","","","","feedback_test"
"","","","","","psychophysics","139","625408","0.0-11.0-0.0-0.15","794","","j","","","","","","","","","","","","","key","j","16.661738317756843","768","428","j","true","img/C_ambi40.png","三角","prac_simultaneous",""
"","","","","","html-keyboard-response","140","625722","0.0-11.0-0.0-1.15","null","<span style='color:GreenYellow; font-size: 70px;'>正确! </span>","null","","","","","","","","","","","","","","","","","","","","","","","feedback_test"
"","","","","","psychophysics","141","627510","0.0-11.0-0.0-0.16","779","","j","","","","","","","","","","","","","key","j","16.66007547169915","768","428","j","true","img/C_ambi40.png","方形","prac_simultaneous",""
"","","","","","html-keyboard-response","142","627812","0.0-11.0-0.0-1.16","null","<span style='color:GreenYellow; font-size: 70px;'>正确! </span>","null","","","","","","","","","","","","","","","","","","","","","","","feedback_test"
"","","","","","psychophysics","143","629918","0.0-11.0-0.0-0.17","1102","","j","","","","","","","","","","","","","key","j","16.662674603174395","768","428","j","true","img/T_ambi40.png","方形","prac_simultaneous",""
"","","","","","html-keyboard-response","144","630220","0.0-11.0-0.0-1.17","null","<span style='color:GreenYellow; font-size: 70px;'>正确! </span>","null","","","","","","","","","","","","","","","","","","","","","","","feedback_test"
"","","","","","psychophysics","145","632177","0.0-11.0-0.0-0.18","946","","f","","","","","","","","","","","","","key","f","16.66367521367541","768","428","f","true","img/S_ambi40.png","方形","prac_simultaneous",""
"","","","","","html-keyboard-response","146","632487","0.0-11.0-0.0-1.18","null","<span style='color:GreenYellow; font-size: 70px;'>正确! </span>","null","","","","","","","","","","","","","","","","","","","","","","","feedback_test"
"","","","","","psychophysics","147","634766","0.0-11.0-0.0-0.19","1279","","j","","","","","","","","","","","","","key","j","16.66227941176433","768","428","j","true","img/T_ambi40.png","圆形","prac_simultaneous",""
"","","","","","html-keyboard-response","148","635067","0.0-11.0-0.0-1.19","null","<span style='color:GreenYellow; font-size: 70px;'>正确! </span>","null","","","","","","","","","","","","","","","","","","","","","","","feedback_test"
"","","","","","psychophysics","149","637126","0.0-11.0-0.0-0.20","1049","","j","","","","","","","","","","","","","key","j","16.66486991869903","768","428","j","true","img/S_ambi40.png","圆形","prac_simultaneous",""
"","","","","","html-keyboard-response","150","637435","0.0-11.0-0.0-1.20","null","<span style='color:GreenYellow; font-size: 70px;'>正确! </span>","null","","","","","","","","","","","","","","","","","","","","","","","feedback_test"
"","","","","","psychophysics","151","639216","0.0-11.0-0.0-0.21","780","","j","","","","","","","","","","","","","key","j","16.66864485981239","768","428","f","false","img/C_ambi40.png","圆形","prac_simultaneous",""
"","","","","","html-keyboard-response","152","639520","0.0-11.0-0.0-1.21","null","<span style='color:red; font-size: 70px;'>错误! </span>","null","","","","","","","","","","","","","","","","","","","","","","","feedback_test"
"","","","","","psychophysics","153","641544","0.0-11.0-0.0-0.22","1015","","j","","","","","","","","","","","","","key","j","16.665266666667108","768","428","j","true","img/S_ambi40.png","三角","prac_simultaneous",""
"","","","","","html-keyboard-response","154","641847","0.0-11.0-0.0-1.22","null","<span style='color:GreenYellow; font-size: 70px;'>正确! </span>","null","","","","","","","","","","","","","","","","","","","","","","","feedback_test"
"","","","","","psychophysics","155","643737","0.0-11.0-0.0-0.23","877","","f","","","","","","","","","","","","","key","f","16.66355752212354","768","428","f","true","img/C_ambi40.png","圆形","prac_simultaneous",""
"","","","","","html-keyboard-response","156","644052","0.0-11.0-0.0-1.23","null","<span style='color:GreenYellow; font-size: 70px;'>正确! </span>","null","","","","","","","","","","","","","","","","","","","","","","","feedback_test"
"","","","","","html-keyboard-response","157","677424","0.0-12.0","33369","<style>.context{color:white; font-size: 35px; line-height:40px}</style>                            <div><p class='context'>您正确回答了96% 的试次。</p><p class='context'>您的平均反应时为966毫秒。</p><p class='context'>恭喜您完成练习。按任意键进入正式实验。</p><p class='footer' style='font-size: 35px; line-height:40px;'>请在进入正式实验实验之前将您的<span style='color: lightgreen;'>食指</span>放在电脑键盘的相应键位上进行按键。</p>"," ","","","","","","","","","","","","","","","","","","","","","","",""
"","","","","","html-keyboard-response","158","681575","0.0-13.0-1.0-0.0","4149","
    <p>请您将手指放在按键上，准备进入呈现顺序为<span style='color: yellow;'>先文字后图形条件</span>的正式匹配任务</p>
    <p> <div style = ""color: green""><按任意键进入下一阶段的匹配任务></div></p>
    "," ","","","","","","","","","","","","","","","","","","","","","","",""
"","","","","","psychophysics","159","683973","0.0-13.0-1.0-1.0-0.0-0.0","1247","","f","","","","","","","","","","","","","key","f","16.66405633802798","768","428","f","true","img/S_ambi40.png","方形","word_first",""
"","","","","","html-keyboard-response","160","684284","0.0-13.0-1.0-1.0-0.0-1.0","null","<span style='color:GreenYellow; font-size: 70px;'>正确! </span>","null","","","","","","","","","","","","","","","","","","","","","","","feedback_test"
"","","","","","psychophysics","161","686171","0.0-13.0-1.0-1.0-0.0-0.1","730","","j","","","","","","","","","","","","","key","j","16.66596460176953","768","428","j","true","img/C_ambi40.png","三角","word_first",""
"","","","","","html-keyboard-response","162","686475","0.0-13.0-1.0-1.0-0.0-1.1","null","<span style='color:GreenYellow; font-size: 70px;'>正确! </span>","null","","","","","","","","","","","","","","","","","","","","","","","feedback_test"
"","","","","","psychophysics","163","688315","0.0-13.0-1.0-1.0-0.0-0.2","689","","f","","","","","","","","","","","","","key","f","16.65869090909096","768","428","f","true","img/C_ambi40.png","圆形","word_first",""
"","","","","","html-keyboard-response","164","688621","0.0-13.0-1.0-1.0-0.0-1.2","null","<span style='color:GreenYellow; font-size: 70px;'>正确! </span>","null","","","","","","","","","","","","","","","","","","","","","","","feedback_test"
"","","","","","psychophysics","165","690343","0.0-13.0-1.0-1.0-0.0-0.3","570","","f","","","","","","","","","","","","","key","f","16.663803921568473","768","428","f","true","img/C_ambi40.png","圆形","word_first",""
"","","","","","html-keyboard-response","166","690644","0.0-13.0-1.0-1.0-0.0-1.3","null","<span style='color:GreenYellow; font-size: 70px;'>正确! </span>","null","","","","","","","","","","","","","","","","","","","","","","","feedback_test"
"","","","","","psychophysics","167","692468","0.0-13.0-1.0-1.0-0.0-0.4","670","","j","","","","","","","","","","","","","key","j","16.667412844036892","768","428","f","false","img/T_ambi40.png","三角","word_first",""
"","","","","","html-keyboard-response","168","692770","0.0-13.0-1.0-1.0-0.0-1.4","null","<span style='color:red; font-size: 70px;'>错误! </span>","null","","","","","","","","","","","","","","","","","","","","","","","feedback_test"
"","","","","","psychophysics","169","694664","0.0-13.0-1.0-1.0-0.0-0.5","742","","j","","","","","","","","","","","","","key","j","16.664858407079265","768","428","j","true","img/S_ambi40.png","三角","word_first",""
"","","","","","html-keyboard-response","170","694965","0.0-13.0-1.0-1.0-0.0-1.5","null","<span style='color:GreenYellow; font-size: 70px;'>正确! </span>","null","","","","","","","","","","","","","","","","","","","","","","","feedback_test"
"","","","","","psychophysics","171","696979","0.0-13.0-1.0-1.0-0.0-0.6","860","","f","","","","","","","","","","","","","key","f","16.663349999999628","768","428","f","true","img/T_ambi40.png","三角","word_first",""
"","","","","","html-keyboard-response","172","697288","0.0-13.0-1.0-1.0-0.0-1.6","null","<span style='color:GreenYellow; font-size: 70px;'>正确! </span>","null","","","","","","","","","","","","","","","","","","","","","","","feedback_test"
"","","","","","psychophysics","173","699177","0.0-13.0-1.0-1.0-0.0-0.7","739","","j","","","","","","","","","","","","","key","j","16.6638938053099","768","428","j","true","img/T_ambi40.png","圆形","word_first",""
"","","","","","html-keyboard-response","174","699485","0.0-13.0-1.0-1.0-0.0-1.7","null","<span style='color:GreenYellow; font-size: 70px;'>正确! </span>","null","","","","","","","","","","","","","","","","","","","","","","","feedback_test"
"","","","","","psychophysics","175","701260","0.0-13.0-1.0-1.0-0.0-0.8","622","","f","","","","","","","","","","","","","key","f","16.669698113207662","768","428","f","true","img/S_ambi40.png","方形","word_first",""
"","","","","","html-keyboard-response","176","701565","0.0-13.0-1.0-1.0-0.0-1.8","null","<span style='color:GreenYellow; font-size: 70px;'>正确! </span>","null","","","","","","","","","","","","","","","","","","","","","","","feedback_test"
"","","","","","psychophysics","177","703407","0.0-13.0-1.0-1.0-0.0-0.9","687","","j","","","","","","","","","","","","","key","j","16.668163636362774","768","428","j","true","img/C_ambi40.png","方形","word_first",""
"","","","","","html-keyboard-response","178","703713","0.0-13.0-1.0-1.0-0.0-1.9","null","<span style='color:GreenYellow; font-size: 70px;'>正确! </span>","null","","","","","","","","","","","","","","","","","","","","","","","feedback_test"
"","","","","","psychophysics","179","705814","0.0-13.0-1.0-1.0-0.0-0.10","943","","j","","","","","","","","","","","","","key","j","16.666460317459755","768","428","j","true","img/S_ambi40.png","圆形","word_first",""
"","","","","","html-keyboard-response","180","706123","0.0-13.0-1.0-1.0-0.0-1.10","null","<span style='color:GreenYellow; font-size: 70px;'>正确! </span>","null","","","","","","","","","","","","","","","","","","","","","","","feedback_test"
"","","","","","psychophysics","181","708131","0.0-13.0-1.0-1.0-0.0-0.11","843","","j","","","","","","","","","","","","","key","j","16.66481666666611","768","428","j","true","img/T_ambi40.png","方形","word_first",""
"","","","","","html-keyboard-response","182","708444","0.0-13.0-1.0-1.0-0.0-1.11","null","<span style='color:GreenYellow; font-size: 70px;'>正确! </span>","null","","","","","","","","","","","","","","","","","","","","","","","feedback_test"
"","","","","","psychophysics","183","710221","0.0-13.0-1.0-1.0-0.0-0.12","618","","f","","","","","","","","","","","","","key","f","16.666547169812233","768","428","f","true","img/T_ambi40.png","三角","word_first",""
"","","","","","html-keyboard-response","184","710529","0.0-13.0-1.0-1.0-0.0-1.12","null","<span style='color:GreenYellow; font-size: 70px;'>正确! </span>","null","","","","","","","","","","","","","","","","","","","","","","","feedback_test"
"","","","","","psychophysics","185","712408","0.0-13.0-1.0-1.0-0.0-0.13","724","","f","","","","","","","","","","","","","key","f","16.66524778761122","768","428","f","true","img/T_ambi40.png","三角","word_first",""
"","","","","","html-keyboard-response","186","712719","0.0-13.0-1.0-1.0-0.0-1.13","null","<span style='color:GreenYellow; font-size: 70px;'>正确! </span>","null","","","","","","","","","","","","","","","","","","","","","","","feedback_test"
"","","","","","psychophysics","187","714569","0.0-13.0-1.0-1.0-0.0-0.14","699","","j","","","","","","","","","","","","","key","j","16.66517431192728","768","428","j","true","img/C_ambi40.png","方形","word_first",""
"","","","","","html-keyboard-response","188","714872","0.0-13.0-1.0-1.0-0.0-1.14","null","<span style='color:GreenYellow; font-size: 70px;'>正确! </span>","null","","","","","","","","","","","","","","","","","","","","","","","feedback_test"
"","","","","","psychophysics","189","716738","0.0-13.0-1.0-1.0-0.0-0.15","712","","j","","","","","","","","","","","","","key","j","16.662973214284907","768","428","j","true","img/T_ambi40.png","圆形","word_first",""
"","","","","","html-keyboard-response","190","717045","0.0-13.0-1.0-1.0-0.0-1.15","null","<span style='color:GreenYellow; font-size: 70px;'>正确! </span>","null","","","","","","","","","","","","","","","","","","","","","","","feedback_test"
"","","","","","psychophysics","191","719522","0.0-13.0-1.0-1.0-0.0-0.16","1322","","j","","","","","","","","","","","","","key","j","16.663543624161186","768","428","j","true","img/S_ambi40.png","三角","word_first",""
"","","","","","html-keyboard-response","192","719823","0.0-13.0-1.0-1.0-0.0-1.16","null","<span style='color:GreenYellow; font-size: 70px;'>正确! </span>","null","","","","","","","","","","","","","","","","","","","","","","","feedback_test"
"","","","","","psychophysics","193","721690","0.0-13.0-1.0-1.0-0.0-0.17","709","","f","","","","","","","","","","","","","key","f","16.664812500000284","768","428","f","true","img/S_ambi40.png","方形","word_first",""
"","","","","","html-keyboard-response","194","721998","0.0-13.0-1.0-1.0-0.0-1.17","null","<span style='color:GreenYellow; font-size: 70px;'>正确! </span>","null","","","","","","","","","","","","","","","","","","","","","","","feedback_test"
"","","","","","psychophysics","195","723837","0.0-13.0-1.0-1.0-0.0-0.18","685","","f","","","","","","","","","","","","","key","f","16.66212727272756","768","428","f","true","img/C_ambi40.png","圆形","word_first",""
"","","","","","html-keyboard-response","196","724140","0.0-13.0-1.0-1.0-0.0-1.18","null","<span style='color:GreenYellow; font-size: 70px;'>正确! </span>","null","","","","","","","","","","","","","","","","","","","","","","","feedback_test"
"","","","","","psychophysics","197","726105","0.0-13.0-1.0-1.0-0.0-0.19","804","","f","","","","","","","","","","","","","key","f","16.66046153846133","768","428","f","true","img/S_ambi40.png","方形","word_first",""
"","","","","","html-keyboard-response","198","726413","0.0-13.0-1.0-1.0-0.0-1.19","null","<span style='color:GreenYellow; font-size: 70px;'>正确! </span>","null","","","","","","","","","","","","","","","","","","","","","","","feedback_test"
"","","","","","psychophysics","199","728551","0.0-13.0-1.0-1.0-0.0-0.20","985","","j","","","","","","","","","","","","","key","j","16.665790697675227","768","428","j","true","img/S_ambi40.png","圆形","word_first",""
"","","","","","html-keyboard-response","200","728853","0.0-13.0-1.0-1.0-0.0-1.20","null","<span style='color:GreenYellow; font-size: 70px;'>正确! </span>","null","","","","","","","","","","","","","","","","","","","","","","","feedback_test"
"","","","","","psychophysics","201","730868","0.0-13.0-1.0-1.0-0.0-0.21","862","","j","","","","","","","","","","","","","key","j","16.660735537190266","768","428","j","true","img/C_ambi40.png","三角","word_first",""
"","","","","","html-keyboard-response","202","731179","0.0-13.0-1.0-1.0-0.0-1.21","null","<span style='color:GreenYellow; font-size: 70px;'>正确! </span>","null","","","","","","","","","","","","","","","","","","","","","","","feedback_test"
"","","","","","psychophysics","203","732856","0.0-13.0-1.0-1.0-0.0-0.22","525","","f","","","","","","","","","","","","","key","f","16.66447000000044","768","428","f","true","img/C_ambi40.png","圆形","word_first",""
"","","","","","html-keyboard-response","204","733161","0.0-13.0-1.0-1.0-0.0-1.22","null","<span style='color:GreenYellow; font-size: 70px;'>正确! </span>","null","","","","","","","","","","","","","","","","","","","","","","","feedback_test"
"","","","","","psychophysics","205","735132","0.0-13.0-1.0-1.0-0.0-0.23","816","","j","","","","","","","","","","","","","key","j","16.6642118644066","768","428","j","true","img/T_ambi40.png","方形","word_first",""
"","","","","","html-keyboard-response","206","735445","0.0-13.0-1.0-1.0-0.0-1.23","null","<span style='color:GreenYellow; font-size: 70px;'>正确! </span>","null","","","","","","","","","","","","","","","","","","","","","","","feedback_test"
"","","","","","psychophysics","207","737634","0.0-13.0-1.0-1.0-0.0-0.24","1036","","j","","","","","","","","","","","","","key","j","16.66447727272647","768","428","j","true","img/S_ambi40.png","圆形","word_first",""
"","","","","","html-keyboard-response","208","737945","0.0-13.0-1.0-1.0-0.0-1.24","null","<span style='color:GreenYellow; font-size: 70px;'>正确! </span>","null","","","","","","","","","","","","","","","","","","","","","","","feedback_test"
"","","","","","psychophysics","209","739680","0.0-13.0-1.0-1.0-0.0-0.25","585","","j","","","","","","","","","","","","","key","j","16.665339805825514","768","428","j","true","img/T_ambi40.png","圆形","word_first",""
"","","","","","html-keyboard-response","210","739989","0.0-13.0-1.0-1.0-0.0-1.25","null","<span style='color:GreenYellow; font-size: 70px;'>正确! </span>","null","","","","","","","","","","","","","","","","","","","","","","","feedback_test"
"","","","","","psychophysics","211","741739","0.0-13.0-1.0-1.0-0.0-0.26","589","","j","","","","","","","","","","","","","key","j","16.664828571428856","768","428","j","true","img/T_ambi40.png","方形","word_first",""
"","","","","","html-keyboard-response","212","742045","0.0-13.0-1.0-1.0-0.0-1.26","null","<span style='color:GreenYellow; font-size: 70px;'>正确! </span>","null","","","","","","","","","","","","","","","","","","","","","","","feedback_test"
"","","","","","psychophysics","213","743964","0.0-13.0-1.0-1.0-0.0-0.27","766","","f","","","","","","","","","","","","","key","f","16.810508771930216","768","428","f","true","img/T_ambi40.png","三角","word_first",""
"","","","","","html-keyboard-response","214","744275","0.0-13.0-1.0-1.0-0.0-1.27","null","<span style='color:GreenYellow; font-size: 70px;'>正确! </span>","null","","","","","","","","","","","","","","","","","","","","","","","feedback_test"
"","","","","","psychophysics","215","746525","0.0-13.0-1.0-1.0-0.0-0.28","1094","","j","","","","","","","","","","","","","key","j","16.66438059701494","768","428","j","true","img/S_ambi40.png","三角","word_first",""
"","","","","","html-keyboard-response","216","746835","0.0-13.0-1.0-1.0-0.0-1.28","null","<span style='color:GreenYellow; font-size: 70px;'>正确! </span>","null","","","","","","","","","","","","","","","","","","","","","","","feedback_test"
"","","","","","psychophysics","217","748500","0.0-13.0-1.0-1.0-0.0-0.29","501","","j","","","","","","","","","","","","","key","j","16.665270000000017","768","428","j","true","img/C_ambi40.png","三角","word_first",""
"","","","","","html-keyboard-response","218","748813","0.0-13.0-1.0-1.0-0.0-1.29","null","<span style='color:GreenYellow; font-size: 70px;'>正确! </span>","null","","","","","","","","","","","","","","","","","","","","","","","feedback_test"
"","","","","","psychophysics","219","750628","0.0-13.0-1.0-1.0-0.0-0.30","663","","f","","","","","","","","","","","","","key","f","16.663074074074824","768","428","f","true","img/C_ambi40.png","圆形","word_first",""
"","","","","","html-keyboard-response","220","750935","0.0-13.0-1.0-1.0-0.0-1.30","null","<span style='color:GreenYellow; font-size: 70px;'>正确! </span>","null","","","","","","","","","","","","","","","","","","","","","","","feedback_test"
"","","","","","psychophysics","221","752871","0.0-13.0-1.0-1.0-0.0-0.31","776","","f","","","","","","","","","","","","","key","f","16.66640869565207","768","428","f","true","img/S_ambi40.png","方形","word_first",""
"","","","","","html-keyboard-response","222","753182","0.0-13.0-1.0-1.0-0.0-1.31","null","<span style='color:GreenYellow; font-size: 70px;'>正确! </span>","null","","","","","","","","","","","","","","","","","","","","","","","feedback_test"
"","","","","","psychophysics","223","755315","0.0-13.0-1.0-1.0-0.0-0.32","977","","f","","","","","","","","","","","","","key","f","16.662425196849682","768","428","f","true","img/T_ambi40.png","三角","word_first",""
"","","","","","html-keyboard-response","224","755616","0.0-13.0-1.0-1.0-0.0-1.32","null","<span style='color:GreenYellow; font-size: 70px;'>正确! </span>","null","","","","","","","","","","","","","","","","","","","","","","","feedback_test"
"","","","","","psychophysics","225","757611","0.0-13.0-1.0-1.0-0.0-0.33","842","","j","","","","","","","","","","","","","key","j","16.664974789915824","768","428","j","true","img/C_ambi40.png","方形","word_first",""
"","","","","","html-keyboard-response","226","757920","0.0-13.0-1.0-1.0-0.0-1.33","null","<span style='color:GreenYellow; font-size: 70px;'>正确! </span>","null","","","","","","","","","","","","","","","","","","","","","","","feedback_test"
"","","","","","psychophysics","227","759783","0.0-13.0-1.0-1.0-0.0-0.34","709","","f","","","","","","","","","","","","","key","f","16.66551351351328","768","428","f","true","img/S_ambi40.png","方形","word_first",""
"","","","","","html-keyboard-response","228","760087","0.0-13.0-1.0-1.0-0.0-1.34","null","<span style='color:GreenYellow; font-size: 70px;'>正确! </span>","null","","","","","","","","","","","","","","","","","","","","","","","feedback_test"
"","","","","","psychophysics","229","762119","0.0-13.0-1.0-1.0-0.0-0.35","879","","f","","","","","","","","","","","","","key","f","16.664237704918126","768","428","f","true","img/C_ambi40.png","圆形","word_first",""
"","","","","","html-keyboard-response","230","762429","0.0-13.0-1.0-1.0-0.0-1.35","null","<span style='color:GreenYellow; font-size: 70px;'>正确! </span>","null","","","","","","","","","","","","","","","","","","","","","","","feedback_test"
"","","","","","psychophysics","231","764331","0.0-13.0-1.0-1.0-0.0-0.36","751","","j","","","","","","","","","","","","","key","j","16.6646228070185","768","428","j","true","img/T_ambi40.png","圆形","word_first",""
"","","","","","html-keyboard-response","232","764644","0.0-13.0-1.0-1.0-0.0-1.36","null","<span style='color:GreenYellow; font-size: 70px;'>正确! </span>","null","","","","","","","","","","","","","","","","","","","","","","","feedback_test"
"","","","","","psychophysics","233","766492","0.0-13.0-1.0-1.0-0.0-0.37","696","","j","","","","","","","","","","","","","key","j","16.665155963302556","768","428","f","false","img/T_ambi40.png","三角","word_first",""
"","","","","","html-keyboard-response","234","766797","0.0-13.0-1.0-1.0-0.0-1.37","null","<span style='color:red; font-size: 70px;'>错误! </span>","null","","","","","","","","","","","","","","","","","","","","","","","feedback_test"
"","","","","","psychophysics","235","769191","0.0-13.0-1.0-1.0-0.0-0.38","1236","","j","","","","","","","","","","","","","key","j","16.66535664335629","768","428","j","true","img/S_ambi40.png","三角","word_first",""
"","","","","","html-keyboard-response","236","769498","0.0-13.0-1.0-1.0-0.0-1.38","null","<span style='color:GreenYellow; font-size: 70px;'>正确! </span>","null","","","","","","","","","","","","","","","","","","","","","","","feedback_test"
"","","","","","psychophysics","237","771172","0.0-13.0-1.0-1.0-0.0-0.39","518","","f","","","","","","","","","","","","","key","f","16.664440000000177","768","428","f","true","img/T_ambi40.png","三角","word_first",""
"","","","","","html-keyboard-response","238","771479","0.0-13.0-1.0-1.0-0.0-1.39","null","<span style='color:GreenYellow; font-size: 70px;'>正确! </span>","null","","","","","","","","","","","","","","","","","","","","","","","feedback_test"
"","","","","","psychophysics","239","773260","0.0-13.0-1.0-1.0-0.0-0.40","626","","f","","","","","","","","","","","","","key","f","16.663990476189756","768","428","f","true","img/S_ambi40.png","方形","word_first",""
"","","","","","html-keyboard-response","240","773569","0.0-13.0-1.0-1.0-0.0-1.40","null","<span style='color:GreenYellow; font-size: 70px;'>正确! </span>","null","","","","","","","","","","","","","","","","","","","","","","","feedback_test"
"","","","","","psychophysics","241","775414","0.0-13.0-1.0-1.0-0.0-0.41","690","","f","","","","","","","","","","","","","key","f","16.66518918918928","768","428","f","true","img/S_ambi40.png","方形","word_first",""
"","","","","","html-keyboard-response","242","775721","0.0-13.0-1.0-1.0-0.0-1.41","null","<span style='color:GreenYellow; font-size: 70px;'>正确! </span>","null","","","","","","","","","","","","","","","","","","","","","","","feedback_test"
"","","","","","psychophysics","243","777574","0.0-13.0-1.0-1.0-0.0-0.42","696","","j","","","","","","","","","","","","","key","j","16.66511711711693","768","428","j","true","img/T_ambi40.png","方形","word_first",""
"","","","","","html-keyboard-response","244","777886","0.0-13.0-1.0-1.0-0.0-1.42","null","<span style='color:GreenYellow; font-size: 70px;'>正确! </span>","null","","","","","","","","","","","","","","","","","","","","","","","feedback_test"
"","","","","","psychophysics","245","779638","0.0-13.0-1.0-1.0-0.0-0.43","598","","f","","","","","","","","","","","","","key","f","16.66670192307748","768","428","f","true","img/C_ambi40.png","圆形","word_first",""
"","","","","","html-keyboard-response","246","779950","0.0-13.0-1.0-1.0-0.0-1.43","null","<span style='color:GreenYellow; font-size: 70px;'>正确! </span>","null","","","","","","","","","","","","","","","","","","","","","","","feedback_test"
"","","","","","psychophysics","247","782062","0.0-13.0-1.0-1.0-0.0-0.44","956","","j","","","","","","","","","","","","","key","j","16.66107874015698","768","428","j","true","img/C_ambi40.png","方形","word_first",""
"","","","","","html-keyboard-response","248","782371","0.0-13.0-1.0-1.0-0.0-1.44","null","<span style='color:GreenYellow; font-size: 70px;'>正确! </span>","null","","","","","","","","","","","","","","","","","","","","","","","feedback_test"
"","","","","","psychophysics","249","784377","0.0-13.0-1.0-1.0-0.0-0.45","851","","j","","","","","","","","","","","","","key","j","16.664305785124398","768","428","j","true","img/S_ambi40.png","圆形","word_first",""
"","","","","","html-keyboard-response","250","784687","0.0-13.0-1.0-1.0-0.0-1.45","null","<span style='color:GreenYellow; font-size: 70px;'>正确! </span>","null","","","","","","","","","","","","","","","","","","","","","","","feedback_test"
"","","","","","psychophysics","251","786690","0.0-13.0-1.0-1.0-0.0-0.46","848","","j","","","","","","","","","","","","","key","j","16.66514285714287","768","428","j","true","img/C_ambi40.png","三角","word_first",""
"","","","","","html-keyboard-response","252","787001","0.0-13.0-1.0-1.0-0.0-1.46","null","<span style='color:GreenYellow; font-size: 70px;'>正确! </span>","null","","","","","","","","","","","","","","","","","","","","","","","feedback_test"
"","","","","","psychophysics","253","788763","0.0-13.0-1.0-1.0-0.0-0.47","611","","f","","","","","","","","","","","","","key","f","16.664915094339896","768","428","f","true","img/C_ambi40.png","圆形","word_first",""
"","","","","","html-keyboard-response","254","789072","0.0-13.0-1.0-1.0-0.0-1.47","null","<span style='color:GreenYellow; font-size: 70px;'>正确! </span>","null","","","","","","","","","","","","","","","","","","","","","","","feedback_test"
"","","","","","psychophysics","255","790782","0.0-13.0-1.0-1.0-0.0-0.48","555","","f","","","","","","","","","","","","","key","f","16.663313725490724","768","428","f","true","img/C_ambi40.png","圆形","word_first",""
"","","","","","html-keyboard-response","256","791093","0.0-13.0-1.0-1.0-0.0-1.48","null","<span style='color:GreenYellow; font-size: 70px;'>正确! </span>","null","","","","","","","","","","","","","","","","","","","","","","","feedback_test"
"","","","","","psychophysics","257","793461","0.0-13.0-1.0-1.0-0.0-0.49","1212","","f","","","","","","","","","","","","","key","f","16.664418439716034","768","428","f","true","img/S_ambi40.png","方形","word_first",""
"","","","","","html-keyboard-response","258","793762","0.0-13.0-1.0-1.0-0.0-1.49","null","<span style='color:GreenYellow; font-size: 70px;'>正确! </span>","null","","","","","","","","","","","","","","","","","","","","","","","feedback_test"
"","","","","","psychophysics","259","795593","0.0-13.0-1.0-1.0-0.0-0.50","677","","j","","","","","","","","","","","","","key","j","16.66504545454571","768","428","j","true","img/T_ambi40.png","方形","word_first",""
"","","","","","html-keyboard-response","260","795903","0.0-13.0-1.0-1.0-0.0-1.50","null","<span style='color:GreenYellow; font-size: 70px;'>正确! </span>","null","","","","","","","","","","","","","","","","","","","","","","","feedback_test"
"","","","","","psychophysics","261","797843","0.0-13.0-1.0-1.0-0.0-0.51","787","","j","","","","","","","","","","","","","key","j","16.665034482758372","768","428","j","true","img/C_ambi40.png","方形","word_first",""
"","","","","","html-keyboard-response","262","798154","0.0-13.0-1.0-1.0-0.0-1.51","null","<span style='color:GreenYellow; font-size: 70px;'>正确! </span>","null","","","","","","","","","","","","","","","","","","","","","","","feedback_test"
"","","","","","psychophysics","263","800050","0.0-13.0-1.0-1.0-0.0-0.52","741","","j","","","","","","","","","","","","","key","j","16.66438938053098","768","428","j","true","img/S_ambi40.png","圆形","word_first",""
"","","","","","html-keyboard-response","264","800352","0.0-13.0-1.0-1.0-0.0-1.52","null","<span style='color:GreenYellow; font-size: 70px;'>正确! </span>","null","","","","","","","","","","","","","","","","","","","","","","","feedback_test"
"","","","","","psychophysics","265","801988","0.0-13.0-1.0-1.0-0.0-0.53","480","","j","","","","","","","","","","","","","key","j","16.664367346938853","768","428","j","true","img/C_ambi40.png","三角","word_first",""
"","","","","","html-keyboard-response","266","802295","0.0-13.0-1.0-1.0-0.0-1.53","null","<span style='color:GreenYellow; font-size: 70px;'>正确! </span>","null","","","","","","","","","","","","","","","","","","","","","","","feedback_test"
"","","","","","psychophysics","267","804160","0.0-13.0-1.0-1.0-0.0-0.54","709","","f","","","","","","","","","","","","","key","f","16.66591071428515","768","428","f","true","img/T_ambi40.png","三角","word_first",""
"","","","","","html-keyboard-response","268","804464","0.0-13.0-1.0-1.0-0.0-1.54","null","<span style='color:GreenYellow; font-size: 70px;'>正确! </span>","null","","","","","","","","","","","","","","","","","","","","","","","feedback_test"
"","","","","","psychophysics","269","806289","0.0-13.0-1.0-1.0-0.0-0.55","674","","f","","","","","","","","","","","","","key","f","16.66534259259222","768","428","f","true","img/T_ambi40.png","三角","word_first",""
"","","","","","html-keyboard-response","270","806598","0.0-13.0-1.0-1.0-0.0-1.55","null","<span style='color:GreenYellow; font-size: 70px;'>正确! </span>","null","","","","","","","","","","","","","","","","","","","","","","","feedback_test"
"","","","","","psychophysics","271","808759","0.0-13.0-1.0-1.0-0.0-0.56","1008","","j","","","","","","","","","","","","","key","j","16.664861538460872","768","428","j","true","img/S_ambi40.png","三角","word_first",""
"","","","","","html-keyboard-response","272","809063","0.0-13.0-1.0-1.0-0.0-1.56","null","<span style='color:GreenYellow; font-size: 70px;'>正确! </span>","null","","","","","","","","","","","","","","","","","","","","","","","feedback_test"
"","","","","","psychophysics","273","810803","0.0-13.0-1.0-1.0-0.0-0.57","580","","j","","","","","","","","","","","","","key","j","16.663759615384222","768","428","j","true","img/T_ambi40.png","圆形","word_first",""
"","","","","","html-keyboard-response","274","811109","0.0-13.0-1.0-1.0-0.0-1.57","null","<span style='color:GreenYellow; font-size: 70px;'>正确! </span>","null","","","","","","","","","","","","","","","","","","","","","","","feedback_test"
"","","","","","psychophysics","275","813084","0.0-13.0-1.0-1.0-0.0-0.58","823","","f","","","","","","","","","","","","","key","f","16.6642478632474","768","428","f","true","img/C_ambi40.png","圆形","word_first",""
"","","","","","html-keyboard-response","276","813399","0.0-13.0-1.0-1.0-0.0-1.58","null","<span style='color:GreenYellow; font-size: 70px;'>正确! </span>","null","","","","","","","","","","","","","","","","","","","","","","","feedback_test"
"","","","","","psychophysics","277","815409","0.0-13.0-1.0-1.0-0.0-0.59","856","","f","","","","","","","","","","","","","key","f","16.665008264462934","768","428","f","true","img/S_ambi40.png","方形","word_first",""
"","","","","","html-keyboard-response","278","815723","0.0-13.0-1.0-1.0-0.0-1.59","null","<span style='color:GreenYellow; font-size: 70px;'>正确! </span>","null","","","","","","","","","","","","","","","","","","","","","","","feedback_test"
"","","","","","html-keyboard-response","279","819384","0.0-13.0-1.0-1.0-1.0","3659","<style>.context{color:white; font-size: 35px; line-height:40px}</style>                            <div><p class='context'>您正确回答了97% 的试次。</p><p class='context'>您的平均反应时为776毫秒。</p><p class='context'>请按任意键进入休息</p></div>"," ","","","","","","","","","","","","","","","","","","","","","","",""
"","","","","","html-button-response","280","886052","0.0-13.0-1.0-1.0-2.0","66666","
                    <p>您当前还剩余3组实验</p>
                    <p>现在是休息时间，当您结束休息后，您可以点击 结束休息 按钮 继续</p>
                    <p>建议休息时间还剩余<span id=""iii"">60</span>秒</p>","0","","","","","","","","","","","","","","","","","","","","","","",""
"","","","","","psychophysics","281","887758","0.0-13.0-1.0-1.0-0.1-0.60","549","","j","","","","","","","","","","","","","key","j","16.664514851484373","768","428","j","true","img/S_ambi40.png","圆形","word_first",""
"","","","","","html-keyboard-response","282","888072","0.0-13.0-1.0-1.0-0.1-1.60","null","<span style='color:GreenYellow; font-size: 70px;'>正确! </span>","null","","","","","","","","","","","","","","","","","","","","","","","feedback_test"
"","","","","","psychophysics","283","889752","0.0-13.0-1.0-1.0-0.1-0.61","524","","j","","","","","","","","","","","","","key","j","16.66652475247542","768","428","j","true","img/C_ambi40.png","方形","word_first",""
"","","","","","html-keyboard-response","284","890060","0.0-13.0-1.0-1.0-0.1-1.61","null","<span style='color:GreenYellow; font-size: 70px;'>正确! </span>","null","","","","","","","","","","","","","","","","","","","","","","","feedback_test"
"","","","","","psychophysics","285","891914","0.0-13.0-1.0-1.0-0.1-0.62","700","","f","","","","","","","","","","","","","key","f","16.66675675675684","768","428","f","true","img/C_ambi40.png","圆形","word_first",""
"","","","","","html-keyboard-response","286","892218","0.0-13.0-1.0-1.0-0.1-1.62","null","<span style='color:GreenYellow; font-size: 70px;'>正确! </span>","null","","","","","","","","","","","","","","","","","","","","","","","feedback_test"
"","","","","","psychophysics","287","893899","0.0-13.0-1.0-1.0-0.1-0.63","524","","j","","","","","","","","","","","","","key","j","16.665050000000047","768","428","j","true","img/T_ambi40.png","方形","word_first",""
"","","","","","html-keyboard-response","288","894206","0.0-13.0-1.0-1.0-0.1-1.63","null","<span style='color:GreenYellow; font-size: 70px;'>正确! </span>","null","","","","","","","","","","","","","","","","","","","","","","","feedback_test"
"","","","","","psychophysics","289","895848","0.0-13.0-1.0-1.0-0.1-0.64","485","","j","","","","","","","","","","","","","key","j","16.664606060605788","768","428","j","true","img/S_ambi40.png","三角","word_first",""
"","","","","","html-keyboard-response","290","896161","0.0-13.0-1.0-1.0-0.1-1.64","null","<span style='color:GreenYellow; font-size: 70px;'>正确! </span>","null","","","","","","","","","","","","","","","","","","","","","","","feedback_test"
"","","","","","psychophysics","291","898075","0.0-13.0-1.0-1.0-0.1-0.65","762","","f","","","","","","","","","","","","","key","f","16.665675438596384","768","428","f","true","img/S_ambi40.png","方形","word_first",""
"","","","","","html-keyboard-response","292","898380","0.0-13.0-1.0-1.0-0.1-1.65","null","<span style='color:GreenYellow; font-size: 70px;'>正确! </span>","null","","","","","","","","","","","","","","","","","","","","","","","feedback_test"
"","","","","","psychophysics","293","900197","0.0-13.0-1.0-1.0-0.1-0.66","652","","j","","","","","","","","","","","","","key","j","16.66291666666641","768","428","j","true","img/C_ambi40.png","三角","word_first",""
"","","","","","html-keyboard-response","294","900500","0.0-13.0-1.0-1.0-0.1-1.66","null","<span style='color:GreenYellow; font-size: 70px;'>正确! </span>","null","","","","","","","","","","","","","","","","","","","","","","","feedback_test"
"","","","","","psychophysics","295","902278","0.0-13.0-1.0-1.0-0.1-0.67","616","","f","","","","","","","","","","","","","key","f","16.66620754716887","768","428","f","true","img/T_ambi40.png","三角","word_first",""
"","","","","","html-keyboard-response","296","902592","0.0-13.0-1.0-1.0-0.1-1.67","null","<span style='color:GreenYellow; font-size: 70px;'>正确! </span>","null","","","","","","","","","","","","","","","","","","","","","","","feedback_test"
"","","","","","psychophysics","297","904504","0.0-13.0-1.0-1.0-0.1-0.68","758","","j","","","","","","","","","","","","","key","j","16.66572807017579","768","428","j","true","img/T_ambi40.png","圆形","word_first",""
"","","","","","html-keyboard-response","298","904813","0.0-13.0-1.0-1.0-0.1-1.68","null","<span style='color:GreenYellow; font-size: 70px;'>正确! </span>","null","","","","","","","","","","","","","","","","","","","","","","","feedback_test"
"","","","","","psychophysics","299","906618","0.0-13.0-1.0-1.0-0.1-0.69","651","","f","","","","","","","","","","","","","key","f","16.664046728972643","768","428","f","true","img/S_ambi40.png","方形","word_first",""
"","","","","","html-keyboard-response","300","906920","0.0-13.0-1.0-1.0-0.1-1.69","null","<span style='color:GreenYellow; font-size: 70px;'>正确! </span>","null","","","","","","","","","","","","","","","","","","","","","","","feedback_test"
"","","","","","psychophysics","301","908717","0.0-13.0-1.0-1.0-0.1-0.70","638","","f","","","","","","","","","","","","","key","f","16.664546296295832","768","428","f","true","img/T_ambi40.png","三角","word_first",""
"","","","","","html-keyboard-response","302","909023","0.0-13.0-1.0-1.0-0.1-1.70","null","<span style='color:GreenYellow; font-size: 70px;'>正确! </span>","null","","","","","","","","","","","","","","","","","","","","","","","feedback_test"
"","","","","","psychophysics","303","910903","0.0-13.0-1.0-1.0-0.1-0.71","725","","f","","","","","","","","","","","","","key","f","16.81336607142917","768","428","f","true","img/C_ambi40.png","圆形","word_first",""
"","","","","","html-keyboard-response","304","911217","0.0-13.0-1.0-1.0-0.1-1.71","null","<span style='color:GreenYellow; font-size: 70px;'>正确! </span>","null","","","","","","","","","","","","","","","","","","","","","","","feedback_test"
"","","","","","psychophysics","305","913052","0.0-13.0-1.0-1.0-0.1-0.72","679","","j","","","","","","","","","","","","","key","j","16.66128440366934","768","428","j","true","img/T_ambi40.png","方形","word_first",""
"","","","","","html-keyboard-response","306","913353","0.0-13.0-1.0-1.0-0.1-1.72","null","<span style='color:GreenYellow; font-size: 70px;'>正确! </span>","null","","","","","","","","","","","","","","","","","","","","","","","feedback_test"
"","","","","","psychophysics","307","915114","0.0-13.0-1.0-1.0-0.1-0.73","603","","f","","","","","","","","","","","","","key","f","16.661235849056744","768","428","f","true","img/C_ambi40.png","圆形","word_first",""
"","","","","","html-keyboard-response","308","915419","0.0-13.0-1.0-1.0-0.1-1.73","null","<span style='color:GreenYellow; font-size: 70px;'>正确! </span>","null","","","","","","","","","","","","","","","","","","","","","","","feedback_test"
"","","","","","psychophysics","309","917190","0.0-13.0-1.0-1.0-0.1-0.74","613","","f","","","","","","","","","","","","","key","f","16.659971428571623","768","428","f","true","img/C_ambi40.png","圆形","word_first",""
"","","","","","html-keyboard-response","310","917498","0.0-13.0-1.0-1.0-0.1-1.74","null","<span style='color:GreenYellow; font-size: 70px;'>正确! </span>","null","","","","","","","","","","","","","","","","","","","","","","","feedback_test"
"","","","","","psychophysics","311","919281","0.0-13.0-1.0-1.0-0.1-0.75","629","","j","","","","","","","","","","","","","key","j","16.660660377358756","768","428","j","true","img/C_ambi40.png","方形","word_first",""
"","","","","","html-keyboard-response","312","919585","0.0-13.0-1.0-1.0-0.1-1.75","null","<span style='color:GreenYellow; font-size: 70px;'>正确! </span>","null","","","","","","","","","","","","","","","","","","","","","","","feedback_test"
"","","","","","psychophysics","313","921464","0.0-13.0-1.0-1.0-0.1-0.76","726","","f","","","","","","","","","","","","","key","f","16.65277876106165","768","428","f","true","img/S_ambi40.png","方形","word_first",""
"","","","","","html-keyboard-response","314","921775","0.0-13.0-1.0-1.0-0.1-1.76","null","<span style='color:GreenYellow; font-size: 70px;'>正确! </span>","null","","","","","","","","","","","","","","","","","","","","","","","feedback_test"
"","","","","","psychophysics","315","923683","0.0-13.0-1.0-1.0-0.1-0.77","757","","f","","","","","","","","","","","","","key","f","16.702271929824636","768","428","f","true","img/T_ambi40.png","三角","word_first",""
"","","","","","html-keyboard-response","316","923998","0.0-13.0-1.0-1.0-0.1-1.77","null","<span style='color:GreenYellow; font-size: 70px;'>正确! </span>","null","","","","","","","","","","","","","","","","","","","","","","","feedback_test"
"","","","","","psychophysics","317","925843","0.0-13.0-1.0-1.0-0.1-0.78","689","","j","","","","","","","","","","","","","key","j","16.661845454545055","768","428","j","true","img/T_ambi40.png","圆形","word_first",""
"","","","","","html-keyboard-response","318","926149","0.0-13.0-1.0-1.0-0.1-1.78","null","<span style='color:GreenYellow; font-size: 70px;'>正确! </span>","null","","","","","","","","","","","","","","","","","","","","","","","feedback_test"
"","","","","","psychophysics","319","928371","0.0-13.0-1.0-1.0-0.1-0.79","1069","","j","","","","","","","","","","","","","key","j","16.715233082707122","768","428","j","true","img/S_ambi40.png","三角","word_first",""
"","","","","","html-keyboard-response","320","928678","0.0-13.0-1.0-1.0-0.1-1.79","null","<span style='color:GreenYellow; font-size: 70px;'>正确! </span>","null","","","","","","","","","","","","","","","","","","","","","","","feedback_test"
"","","","","","psychophysics","321","930423","0.0-13.0-1.0-1.0-0.1-0.80","593","","j","","","","","","","","","","","","","key","j","16.732009615385323","768","428","j","true","img/S_ambi40.png","圆形","word_first",""
"","","","","","html-keyboard-response","322","930739","0.0-13.0-1.0-1.0-0.1-1.80","null","<span style='color:GreenYellow; font-size: 70px;'>正确! </span>","null","","","","","","","","","","","","","","","","","","","","","","","feedback_test"
"","","","","","psychophysics","323","932582","0.0-13.0-1.0-1.0-0.1-0.81","691","","j","","","","","","","","","","","","","key","j","16.664954128440197","768","428","j","true","img/C_ambi40.png","三角","word_first",""
"","","","","","html-keyboard-response","324","932888","0.0-13.0-1.0-1.0-0.1-1.81","null","<span style='color:GreenYellow; font-size: 70px;'>正确! </span>","null","","","","","","","","","","","","","","","","","","","","","","","feedback_test"
"","","","","","psychophysics","325","934711","0.0-13.0-1.0-1.0-0.1-0.82","671","","f","","","","","","","","","","","","","key","f","16.727458715595844","768","428","f","true","img/T_ambi40.png","三角","word_first",""
"","","","","","html-keyboard-response","326","935015","0.0-13.0-1.0-1.0-0.1-1.82","null","<span style='color:GreenYellow; font-size: 70px;'>正确! </span>","null","","","","","","","","","","","","","","","","","","","","","","","feedback_test"
"","","","","","psychophysics","327","936849","0.0-13.0-1.0-1.0-0.1-0.83","679","","f","","","","","","","","","","","","","key","f","16.56183636363659","768","428","f","true","img/S_ambi40.png","方形","word_first",""
"","","","","","html-keyboard-response","328","937151","0.0-13.0-1.0-1.0-0.1-1.83","null","<span style='color:GreenYellow; font-size: 70px;'>正确! </span>","null","","","","","","","","","","","","","","","","","","","","","","","feedback_test"
"","","","","","psychophysics","329","939010","0.0-13.0-1.0-1.0-0.1-0.84","707","","j","","","","","","","","","","","","","key","j","16.66477477477511","768","428","j","true","img/C_ambi40.png","方形","word_first",""
"","","","","","html-keyboard-response","330","939318","0.0-13.0-1.0-1.0-0.1-1.84","null","<span style='color:GreenYellow; font-size: 70px;'>正确! </span>","null","","","","","","","","","","","","","","","","","","","","","","","feedback_test"
"","","","","","psychophysics","331","941112","0.0-13.0-1.0-1.0-0.1-0.85","640","","f","","","","","","","","","","","","","key","f","16.701570093457665","768","428","f","true","img/T_ambi40.png","三角","word_first",""
"","","","","","html-keyboard-response","332","941414","0.0-13.0-1.0-1.0-0.1-1.85","null","<span style='color:GreenYellow; font-size: 70px;'>正确! </span>","null","","","","","","","","","","","","","","","","","","","","","","","feedback_test"
"","","","","","psychophysics","333","943072","0.0-13.0-1.0-1.0-0.1-0.86","499","","j","","","","","","","","","","","","","key","j","16.697919191919606","768","428","j","true","img/T_ambi40.png","方形","word_first",""
"","","","","","html-keyboard-response","334","943373","0.0-13.0-1.0-1.0-0.1-1.86","null","<span style='color:GreenYellow; font-size: 70px;'>正确! </span>","null","","","","","","","","","","","","","","","","","","","","","","","feedback_test"
"","","","","","psychophysics","335","945164","0.0-13.0-1.0-1.0-0.1-0.87","634","","j","","","","","","","","","","","","","key","j","16.664443396226247","768","428","j","true","img/S_ambi40.png","圆形","word_first",""
"","","","","","html-keyboard-response","336","945468","0.0-13.0-1.0-1.0-0.1-1.87","null","<span style='color:GreenYellow; font-size: 70px;'>正确! </span>","null","","","","","","","","","","","","","","","","","","","","","","","feedback_test"
"","","","","","psychophysics","337","947149","0.0-13.0-1.0-1.0-0.1-0.88","527","","f","","","","","","","","","","","","","key","f","16.734890000000597","768","428","f","true","img/C_ambi40.png","圆形","word_first",""
"","","","","","html-keyboard-response","338","947465","0.0-13.0-1.0-1.0-0.1-1.88","null","<span style='color:GreenYellow; font-size: 70px;'>正确! </span>","null","","","","","","","","","","","","","","","","","","","","","","","feedback_test"
"","","","","","psychophysics","339","949093","0.0-13.0-1.0-1.0-0.1-0.89","471","","j","","","","","","","","","","","","","key","j","16.580908163265345","768","428","j","true","img/S_ambi40.png","三角","word_first",""
"","","","","","html-keyboard-response","340","949406","0.0-13.0-1.0-1.0-0.1-1.89","null","<span style='color:GreenYellow; font-size: 70px;'>正确! </span>","null","","","","","","","","","","","","","","","","","","","","","","","feedback_test"
"","","","","","psychophysics","341","951082","0.0-13.0-1.0-1.0-0.1-0.90","517","","j","","","","","","","","","","","","","key","j","16.66331313131377","768","428","j","true","img/C_ambi40.png","三角","word_first",""
"","","","","","html-keyboard-response","342","951394","0.0-13.0-1.0-1.0-0.1-1.90","null","<span style='color:GreenYellow; font-size: 70px;'>正确! </span>","null","","","","","","","","","","","","","","","","","","","","","","","feedback_test"
"","","","","","psychophysics","343","953221","0.0-13.0-1.0-1.0-0.1-0.91","672","","f","","","","","","","","","","","","","key","f","16.579128440366972","768","428","f","true","img/T_ambi40.png","三角","word_first",""
"","","","","","html-keyboard-response","344","953536","0.0-13.0-1.0-1.0-0.1-1.91","null","<span style='color:GreenYellow; font-size: 70px;'>正确! </span>","null","","","","","","","","","","","","","","","","","","","","","","","feedback_test"
"","","","","","psychophysics","345","955455","0.0-13.0-1.0-1.0-0.1-0.92","766","","f","","","","","","","","","","","","","key","f","16.680426086956107","768","428","f","true","img/S_ambi40.png","方形","word_first",""
"","","","","","html-keyboard-response","346","955759","0.0-13.0-1.0-1.0-0.1-1.92","null","<span style='color:GreenYellow; font-size: 70px;'>正确! </span>","null","","","","","","","","","","","","","","","","","","","","","","","feedback_test"
"","","","","","psychophysics","347","957758","0.0-13.0-1.0-1.0-0.1-0.93","837","","j","","","","","","","","","","","","","key","j","16.661252100840446","768","428","j","true","img/T_ambi40.png","圆形","word_first",""
"","","","","","html-keyboard-response","348","958066","0.0-13.0-1.0-1.0-0.1-1.93","null","<span style='color:GreenYellow; font-size: 70px;'>正确! </span>","null","","","","","","","","","","","","","","","","","","","","","","","feedback_test"
"","","","","","psychophysics","349","959906","0.0-13.0-1.0-1.0-0.1-0.94","685","","f","","","","","","","","","","","","","key","f","16.624675675674954","768","428","f","true","img/S_ambi40.png","方形","word_first",""
"","","","","","html-keyboard-response","350","960213","0.0-13.0-1.0-1.0-0.1-1.94","null","<span style='color:GreenYellow; font-size: 70px;'>正确! </span>","null","","","","","","","","","","","","","","","","","","","","","","","feedback_test"
"","","","","","psychophysics","351","962130","0.0-13.0-1.0-1.0-0.1-0.95","760","","f","","","","","","","","","","","","","key","f","16.591460869565566","768","428","f","true","img/C_ambi40.png","圆形","word_first",""
"","","","","","html-keyboard-response","352","962434","0.0-13.0-1.0-1.0-0.1-1.95","null","<span style='color:GreenYellow; font-size: 70px;'>正确! </span>","null","","","","","","","","","","","","","","","","","","","","","","","feedback_test"
"","","","","","psychophysics","353","964231","0.0-13.0-1.0-1.0-0.1-0.96","644","","f","","","","","","","","","","","","","key","f","16.664682242989965","768","428","f","true","img/S_ambi40.png","方形","word_first",""
"","","","","","html-keyboard-response","354","964534","0.0-13.0-1.0-1.0-0.1-1.96","null","<span style='color:GreenYellow; font-size: 70px;'>正确! </span>","null","","","","","","","","","","","","","","","","","","","","","","","feedback_test"
"","","","","","psychophysics","355","966281","0.0-13.0-1.0-1.0-0.1-0.97","594","","f","","","","","","","","","","","","","key","f","16.7156346153844","768","428","f","true","img/C_ambi40.png","圆形","word_first",""
"","","","","","html-keyboard-response","356","966591","0.0-13.0-1.0-1.0-0.1-1.97","null","<span style='color:GreenYellow; font-size: 70px;'>正确! </span>","null","","","","","","","","","","","","","","","","","","","","","","","feedback_test"
"","","","","","psychophysics","357","968209","0.0-13.0-1.0-1.0-0.1-0.98","463","","f","","","","","","","","","","","","","key","f","16.752752577319512","768","428","f","true","img/C_ambi40.png","圆形","word_first",""
"","","","","","html-keyboard-response","358","968514","0.0-13.0-1.0-1.0-0.1-1.98","null","<span style='color:GreenYellow; font-size: 70px;'>正确! </span>","null","","","","","","","","","","","","","","","","","","","","","","","feedback_test"
"","","","","","psychophysics","359","970397","0.0-13.0-1.0-1.0-0.1-0.99","728","","f","","","","","","","","","","","","","key","f","16.66520535714309","768","428","f","true","img/T_ambi40.png","三角","word_first",""
"","","","","","html-keyboard-response","360","970708","0.0-13.0-1.0-1.0-0.1-1.99","null","<span style='color:GreenYellow; font-size: 70px;'>正确! </span>","null","","","","","","","","","","","","","","","","","","","","","","","feedback_test"
"","","","","","psychophysics","361","972654","0.0-13.0-1.0-1.0-0.1-0.100","788","","j","","","","","","","","","","","","","key","j","16.705547008547","768","428","j","true","img/C_ambi40.png","方形","word_first",""
"","","","","","html-keyboard-response","362","972964","0.0-13.0-1.0-1.0-0.1-1.100","null","<span style='color:GreenYellow; font-size: 70px;'>正确! </span>","null","","","","","","","","","","","","","","","","","","","","","","","feedback_test"
"","","","","","psychophysics","363","975031","0.0-13.0-1.0-1.0-0.1-0.101","913","","f","","","","","","","","","","","","","key","f","16.664325203251554","768","428","f","true","img/T_ambi40.png","三角","word_first",""
"","","","","","html-keyboard-response","364","975338","0.0-13.0-1.0-1.0-0.1-1.101","null","<span style='color:GreenYellow; font-size: 70px;'>正确! </span>","null","","","","","","","","","","","","","","","","","","","","","","","feedback_test"
"","","","","","psychophysics","365","977078","0.0-13.0-1.0-1.0-0.1-0.102","583","","j","","","","","","","","","","","","","key","j","16.66551923076958","768","428","j","true","img/T_ambi40.png","方形","word_first",""
"","","","","","html-keyboard-response","366","977385","0.0-13.0-1.0-1.0-0.1-1.102","null","<span style='color:GreenYellow; font-size: 70px;'>正确! </span>","null","","","","","","","","","","","","","","","","","","","","","","","feedback_test"
"","","","","","psychophysics","367","979168","0.0-13.0-1.0-1.0-0.1-0.103","632","","j","","","","","","","","","","","","","key","j","16.666171428572298","768","428","j","true","img/T_ambi40.png","圆形","word_first",""
"","","","","","html-keyboard-response","368","979472","0.0-13.0-1.0-1.0-0.1-1.103","null","<span style='color:GreenYellow; font-size: 70px;'>正确! </span>","null","","","","","","","","","","","","","","","","","","","","","","","feedback_test"
"","","","","","psychophysics","369","981450","0.0-13.0-1.0-1.0-0.1-0.104","817","","j","","","","","","","","","","","","","key","j","16.750220338982665","768","428","j","true","img/S_ambi40.png","三角","word_first",""
"","","","","","html-keyboard-response","370","981759","0.0-13.0-1.0-1.0-0.1-1.104","null","<span style='color:GreenYellow; font-size: 70px;'>正确! </span>","null","","","","","","","","","","","","","","","","","","","","","","","feedback_test"
"","","","","","psychophysics","371","983959","0.0-13.0-1.0-1.0-0.1-0.105","1040","","j","","","","","","","","","","","","","key","j","16.621848484848726","768","428","j","true","img/C_ambi40.png","三角","word_first",""
"","","","","","html-keyboard-response","372","984266","0.0-13.0-1.0-1.0-0.1-1.105","null","<span style='color:GreenYellow; font-size: 70px;'>正确! </span>","null","","","","","","","","","","","","","","","","","","","","","","","feedback_test"
"","","","","","psychophysics","373","986302","0.0-13.0-1.0-1.0-0.1-0.106","884","","f","","","","","","","","","","","","","key","f","16.664752066116165","768","428","f","true","img/S_ambi40.png","方形","word_first",""
"","","","","","html-keyboard-response","374","986614","0.0-13.0-1.0-1.0-0.1-1.106","null","<span style='color:GreenYellow; font-size: 70px;'>正确! </span>","null","","","","","","","","","","","","","","","","","","","","","","","feedback_test"
"","","","","","psychophysics","375","988585","0.0-13.0-1.0-1.0-0.1-0.107","817","","j","","","","","","","","","","","","","key","j","16.793694915254875","768","428","j","true","img/S_ambi40.png","圆形","word_first",""
"","","","","","html-keyboard-response","376","988894","0.0-13.0-1.0-1.0-0.1-1.107","null","<span style='color:GreenYellow; font-size: 70px;'>正确! </span>","null","","","","","","","","","","","","","","","","","","","","","","","feedback_test"
"","","","","","psychophysics","377","990672","0.0-13.0-1.0-1.0-0.1-0.108","623","","j","","","","","","","","","","","","","key","j","16.63920560747572","768","428","j","true","img/T_ambi40.png","方形","word_first",""
"","","","","","html-keyboard-response","378","990985","0.0-13.0-1.0-1.0-0.1-1.108","null","<span style='color:GreenYellow; font-size: 70px;'>正确! </span>","null","","","","","","","","","","","","","","","","","","","","","","","feedback_test"
"","","","","","psychophysics","379","992814","0.0-13.0-1.0-1.0-0.1-0.109","675","","f","","","","","","","","","","","","","key","f","16.664250000000553","768","428","f","true","img/S_ambi40.png","方形","word_first",""
"","","","","","html-keyboard-response","380","993122","0.0-13.0-1.0-1.0-0.1-1.109","null","<span style='color:GreenYellow; font-size: 70px;'>正确! </span>","null","","","","","","","","","","","","","","","","","","","","","","","feedback_test"
"","","","","","psychophysics","381","995007","0.0-13.0-1.0-1.0-0.1-0.110","727","","f","","","","","","","","","","","","","key","f","16.665017857142498","768","428","f","true","img/S_ambi40.png","方形","word_first",""
"","","","","","html-keyboard-response","382","995309","0.0-13.0-1.0-1.0-0.1-1.110","null","<span style='color:GreenYellow; font-size: 70px;'>正确! </span>","null","","","","","","","","","","","","","","","","","","","","","","","feedback_test"
"","","","","","psychophysics","383","997096","0.0-13.0-1.0-1.0-0.1-0.111","629","","f","","","","","","","","","","","","","key","f","16.66250467289644","768","428","f","true","img/C_ambi40.png","圆形","word_first",""
"","","","","","html-keyboard-response","384","997407","0.0-13.0-1.0-1.0-0.1-1.111","null","<span style='color:GreenYellow; font-size: 70px;'>正确! </span>","null","","","","","","","","","","","","","","","","","","","","","","","feedback_test"
"","","","","","psychophysics","385","999023","0.0-13.0-1.0-1.0-0.1-0.112","463","","f","","","","","","","","","","","","","key","f","16.662687500000175","768","428","f","true","img/C_ambi40.png","圆形","word_first",""
"","","","","","html-keyboard-response","386","999328","0.0-13.0-1.0-1.0-0.1-1.112","null","<span style='color:GreenYellow; font-size: 70px;'>正确! </span>","null","","","","","","","","","","","","","","","","","","","","","","","feedback_test"
"","","","","","psychophysics","387","1001035","0.0-13.0-1.0-1.0-0.1-0.113","555","","j","","","","","","","","","","","","","key","j","16.825931372548975","768","428","j","true","img/T_ambi40.png","圆形","word_first",""
"","","","","","html-keyboard-response","388","1001340","0.0-13.0-1.0-1.0-0.1-1.113","null","<span style='color:GreenYellow; font-size: 70px;'>正确! </span>","null","","","","","","","","","","","","","","","","","","","","","","","feedback_test"
"","","","","","psychophysics","389","1003170","0.0-13.0-1.0-1.0-0.1-0.114","677","","f","","","","","","","","","","","","","key","f","16.66351818181786","768","428","f","true","img/T_ambi40.png","三角","word_first",""
"","","","","","html-keyboard-response","390","1003479","0.0-13.0-1.0-1.0-0.1-1.114","null","<span style='color:GreenYellow; font-size: 70px;'>正确! </span>","null","","","","","","","","","","","","","","","","","","","","","","","feedback_test"
"","","","","","psychophysics","391","1005269","0.0-13.0-1.0-1.0-0.1-0.115","640","","f","","","","","","","","","","","","","key","f","16.664261682242998","768","428","j","false","img/S_ambi40.png","圆形","word_first",""
"","","","","","html-keyboard-response","392","1005584","0.0-13.0-1.0-1.0-0.1-1.115","null","<span style='color:red; font-size: 70px;'>错误! </span>","null","","","","","","","","","","","","","","","","","","","","","","","feedback_test"
"","","","","","psychophysics","393","1007505","0.0-13.0-1.0-1.0-0.1-0.116","767","","j","","","","","","","","","","","","","key","j","16.66237391304306","768","428","j","true","img/C_ambi40.png","三角","word_first",""
"","","","","","html-keyboard-response","394","1007817","0.0-13.0-1.0-1.0-0.1-1.116","null","<span style='color:GreenYellow; font-size: 70px;'>正确! </span>","null","","","","","","","","","","","","","","","","","","","","","","","feedback_test"
"","","","","","psychophysics","395","1009803","0.0-13.0-1.0-1.0-0.1-0.117","832","","j","","","","","","","","","","","","","key","j","16.666840336134875","768","428","j","true","img/C_ambi40.png","方形","word_first",""
"","","","","","html-keyboard-response","396","1010114","0.0-13.0-1.0-1.0-0.1-1.117","null","<span style='color:GreenYellow; font-size: 70px;'>正确! </span>","null","","","","","","","","","","","","","","","","","","","","","","","feedback_test"
"","","","","","psychophysics","397","1011900","0.0-13.0-1.0-1.0-0.1-0.118","635","","j","","","","","","","","","","","","","key","j","16.66501886792424","768","428","j","true","img/S_ambi40.png","三角","word_first",""
"","","","","","html-keyboard-response","398","1012205","0.0-13.0-1.0-1.0-0.1-1.118","null","<span style='color:GreenYellow; font-size: 70px;'>正确! </span>","null","","","","","","","","","","","","","","","","","","","","","","","feedback_test"
"","","","","","psychophysics","399","1013918","0.0-13.0-1.0-1.0-0.1-0.119","557","","j","","","","","","","","","","","","","key","j","16.66349514563075","768","428","f","false","img/T_ambi40.png","三角","word_first",""
"","","","","","html-keyboard-response","400","1014226","0.0-13.0-1.0-1.0-0.1-1.119","null","<span style='color:red; font-size: 70px;'>错误! </span>","null","","","","","","","","","","","","","","","","","","","","","","","feedback_test"
"","","","","","html-keyboard-response","401","1021893","0.0-13.0-1.0-1.0-1.1","7667","<style>.context{color:white; font-size: 35px; line-height:40px}</style>                            <div><p class='context'>您正确回答了97% 的试次。</p><p class='context'>您的平均反应时为676毫秒。</p><p class='context'>请按任意键进入休息</p></div>"," ","","","","","","","","","","","","","","","","","","","","","","",""
"","","","","","html-button-response","402","1085792","0.0-13.0-1.0-1.0-2.1","63896","
                    <p>您当前还剩余2组实验</p>
                    <p>现在是休息时间，当您结束休息后，您可以点击 结束休息 按钮 继续</p>
                    <p>建议休息时间还剩余<span id=""iii"">60</span>秒</p>","0","","","","","","","","","","","","","","","","","","","","","","",""
"","","","","","psychophysics","403","1088455","0.0-13.0-1.0-1.0-0.2-0.120","null","","null","","","","","","","","","","","","","key","null","16.665415094339483","768","428","f","false","img/C_ambi40.png","圆形","word_first",""
"","","","","","html-keyboard-response","404","1088765","0.0-13.0-1.0-1.0-0.2-1.120","null","<span class='add_' style='color:yellow; font-size: 70px;'> 太慢! </span>","null","","","","","","","","","","","","","","","","","","","","","","","feedback_test"
"","","","","","psychophysics","405","1090490","0.0-13.0-1.0-1.0-0.2-0.121","569","","f","","","","","","","","","","","","","key","f","16.668326923077423","768","428","f","true","img/S_ambi40.png","方形","word_first",""
"","","","","","html-keyboard-response","406","1090803","0.0-13.0-1.0-1.0-0.2-1.121","null","<span style='color:GreenYellow; font-size: 70px;'>正确! </span>","null","","","","","","","","","","","","","","","","","","","","","","","feedback_test"
"","","","","","psychophysics","407","1092435","0.0-13.0-1.0-1.0-0.2-0.122","481","","f","","","","","","","","","","","","","key","f","16.663072164948147","768","428","f","true","img/C_ambi40.png","圆形","word_first",""
"","","","","","html-keyboard-response","408","1092750","0.0-13.0-1.0-1.0-0.2-1.122","null","<span style='color:GreenYellow; font-size: 70px;'>正确! </span>","null","","","","","","","","","","","","","","","","","","","","","","","feedback_test"
"","","","","","psychophysics","409","1094474","0.0-13.0-1.0-1.0-0.2-0.123","573","","j","","","","","","","","","","","","","key","j","16.664300970873317","768","428","j","true","img/S_ambi40.png","三角","word_first",""
"","","","","","html-keyboard-response","410","1094783","0.0-13.0-1.0-1.0-0.2-1.123","null","<span style='color:GreenYellow; font-size: 70px;'>正确! </span>","null","","","","","","","","","","","","","","","","","","","","","","","feedback_test"
"","","","","","psychophysics","411","1096605","0.0-13.0-1.0-1.0-0.2-0.124","668","","f","","","","","","","","","","","","","key","f","16.818275229358157","768","428","f","true","img/T_ambi40.png","三角","word_first",""
"","","","","","html-keyboard-response","412","1096913","0.0-13.0-1.0-1.0-0.2-1.124","null","<span style='color:GreenYellow; font-size: 70px;'>正确! </span>","null","","","","","","","","","","","","","","","","","","","","","","","feedback_test"
"","","","","","psychophysics","413","1098632","0.0-13.0-1.0-1.0-0.2-0.125","563","","j","","","","","","","","","","","","","key","j","16.669009708736127","768","428","j","true","img/T_ambi40.png","圆形","word_first",""
"","","","","","html-keyboard-response","414","1098934","0.0-13.0-1.0-1.0-0.2-1.125","null","<span style='color:GreenYellow; font-size: 70px;'>正确! </span>","null","","","","","","","","","","","","","","","","","","","","","","","feedback_test"
"","","","","","psychophysics","415","1100788","0.0-13.0-1.0-1.0-0.2-0.126","702","","j","","","","","","","","","","","","","key","j","16.66784684684732","768","428","j","true","img/T_ambi40.png","方形","word_first",""
"","","","","","html-keyboard-response","416","1101104","0.0-13.0-1.0-1.0-0.2-1.126","null","<span style='color:GreenYellow; font-size: 70px;'>正确! </span>","null","","","","","","","","","","","","","","","","","","","","","","","feedback_test"
"","","","","","psychophysics","417","1102913","0.0-13.0-1.0-1.0-0.2-0.127","654","","f","","","","","","","","","","","","","key","f","16.660925233643066","768","428","f","true","img/S_ambi40.png","方形","word_first",""
"","","","","","html-keyboard-response","418","1103227","0.0-13.0-1.0-1.0-0.2-1.127","null","<span style='color:GreenYellow; font-size: 70px;'>正确! </span>","null","","","","","","","","","","","","","","","","","","","","","","","feedback_test"
"","","","","","psychophysics","419","1105053","0.0-13.0-1.0-1.0-0.2-0.128","669","","j","","","","","","","","","","","","","key","j","16.6625","768","428","j","true","img/S_ambi40.png","圆形","word_first",""
"","","","","","html-keyboard-response","420","1105369","0.0-13.0-1.0-1.0-0.2-1.128","null","<span style='color:GreenYellow; font-size: 70px;'>正确! </span>","null","","","","","","","","","","","","","","","","","","","","","","","feedback_test"
"","","","","","psychophysics","421","1107106","0.0-13.0-1.0-1.0-0.2-0.129","587","","j","","","","","","","","","","","","","key","j","16.66487378640851","768","428","j","true","img/C_ambi40.png","方形","word_first",""
"","","","","","html-keyboard-response","422","1107415","0.0-13.0-1.0-1.0-0.2-1.129","null","<span style='color:GreenYellow; font-size: 70px;'>正确! </span>","null","","","","","","","","","","","","","","","","","","","","","","","feedback_test"
"","","","","","psychophysics","423","1109235","0.0-13.0-1.0-1.0-0.2-0.130","666","","j","","","","","","","","","","","","","key","j","16.819527777776347","768","428","j","true","img/C_ambi40.png","三角","word_first",""
"","","","","","html-keyboard-response","424","1109540","0.0-13.0-1.0-1.0-0.2-1.130","null","<span style='color:GreenYellow; font-size: 70px;'>正确! </span>","null","","","","","","","","","","","","","","","","","","","","","","","feedback_test"
"","","","","","psychophysics","425","1111417","0.0-13.0-1.0-1.0-0.2-0.131","721","","f","","","","","","","","","","","","","key","f","16.66168750000153","768","428","f","true","img/T_ambi40.png","三角","word_first",""
"","","","","","html-keyboard-response","426","1111727","0.0-13.0-1.0-1.0-0.2-1.131","null","<span style='color:GreenYellow; font-size: 70px;'>正确! </span>","null","","","","","","","","","","","","","","","","","","","","","","","feedback_test"
"","","","","","psychophysics","427","1113503","0.0-13.0-1.0-1.0-0.2-0.132","625","","j","","","","","","","","","","","","","key","j","16.661075471698325","768","428","j","true","img/T_ambi40.png","方形","word_first",""
"","","","","","html-keyboard-response","428","1113818","0.0-13.0-1.0-1.0-0.2-1.132","null","<span style='color:GreenYellow; font-size: 70px;'>正确! </span>","null","","","","","","","","","","","","","","","","","","","","","","","feedback_test"
"","","","","","psychophysics","429","1115911","0.0-13.0-1.0-1.0-0.2-0.133","942","","j","","","","","","","","","","","","","key","j","16.662783999999984","768","428","j","true","img/C_ambi40.png","方形","word_first",""
"","","","","","html-keyboard-response","430","1116212","0.0-13.0-1.0-1.0-0.2-1.133","null","<span style='color:GreenYellow; font-size: 70px;'>正确! </span>","null","","","","","","","","","","","","","","","","","","","","","","","feedback_test"
"","","","","","psychophysics","431","1117979","0.0-13.0-1.0-1.0-0.2-0.134","614","","f","","","","","","","","","","","","","key","f","16.664896226413372","768","428","f","true","img/C_ambi40.png","圆形","word_first",""
"","","","","","html-keyboard-response","432","1118287","0.0-13.0-1.0-1.0-0.2-1.134","null","<span style='color:GreenYellow; font-size: 70px;'>正确! </span>","null","","","","","","","","","","","","","","","","","","","","","","","feedback_test"
