"success","timeout","failed_images","failed_audio","failed_video","trial_type","trial_index","time_elapsed","internal_node_id","rt","stimulus","response","value","item_width_mm","item_height_mm","item_width_px","px2mm","view_dist_mm","item_width_deg","px2deg","scale_factor","win_width_deg","win_height_deg","view_history","response_type","key_press","avg_frame_time","center_x","center_y","correct_response","correct","Image","word","condition","screen_id"
"true","false","[]","[]","[]","preload","0","418","0.0-0.0","","","","","","","","","","","","","","","","","","","","","","","","","",""
"","","","","","html-keyboard-response","1","79457","0.0-1.0","79038","
   <p>您好，欢迎参加本次实验。</p>
   <p>为充分保障您的权利，请确保您已经知晓并同意《参与实验同意书》以及《数据公开知情同意书》。</p>
   <p>如果您未见过上述内容，请咨询实验员。</p>
   <p>如果您选择继续实验，则表示您已经清楚两份知情同意书的内容并同意。</p>
   <p> <div style = ""color: green""><按任意键至下页></div> </p>
   ","arrowdown","","","","","","","","","","","","","","","","","","","","","","",""
"","","","","","html-keyboard-response","2","82111","0.0-2.0","2653","
   <p>本实验首先需要您填写一些基本个人信息。</p>
   <p> <div style = ""color: green""><按任意键至下页></div></p>
   ","arrowdown","","","","","","","","","","","","","","","","","","","","","","",""
"","","","","","call-function","3","82113","0.0-3.0-0.0","","","","","","","","","","","","","","","","","","","","","","","","","",""
"","","","","","survey-html-form","4","86734","0.0-3.0-1.0","4618","","{""Q0"":""5""}","","","","","","","","","","","","","","","","","","","","","","",""
"","","","","","html-button-response","5","88087","0.0-3.0-2.0","1350","<p style = 'color : white'>您的性别</p>","1","","","","","","","","","","","","","","","","","","","","","","",""
"","","","","","survey-html-form","6","97545","0.0-3.0-3.0","9456","","{""Q0"":""1998""}","","","","","","","","","","","","","","","","","","","","","","",""
"","","","","","survey-html-form","7","100721","0.0-3.0-4.0","3175","","{""Q0"":""6""}","","","","","","","","","","","","","","","","","","","","","","",""
"","","","","","virtual-chinrest","8","462005","0.0-4.0","361281","","","","85.6","53.98","509.51870189546","5.946673798402539","480.02","10.190374037909201","50","0.7281381402092666","25.6","11.54","","","","","","","","","","","",""
"true","","","","","fullscreen","9","487529","0.0-5.0","","","","","","","","","","","","","","","","","","","","","","","","","",""
"","","","","","instructions","10","549320","0.0-6.0","61789","","","","","","","","","","","","","","[{""page_index"":0,""viewing_time"":4299},{""page_index"":1,""viewing_time"":43594},{""page_index"":2,""viewing_time"":10109},{""page_index"":3,""viewing_time"":3787}]","","","","","","","","","","",""
"","","","","","psychophysics","11","551889","0.0-7.0-0.0-0.0","1413","","j","","","","","","","","","","","","","key","j","16.66848366013028","640","356","j","true","img/T_ambi40.png","三角","prac_image_first",""
"","","","","","html-keyboard-response","12","552194","0.0-7.0-0.0-1.0","null","<span style='color:GreenYellow; font-size: 70px;'>正确! </span>","null","","","","","","","","","","","","","","","","","","","","","","","feedback_test"
"","","","","","psychophysics","13","554444","0.0-7.0-0.0-0.1","1098","","f","","","","","","","","","","","","","key","f","16.66632089552247","640","356","f","true","img/S_ambi40.png","三角","prac_image_first",""
"","","","","","html-keyboard-response","14","554757","0.0-7.0-0.0-1.1","null","<span style='color:GreenYellow; font-size: 70px;'>正确! </span>","null","","","","","","","","","","","","","","","","","","","","","","","feedback_test"
"","","","","","psychophysics","15","556670","0.0-7.0-0.0-0.2","760","","j","","","","","","","","","","","","","key","j","16.666429824561387","640","356","j","true","img/T_ambi40.png","三角","prac_image_first",""
"","","","","","html-keyboard-response","16","556986","0.0-7.0-0.0-1.2","null","<span style='color:GreenYellow; font-size: 70px;'>正确! </span>","null","","","","","","","","","","","","","","","","","","","","","","","feedback_test"
"","","","","","psychophysics","17","559104","0.0-7.0-0.0-0.3","966","","j","","","","","","","","","","","","","key","j","16.66634126984152","640","356","j","true","img/S_ambi40.png","方形","prac_image_first",""
"","","","","","html-keyboard-response","18","559411","0.0-7.0-0.0-1.3","null","<span style='color:GreenYellow; font-size: 70px;'>正确! </span>","null","","","","","","","","","","","","","","","","","","","","","","","feedback_test"
"","","","","","psychophysics","19","561425","0.0-7.0-0.0-0.4","861","","f","","","","","","","","","","","","","key","f","16.667336134453297","640","356","f","true","img/S_ambi40.png","圆形","prac_image_first",""
"","","","","","html-keyboard-response","20","561735","0.0-7.0-0.0-1.4","null","<span style='color:GreenYellow; font-size: 70px;'>正确! </span>","null","","","","","","","","","","","","","","","","","","","","","","","feedback_test"
"","","","","","psychophysics","21","563670","0.0-7.0-0.0-0.5","784","","j","","","","","","","","","","","","","key","j","16.664339130434573","640","356","j","true","img/C_ambi40.png","圆形","prac_image_first",""
"","","","","","html-keyboard-response","22","563982","0.0-7.0-0.0-1.5","null","<span style='color:GreenYellow; font-size: 70px;'>正确! </span>","null","","","","","","","","","","","","","","","","","","","","","","","feedback_test"
"","","","","","psychophysics","23","565847","0.0-7.0-0.0-0.6","714","","f","","","","","","","","","","","","","key","f","16.666387387387758","640","356","f","true","img/C_ambi40.png","方形","prac_image_first",""
"","","","","","html-keyboard-response","24","566149","0.0-7.0-0.0-1.6","null","<span style='color:GreenYellow; font-size: 70px;'>正确! </span>","null","","","","","","","","","","","","","","","","","","","","","","","feedback_test"
"","","","","","psychophysics","25","568632","0.0-7.0-0.0-0.7","1332","","f","","","","","","","","","","","","","key","f","16.666466216216133","640","356","f","true","img/T_ambi40.png","方形","prac_image_first",""
"","","","","","html-keyboard-response","26","568947","0.0-7.0-0.0-1.7","null","<span style='color:GreenYellow; font-size: 70px;'>正确! </span>","null","","","","","","","","","","","","","","","","","","","","","","","feedback_test"
"","","","","","psychophysics","27","571111","0.0-7.0-0.0-0.8","1013","","f","","","","","","","","","","","","","key","f","16.666844961240656","640","356","f","true","img/C_ambi40.png","三角","prac_image_first",""
"","","","","","html-keyboard-response","28","571412","0.0-7.0-0.0-1.8","null","<span style='color:GreenYellow; font-size: 70px;'>正确! </span>","null","","","","","","","","","","","","","","","","","","","","","","","feedback_test"
"","","","","","psychophysics","29","573344","0.0-7.0-0.0-0.9","780","","f","","","","","","","","","","","","","key","f","16.666573913044136","640","356","f","true","img/T_ambi40.png","圆形","prac_image_first",""
"","","","","","html-keyboard-response","30","573655","0.0-7.0-0.0-1.9","null","<span style='color:GreenYellow; font-size: 70px;'>正确! </span>","null","","","","","","","","","","","","","","","","","","","","","","","feedback_test"
"","","","","","psychophysics","31","575618","0.0-7.0-0.0-0.10","808","","j","","","","","","","","","","","","","key","j","16.666623931623892","640","356","j","true","img/S_ambi40.png","方形","prac_image_first",""
"","","","","","html-keyboard-response","32","575932","0.0-7.0-0.0-1.10","null","<span style='color:GreenYellow; font-size: 70px;'>正确! </span>","null","","","","","","","","","","","","","","","","","","","","","","","feedback_test"
"","","","","","psychophysics","33","577867","0.0-7.0-0.0-0.11","783","","j","","","","","","","","","","","","","key","j","16.665391304347988","640","356","j","true","img/C_ambi40.png","圆形","prac_image_first",""
"","","","","","html-keyboard-response","34","578178","0.0-7.0-0.0-1.11","null","<span style='color:GreenYellow; font-size: 70px;'>正确! </span>","null","","","","","","","","","","","","","","","","","","","","","","","feedback_test"
"","","","","","psychophysics","35","579942","0.0-7.0-0.0-0.12","612","","j","","","","","","","","","","","","","key","j","16.666365384615627","640","356","j","true","img/C_ambi40.png","圆形","prac_image_first",""
"","","","","","html-keyboard-response","36","580249","0.0-7.0-0.0-1.12","null","<span style='color:GreenYellow; font-size: 70px;'>正确! </span>","null","","","","","","","","","","","","","","","","","","","","","","","feedback_test"
"","","","","","psychophysics","37","582164","0.0-7.0-0.0-0.13","763","","f","","","","","","","","","","","","","key","f","16.666500000000255","640","356","f","true","img/C_ambi40.png","三角","prac_image_first",""
"","","","","","html-keyboard-response","38","582466","0.0-7.0-0.0-1.13","null","<span style='color:GreenYellow; font-size: 70px;'>正确! </span>","null","","","","","","","","","","","","","","","","","","","","","","","feedback_test"
"","","","","","psychophysics","39","584818","0.0-7.0-0.0-0.14","1202","","f","","","","","","","","","","","","","key","f","16.665685714285686","640","356","f","true","img/C_ambi40.png","方形","prac_image_first",""
"","","","","","html-keyboard-response","40","585132","0.0-7.0-0.0-1.14","null","<span style='color:GreenYellow; font-size: 70px;'>正确! </span>","null","","","","","","","","","","","","","","","","","","","","","","","feedback_test"
"","","","","","psychophysics","41","587244","0.0-7.0-0.0-0.15","961","","f","","","","","","","","","","","","","key","f","16.666531746031804","640","356","f","true","img/S_ambi40.png","三角","prac_image_first",""
"","","","","","html-keyboard-response","42","587547","0.0-7.0-0.0-1.15","null","<span style='color:GreenYellow; font-size: 70px;'>正确! </span>","null","","","","","","","","","","","","","","","","","","","","","","","feedback_test"
"","","","","","psychophysics","43","589759","0.0-7.0-0.0-0.16","1060","","j","","","","","","","","","","","","","key","j","16.666633587786464","640","356","j","true","img/S_ambi40.png","方形","prac_image_first",""
"","","","","","html-keyboard-response","44","590067","0.0-7.0-0.0-1.16","null","<span style='color:GreenYellow; font-size: 70px;'>正确! </span>","null","","","","","","","","","","","","","","","","","","","","","","","feedback_test"
"","","","","","psychophysics","45","592052","0.0-7.0-0.0-0.17","835","","f","","","","","","","","","","","","","key","f","16.663855932203074","640","356","f","true","img/T_ambi40.png","方形","prac_image_first",""
"","","","","","html-keyboard-response","46","592363","0.0-7.0-0.0-1.17","null","<span style='color:GreenYellow; font-size: 70px;'>正确! </span>","null","","","","","","","","","","","","","","","","","","","","","","","feedback_test"
"","","","","","psychophysics","47","594211","0.0-7.0-0.0-0.18","695","","j","","","","","","","","","","","","","key","j","16.664363636364314","640","356","j","true","img/T_ambi40.png","三角","prac_image_first",""
"","","","","","html-keyboard-response","48","594524","0.0-7.0-0.0-1.18","null","<span style='color:GreenYellow; font-size: 70px;'>正确! </span>","null","","","","","","","","","","","","","","","","","","","","","","","feedback_test"
"","","","","","psychophysics","49","596445","0.0-7.0-0.0-0.19","769","","j","","","","","","","","","","","","","key","j","16.55738596491242","640","356","j","true","img/C_ambi40.png","圆形","prac_image_first",""
"","","","","","html-keyboard-response","50","596748","0.0-7.0-0.0-1.19","null","<span style='color:GreenYellow; font-size: 70px;'>正确! </span>","null","","","","","","","","","","","","","","","","","","","","","","","feedback_test"
"","","","","","psychophysics","51","598576","0.0-7.0-0.0-0.20","676","","f","","","","","","","","","","","","","key","f","16.666486238532084","640","356","f","true","img/T_ambi40.png","圆形","prac_image_first",""
"","","","","","html-keyboard-response","52","598882","0.0-7.0-0.0-1.20","null","<span style='color:GreenYellow; font-size: 70px;'>正确! </span>","null","","","","","","","","","","","","","","","","","","","","","","","feedback_test"
"","","","","","psychophysics","53","601140","0.0-7.0-0.0-0.21","1107","","f","","","","","","","","","","","","","key","f","16.66609701492525","640","356","f","true","img/S_ambi40.png","圆形","prac_image_first",""
"","","","","","html-keyboard-response","54","601449","0.0-7.0-0.0-1.21","null","<span style='color:GreenYellow; font-size: 70px;'>正确! </span>","null","","","","","","","","","","","","","","","","","","","","","","","feedback_test"
"","","","","","psychophysics","55","603580","0.0-7.0-0.0-0.22","980","","j","","","","","","","","","","","","","key","j","16.666354330708494","640","356","j","true","img/S_ambi40.png","方形","prac_image_first",""
"","","","","","html-keyboard-response","56","603893","0.0-7.0-0.0-1.22","null","<span style='color:GreenYellow; font-size: 70px;'>正确! </span>","null","","","","","","","","","","","","","","","","","","","","","","","feedback_test"
"","","","","","psychophysics","57","605815","0.0-7.0-0.0-0.23","771","","j","","","","","","","","","","","","","key","j","16.664236842105247","640","356","j","true","img/T_ambi40.png","三角","prac_image_first",""
"","","","","","html-keyboard-response","58","606118","0.0-7.0-0.0-1.23","null","<span style='color:GreenYellow; font-size: 70px;'>正确! </span>","null","","","","","","","","","","","","","","","","","","","","","","","feedback_test"
"","","","","","html-keyboard-response","59","615487","0.0-8.0","9366","<style>.context{color:white; font-size: 35px; line-height:40px}</style>                            <div><p class='context'>您正确回答了100% 的试次。</p><p class='context'>您的平均反应时为906毫秒。</p><p class='context'>恭喜您完成这一阶段的练习。按任意键进入<span style='color: yellow;'>先文字后图形条件</span>的练习。</p></div>","arrowdown","","","","","","","","","","","","","","","","","","","","","","",""
"","","","","","psychophysics","60","618142","0.0-9.0-0.0-0.0","null","","null","","","","","","","","","","","","","key","null","16.6668924050637","640","356","j","false","img/T_ambi40.png","三角","prac_word_first",""
"","","","","","html-keyboard-response","61","618445","0.0-9.0-0.0-1.0","null","<span class='add_' style='color:yellow; font-size: 70px;'> 太慢! </span>","null","","","","","","","","","","","","","","","","","","","","","","","feedback_test"
"","","","","","psychophysics","62","620098","0.0-9.0-0.0-0.1","501","","j","","","","","","","","","","","","","key","j","16.665836734694846","640","356","j","true","img/T_ambi40.png","三角","prac_word_first",""
"","","","","","html-keyboard-response","63","620402","0.0-9.0-0.0-1.1","null","<span style='color:GreenYellow; font-size: 70px;'>正确! </span>","null","","","","","","","","","","","","","","","","","","","","","","","feedback_test"
"","","","","","psychophysics","64","622118","0.0-9.0-0.0-0.2","564","","f","","","","","","","","","","","","","key","f","16.666450980392185","640","356","f","true","img/S_ambi40.png","三角","prac_word_first",""
"","","","","","html-keyboard-response","65","622433","0.0-9.0-0.0-1.2","null","<span style='color:GreenYellow; font-size: 70px;'>正确! </span>","null","","","","","","","","","","","","","","","","","","","","","","","feedback_test"
"","","","","","psychophysics","66","624209","0.0-9.0-0.0-0.3","626","","j","","","","","","","","","","","","","key","j","16.66617924528293","640","356","j","true","img/C_ambi40.png","圆形","prac_word_first",""
"","","","","","html-keyboard-response","67","624520","0.0-9.0-0.0-1.3","null","<span style='color:GreenYellow; font-size: 70px;'>正确! </span>","null","","","","","","","","","","","","","","","","","","","","","","","feedback_test"
"","","","","","psychophysics","68","626279","0.0-9.0-0.0-0.4","608","","f","","","","","","","","","","","","","key","f","16.667685714285334","640","356","f","true","img/S_ambi40.png","圆形","prac_word_first",""
"","","","","","html-keyboard-response","69","626587","0.0-9.0-0.0-1.4","null","<span style='color:GreenYellow; font-size: 70px;'>正确! </span>","null","","","","","","","","","","","","","","","","","","","","","","","feedback_test"
"","","","","","psychophysics","70","628399","0.0-9.0-0.0-0.5","661","","j","","","","","","","","","","","","","key","j","16.668351851852126","640","356","j","true","img/S_ambi40.png","方形","prac_word_first",""
"","","","","","html-keyboard-response","71","628706","0.0-9.0-0.0-1.5","null","<span style='color:GreenYellow; font-size: 70px;'>正确! </span>","null","","","","","","","","","","","","","","","","","","","","","","","feedback_test"
"","","","","","psychophysics","72","630441","0.0-9.0-0.0-0.6","583","","f","","","","","","","","","","","","","key","f","16.666611650485084","640","356","f","true","img/C_ambi40.png","三角","prac_word_first",""
"","","","","","html-keyboard-response","73","630745","0.0-9.0-0.0-1.6","null","<span style='color:GreenYellow; font-size: 70px;'>正确! </span>","null","","","","","","","","","","","","","","","","","","","","","","","feedback_test"
"","","","","","psychophysics","74","632441","0.0-9.0-0.0-0.7","544","","j","","","","","","","","","","","","","key","j","16.66329999999958","640","356","f","false","img/T_ambi40.png","圆形","prac_word_first",""
"","","","","","html-keyboard-response","75","632758","0.0-9.0-0.0-1.7","null","<span style='color:red; font-size: 70px;'>错误! </span>","null","","","","","","","","","","","","","","","","","","","","","","","feedback_test"
"","","","","","psychophysics","76","635329","0.0-9.0-0.0-0.8","1421","","j","","","","","","","","","","","","","key","j","16.580503267974112","640","356","j","true","img/C_ambi40.png","圆形","prac_word_first",""
"","","","","","html-keyboard-response","77","635635","0.0-9.0-0.0-1.8","null","<span style='color:GreenYellow; font-size: 70px;'>正确! </span>","null","","","","","","","","","","","","","","","","","","","","","","","feedback_test"
"","","","","","psychophysics","78","637351","0.0-9.0-0.0-0.9","564","","f","","","","","","","","","","","","","key","f","16.66871568627482","640","356","f","true","img/T_ambi40.png","方形","prac_word_first",""
"","","","","","html-keyboard-response","79","637665","0.0-9.0-0.0-1.9","null","<span style='color:GreenYellow; font-size: 70px;'>正确! </span>","null","","","","","","","","","","","","","","","","","","","","","","","feedback_test"
"","","","","","psychophysics","80","639584","0.0-9.0-0.0-0.10","766","","j","","","","","","","","","","","","","key","j","16.66466666666664","640","356","j","true","img/S_ambi40.png","方形","prac_word_first",""
"","","","","","html-keyboard-response","81","639885","0.0-9.0-0.0-1.10","null","<span style='color:GreenYellow; font-size: 70px;'>正确! </span>","null","","","","","","","","","","","","","","","","","","","","","","","feedback_test"
"","","","","","psychophysics","82","641637","0.0-9.0-0.0-0.11","601","","f","","","","","","","","","","","","","key","f","16.666576923077137","640","356","f","true","img/C_ambi40.png","方形","prac_word_first",""
"","","","","","html-keyboard-response","83","641939","0.0-9.0-0.0-1.11","null","<span style='color:GreenYellow; font-size: 70px;'>正确! </span>","null","","","","","","","","","","","","","","","","","","","","","","","feedback_test"
"","","","","","psychophysics","84","643704","0.0-9.0-0.0-0.12","613","","j","","","","","","","","","","","","","key","j","16.66614285714237","640","356","j","true","img/T_ambi40.png","三角","prac_word_first",""
"","","","","","html-keyboard-response","85","644014","0.0-9.0-0.0-1.12","null","<span style='color:GreenYellow; font-size: 70px;'>正确! </span>","null","","","","","","","","","","","","","","","","","","","","","","","feedback_test"
"","","","","","psychophysics","86","645999","0.0-9.0-0.0-0.13","834","","j","","","","","","","","","","","","","key","j","16.666813559321117","640","356","j","true","img/C_ambi40.png","圆形","prac_word_first",""
"","","","","","html-keyboard-response","87","646315","0.0-9.0-0.0-1.13","null","<span style='color:GreenYellow; font-size: 70px;'>正确! </span>","null","","","","","","","","","","","","","","","","","","","","","","","feedback_test"
"","","","","","psychophysics","88","647955","0.0-9.0-0.0-0.14","489","","j","","","","","","","","","","","","","key","j","16.669030927835735","640","356","j","true","img/C_ambi40.png","圆形","prac_word_first",""
"","","","","","html-keyboard-response","89","648260","0.0-9.0-0.0-1.14","null","<span style='color:GreenYellow; font-size: 70px;'>正确! </span>","null","","","","","","","","","","","","","","","","","","","","","","","feedback_test"
"","","","","","psychophysics","90","649906","0.0-9.0-0.0-0.15","494","","f","","","","","","","","","","","","","key","f","16.664845360824646","640","356","f","true","img/S_ambi40.png","三角","prac_word_first",""
"","","","","","html-keyboard-response","91","650209","0.0-9.0-0.0-1.15","null","<span style='color:GreenYellow; font-size: 70px;'>正确! </span>","null","","","","","","","","","","","","","","","","","","","","","","","feedback_test"
"","","","","","psychophysics","92","651876","0.0-9.0-0.0-0.16","516","","j","","","","","","","","","","","","","key","j","16.665888888889576","640","356","j","true","img/T_ambi40.png","三角","prac_word_first",""
"","","","","","html-keyboard-response","93","652181","0.0-9.0-0.0-1.16","null","<span style='color:GreenYellow; font-size: 70px;'>正确! </span>","null","","","","","","","","","","","","","","","","","","","","","","","feedback_test"
"","","","","","psychophysics","94","653941","0.0-9.0-0.0-0.17","609","","j","","","","","","","","","","","","","key","j","16.66530769230807","640","356","j","true","img/S_ambi40.png","方形","prac_word_first",""
"","","","","","html-keyboard-response","95","654248","0.0-9.0-0.0-1.17","null","<span style='color:GreenYellow; font-size: 70px;'>正确! </span>","null","","","","","","","","","","","","","","","","","","","","","","","feedback_test"
"","","","","","psychophysics","96","655972","0.0-9.0-0.0-0.18","571","","f","","","","","","","","","","","","","key","f","16.66542156862766","640","356","f","true","img/C_ambi40.png","三角","prac_word_first",""
"","","","","","html-keyboard-response","97","656275","0.0-9.0-0.0-1.18","null","<span style='color:GreenYellow; font-size: 70px;'>正确! </span>","null","","","","","","","","","","","","","","","","","","","","","","","feedback_test"
"","","","","","psychophysics","98","658206","0.0-9.0-0.0-0.19","779","","f","","","","","","","","","","","","","key","f","16.669245614035038","640","356","f","true","img/T_ambi40.png","方形","prac_word_first",""
"","","","","","html-keyboard-response","99","658508","0.0-9.0-0.0-1.19","null","<span style='color:GreenYellow; font-size: 70px;'>正确! </span>","null","","","","","","","","","","","","","","","","","","","","","","","feedback_test"
"","","","","","psychophysics","100","660382","0.0-9.0-0.0-0.20","723","","j","","","","","","","","","","","","","key","j","16.668558558558225","640","356","j","true","img/S_ambi40.png","方形","prac_word_first",""
"","","","","","html-keyboard-response","101","660689","0.0-9.0-0.0-1.20","null","<span style='color:GreenYellow; font-size: 70px;'>正确! </span>","null","","","","","","","","","","","","","","","","","","","","","","","feedback_test"
"","","","","","psychophysics","102","662444","0.0-9.0-0.0-0.21","603","","f","","","","","","","","","","","","","key","f","16.669895238095584","640","356","f","true","img/T_ambi40.png","圆形","prac_word_first",""
"","","","","","html-keyboard-response","103","662757","0.0-9.0-0.0-1.21","null","<span style='color:GreenYellow; font-size: 70px;'>正确! </span>","null","","","","","","","","","","","","","","","","","","","","","","","feedback_test"
"","","","","","psychophysics","104","664551","0.0-9.0-0.0-0.22","642","","f","","","","","","","","","","","","","key","f","16.66608411214906","640","356","f","true","img/S_ambi40.png","圆形","prac_word_first",""
"","","","","","html-keyboard-response","105","664863","0.0-9.0-0.0-1.22","null","<span style='color:GreenYellow; font-size: 70px;'>正确! </span>","null","","","","","","","","","","","","","","","","","","","","","","","feedback_test"
"","","","","","psychophysics","106","666899","0.0-9.0-0.0-0.23","884","","f","","","","","","","","","","","","","key","f","16.665851239669177","640","356","f","true","img/C_ambi40.png","方形","prac_word_first",""
"","","","","","html-keyboard-response","107","667210","0.0-9.0-0.0-1.23","null","<span style='color:GreenYellow; font-size: 70px;'>正确! </span>","null","","","","","","","","","","","","","","","","","","","","","","","feedback_test"
"","","","","","html-keyboard-response","108","670928","0.0-10.0","3715","<style>.context{color:white; font-size: 35px; line-height:40px}</style>                            <div><p class='context'>您正确回答了92% 的试次。</p><p class='context'>您的平均反应时为666毫秒。</p><p class='context'>恭喜您完成练习。按任意键进入<span style='color: yellow;'>图形和文字同时呈现条件</span>的练习。</p></div>","arrowdown","","","","","","","","","","","","","","","","","","","","","","",""
"","","","","","psychophysics","109","672585","0.0-11.0-0.0-0.0","653","","f","","","","","","","","","","","","","key","f","16.66701020408132","640","356","f","true","img/C_ambi40.png","三角","prac_simultaneous",""
"","","","","","html-keyboard-response","110","672898","0.0-11.0-0.0-1.0","null","<span style='color:GreenYellow; font-size: 70px;'>正确! </span>","null","","","","","","","","","","","","","","","","","","","","","","","feedback_test"
"","","","","","psychophysics","111","674570","0.0-11.0-0.0-0.1","670","","j","","","","","","","","","","","","","key","j","16.666535353536172","640","356","j","true","img/T_ambi40.png","三角","prac_simultaneous",""
"","","","","","html-keyboard-response","112","674881","0.0-11.0-0.0-1.1","null","<span style='color:GreenYellow; font-size: 70px;'>正确! </span>","null","","","","","","","","","","","","","","","","","","","","","","","feedback_test"
"","","","","","psychophysics","113","676825","0.0-11.0-0.0-0.2","944","","j","","","","","","","","","","","","","key","j","16.666103448275205","640","356","j","true","img/S_ambi40.png","方形","prac_simultaneous",""
"","","","","","html-keyboard-response","114","677134","0.0-11.0-0.0-1.2","null","<span style='color:GreenYellow; font-size: 70px;'>正确! </span>","null","","","","","","","","","","","","","","","","","","","","","","","feedback_test"
"","","","","","psychophysics","115","678783","0.0-11.0-0.0-0.3","647","","j","","","","","","","","","","","","","key","j","16.667295918367536","640","356","j","true","img/C_ambi40.png","圆形","prac_simultaneous",""
"","","","","","html-keyboard-response","116","679097","0.0-11.0-0.0-1.3","null","<span style='color:GreenYellow; font-size: 70px;'>正确! </span>","null","","","","","","","","","","","","","","","","","","","","","","","feedback_test"
"","","","","","psychophysics","117","680731","0.0-11.0-0.0-0.4","632","","f","","","","","","","","","","","","","key","f","16.663845360823956","640","356","f","true","img/S_ambi40.png","三角","prac_simultaneous",""
"","","","","","html-keyboard-response","118","681034","0.0-11.0-0.0-1.4","null","<span style='color:GreenYellow; font-size: 70px;'>正确! </span>","null","","","","","","","","","","","","","","","","","","","","","","","feedback_test"
"","","","","","psychophysics","119","682936","0.0-11.0-0.0-0.5","900","","f","","","","","","","","","","","","","key","f","16.665309734512697","640","356","f","true","img/S_ambi40.png","圆形","prac_simultaneous",""
"","","","","","html-keyboard-response","120","683242","0.0-11.0-0.0-1.5","null","<span style='color:GreenYellow; font-size: 70px;'>正确! </span>","null","","","","","","","","","","","","","","","","","","","","","","","feedback_test"
"","","","","","psychophysics","121","684836","0.0-11.0-0.0-0.6","593","","j","","","","","","","","","","","","","key","j","16.665659574467313","640","356","j","true","img/S_ambi40.png","方形","prac_simultaneous",""
"","","","","","html-keyboard-response","122","685141","0.0-11.0-0.0-1.6","null","<span style='color:GreenYellow; font-size: 70px;'>正确! </span>","null","","","","","","","","","","","","","","","","","","","","","","","feedback_test"
"","","","","","psychophysics","123","686765","0.0-11.0-0.0-0.7","623","","j","","","","","","","","","","","","","key","j","16.6663750000007","640","356","j","true","img/C_ambi40.png","圆形","prac_simultaneous",""
"","","","","","html-keyboard-response","124","687073","0.0-11.0-0.0-1.7","null","<span style='color:GreenYellow; font-size: 70px;'>正确! </span>","null","","","","","","","","","","","","","","","","","","","","","","","feedback_test"
"","","","","","psychophysics","125","688965","0.0-11.0-0.0-0.8","890","","f","","","","","","","","","","","","","key","f","16.66680530973492","640","356","f","true","img/T_ambi40.png","圆形","prac_simultaneous",""
"","","","","","html-keyboard-response","126","689279","0.0-11.0-0.0-1.8","null","<span style='color:GreenYellow; font-size: 70px;'>正确! </span>","null","","","","","","","","","","","","","","","","","","","","","","","feedback_test"
"","","","","","psychophysics","127","691211","0.0-11.0-0.0-0.9","930","","f","","","","","","","","","","","","","key","f","16.667373913042653","640","356","f","true","img/C_ambi40.png","方形","prac_simultaneous",""
"","","","","","html-keyboard-response","128","691517","0.0-11.0-0.0-1.9","null","<span style='color:GreenYellow; font-size: 70px;'>正确! </span>","null","","","","","","","","","","","","","","","","","","","","","","","feedback_test"
"","","","","","psychophysics","129","693507","0.0-11.0-0.0-0.10","989","","f","","","","","","","","","","","","","key","f","16.66651694915234","640","356","f","true","img/T_ambi40.png","方形","prac_simultaneous",""
"","","","","","html-keyboard-response","130","693812","0.0-11.0-0.0-1.10","null","<span style='color:GreenYellow; font-size: 70px;'>正确! </span>","null","","","","","","","","","","","","","","","","","","","","","","","feedback_test"
"","","","","","psychophysics","131","695465","0.0-11.0-0.0-0.11","652","","j","","","","","","","","","","","","","key","j","16.66646938775405","640","356","j","true","img/T_ambi40.png","三角","prac_simultaneous",""
"","","","","","html-keyboard-response","132","695767","0.0-11.0-0.0-1.11","null","<span style='color:GreenYellow; font-size: 70px;'>正确! </span>","null","","","","","","","","","","","","","","","","","","","","","","","feedback_test"
"","","","","","psychophysics","133","697391","0.0-11.0-0.0-0.12","621","","j","","","","","","","","","","","","","key","j","16.666562499999902","640","356","j","true","img/S_ambi40.png","方形","prac_simultaneous",""
"","","","","","html-keyboard-response","134","697696","0.0-11.0-0.0-1.12","null","<span style='color:GreenYellow; font-size: 70px;'>正确! </span>","null","","","","","","","","","","","","","","","","","","","","","","","feedback_test"
"","","","","","psychophysics","135","699300","0.0-11.0-0.0-0.13","602","","j","","","","","","","","","","","","","key","j","16.663421052631826","640","356","j","true","img/T_ambi40.png","三角","prac_simultaneous",""
"","","","","","html-keyboard-response","136","699611","0.0-11.0-0.0-1.13","null","<span style='color:GreenYellow; font-size: 70px;'>正确! </span>","null","","","","","","","","","","","","","","","","","","","","","","","feedback_test"
"","","","","","psychophysics","137","701350","0.0-11.0-0.0-0.14","738","","f","","","","","","","","","","","","","key","f","16.66910679611599","640","356","f","true","img/C_ambi40.png","方形","prac_simultaneous",""
"","","","","","html-keyboard-response","138","701666","0.0-11.0-0.0-1.14","null","<span style='color:GreenYellow; font-size: 70px;'>正确! </span>","null","","","","","","","","","","","","","","","","","","","","","","","feedback_test"
"","","","","","psychophysics","139","703344","0.0-11.0-0.0-0.15","677","","f","","","","","","","","","","","","","key","f","16.66530999999959","640","356","f","true","img/S_ambi40.png","三角","prac_simultaneous",""
"","","","","","html-keyboard-response","140","703649","0.0-11.0-0.0-1.15","null","<span style='color:GreenYellow; font-size: 70px;'>正确! </span>","null","","","","","","","","","","","","","","","","","","","","","","","feedback_test"
"","","","","","psychophysics","141","705442","0.0-11.0-0.0-0.16","792","","j","","","","","","","","","","","","","key","j","16.66670093457998","640","356","j","true","img/C_ambi40.png","圆形","prac_simultaneous",""
"","","","","","html-keyboard-response","142","705744","0.0-11.0-0.0-1.16","null","<span style='color:GreenYellow; font-size: 70px;'>正确! </span>","null","","","","","","","","","","","","","","","","","","","","","","","feedback_test"
"","","","","","psychophysics","143","707415","0.0-11.0-0.0-0.17","669","","j","","","","","","","","","","","","","key","j","16.669020202020278","640","356","j","true","img/S_ambi40.png","方形","prac_simultaneous",""
"","","","","","html-keyboard-response","144","707723","0.0-11.0-0.0-1.17","null","<span style='color:GreenYellow; font-size: 70px;'>正确! </span>","null","","","","","","","","","","","","","","","","","","","","","","","feedback_test"
"","","","","","psychophysics","145","709525","0.0-11.0-0.0-0.18","801","","f","","","","","","","","","","","","","key","f","16.538186915887945","640","356","f","true","img/T_ambi40.png","圆形","prac_simultaneous",""
"","","","","","html-keyboard-response","146","709834","0.0-11.0-0.0-1.18","null","<span style='color:GreenYellow; font-size: 70px;'>正确! </span>","null","","","","","","","","","","","","","","","","","","","","","","","feedback_test"
"","","","","","psychophysics","147","711401","0.0-11.0-0.0-0.19","566","","j","","","","","","","","","","","","","key","j","16.669774193548278","640","356","j","true","img/T_ambi40.png","三角","prac_simultaneous",""
"","","","","","html-keyboard-response","148","711702","0.0-11.0-0.0-1.19","null","<span style='color:GreenYellow; font-size: 70px;'>正确! </span>","null","","","","","","","","","","","","","","","","","","","","","","","feedback_test"
"","","","","","psychophysics","149","713488","0.0-11.0-0.0-0.20","783","","f","","","","","","","","","","","","","key","f","16.66672641509498","640","356","f","true","img/S_ambi40.png","圆形","prac_simultaneous",""
"","","","","","html-keyboard-response","150","713799","0.0-11.0-0.0-1.20","null","<span style='color:GreenYellow; font-size: 70px;'>正确! </span>","null","","","","","","","","","","","","","","","","","","","","","","","feedback_test"
"","","","","","psychophysics","151","715456","0.0-11.0-0.0-0.21","654","","j","","","","","","","","","","","","","key","j","16.666346938775767","640","356","j","true","img/C_ambi40.png","圆形","prac_simultaneous",""
"","","","","","html-keyboard-response","152","715765","0.0-11.0-0.0-1.21","null","<span style='color:GreenYellow; font-size: 70px;'>正确! </span>","null","","","","","","","","","","","","","","","","","","","","","","","feedback_test"
"","","","","","psychophysics","153","717551","0.0-11.0-0.0-0.22","785","","f","","","","","","","","","","","","","key","f","16.666377358490003","640","356","f","true","img/T_ambi40.png","方形","prac_simultaneous",""
"","","","","","html-keyboard-response","154","717860","0.0-11.0-0.0-1.22","null","<span style='color:GreenYellow; font-size: 70px;'>正确! </span>","null","","","","","","","","","","","","","","","","","","","","","","","feedback_test"
"","","","","","psychophysics","155","719671","0.0-11.0-0.0-0.23","810","","f","","","","","","","","","","","","","key","f","16.6680841121494","640","356","f","true","img/C_ambi40.png","三角","prac_simultaneous",""
"","","","","","html-keyboard-response","156","719977","0.0-11.0-0.0-1.23","null","<span style='color:GreenYellow; font-size: 70px;'>正确! </span>","null","","","","","","","","","","","","","","","","","","","","","","","feedback_test"
"","","","","","html-keyboard-response","157","726315","0.0-12.0","6337","<style>.context{color:white; font-size: 35px; line-height:40px}</style>                            <div><p class='context'>您正确回答了100% 的试次。</p><p class='context'>您的平均反应时为734毫秒。</p><p class='context'>恭喜您完成练习。按任意键进入正式实验。</p><p class='footer' style='font-size: 35px; line-height:40px;'>请在进入正式实验实验之前将您的<span style='color: lightgreen;'>食指</span>放在电脑键盘的相应键位上进行按键。</p>","arrowdown","","","","","","","","","","","","","","","","","","","","","","",""
"","","","","","html-keyboard-response","158","731278","0.0-13.0-2.0-0.0","4959","
    <p>请您将手指放在按键上，准备进入呈现顺序为<span style='color: yellow;'>图形和文字同时呈现条件</span>的正式匹配任务</p>
    <p> <div style = ""color: green""><按任意键进入下一阶段的匹配任务></div></p>
    ","arrowdown","","","","","","","","","","","","","","","","","","","","","","",""
"","","","","","psychophysics","159","732941","0.0-13.0-2.0-1.0-0.0-0.0","662","","j","","","","","","","","","","","","","key","j","16.6663131313128","640","356","j","true","img/C_ambi40.png","圆形","simultaneous",""
"","","","","","html-keyboard-response","160","733249","0.0-13.0-2.0-1.0-0.0-1.0","null","<span style='color:GreenYellow; font-size: 70px;'>正确! </span>","null","","","","","","","","","","","","","","","","","","","","","","","feedback_test"
"","","","","","psychophysics","161","734949","0.0-13.0-2.0-1.0-0.0-0.1","698","","f","","","","","","","","","","","","","key","f","16.66608910890997","640","356","f","true","img/C_ambi40.png","方形","simultaneous",""
"","","","","","html-keyboard-response","162","735252","0.0-13.0-2.0-1.0-0.0-1.1","null","<span style='color:GreenYellow; font-size: 70px;'>正确! </span>","null","","","","","","","","","","","","","","","","","","","","","","","feedback_test"
"","","","","","psychophysics","163","737087","0.0-13.0-2.0-1.0-0.0-0.2","834","","f","","","","","","","","","","","","","key","f","16.668055045871288","640","356","f","true","img/S_ambi40.png","三角","simultaneous",""
"","","","","","html-keyboard-response","164","737394","0.0-13.0-2.0-1.0-0.0-1.2","null","<span style='color:GreenYellow; font-size: 70px;'>正确! </span>","null","","","","","","","","","","","","","","","","","","","","","","","feedback_test"
"","","","","","psychophysics","165","738967","0.0-13.0-2.0-1.0-0.0-0.3","571","","j","","","","","","","","","","","","","key","j","16.663279569893074","640","356","j","true","img/T_ambi40.png","三角","simultaneous",""
"","","","","","html-keyboard-response","166","739279","0.0-13.0-2.0-1.0-0.0-1.3","null","<span style='color:GreenYellow; font-size: 70px;'>正确! </span>","null","","","","","","","","","","","","","","","","","","","","","","","feedback_test"
"","","","","","psychophysics","167","741137","0.0-13.0-2.0-1.0-0.0-0.4","857","","j","","","","","","","","","","","","","key","j","16.66778181818187","640","356","j","true","img/C_ambi40.png","圆形","simultaneous",""
"","","","","","html-keyboard-response","168","741438","0.0-13.0-2.0-1.0-0.0-1.4","null","<span style='color:GreenYellow; font-size: 70px;'>正确! </span>","null","","","","","","","","","","","","","","","","","","","","","","","feedback_test"
"","","","","","psychophysics","169","743125","0.0-13.0-2.0-1.0-0.0-0.5","685","","f","","","","","","","","","","","","","key","f","16.668108910891586","640","356","f","true","img/T_ambi40.png","方形","simultaneous",""
"","","","","","html-keyboard-response","170","743440","0.0-13.0-2.0-1.0-0.0-1.5","null","<span style='color:GreenYellow; font-size: 70px;'>正确! </span>","null","","","","","","","","","","","","","","","","","","","","","","","feedback_test"
"","","","","","psychophysics","171","745163","0.0-13.0-2.0-1.0-0.0-0.6","720","","j","","","","","","","","","","","","","key","j","16.666343137254373","640","356","j","true","img/T_ambi40.png","三角","simultaneous",""
"","","","","","html-keyboard-response","172","745471","0.0-13.0-2.0-1.0-0.0-1.6","null","<span style='color:GreenYellow; font-size: 70px;'>正确! </span>","null","","","","","","","","","","","","","","","","","","","","","","","feedback_test"
"","","","","","psychophysics","173","747388","0.0-13.0-2.0-1.0-0.0-0.7","914","","j","","","","","","","","","","","","","key","j","16.666377192981983","640","356","j","true","img/S_ambi40.png","方形","simultaneous",""
"","","","","","html-keyboard-response","174","747699","0.0-13.0-2.0-1.0-0.0-1.7","null","<span style='color:GreenYellow; font-size: 70px;'>正确! </span>","null","","","","","","","","","","","","","","","","","","","","","","","feedback_test"
"","","","","","psychophysics","175","749419","0.0-13.0-2.0-1.0-0.0-0.8","718","","f","","","","","","","","","","","","","key","f","16.667235294117262","640","356","f","true","img/T_ambi40.png","圆形","simultaneous",""
"","","","","","html-keyboard-response","176","749735","0.0-13.0-2.0-1.0-0.0-1.8","null","<span style='color:GreenYellow; font-size: 70px;'>正确! </span>","null","","","","","","","","","","","","","","","","","","","","","","","feedback_test"
"","","","","","psychophysics","177","751534","0.0-13.0-2.0-1.0-0.0-0.9","797","","f","","","","","","","","","","","","","key","f","16.66689719626175","640","356","f","true","img/S_ambi40.png","圆形","simultaneous",""
"","","","","","html-keyboard-response","178","751843","0.0-13.0-2.0-1.0-0.0-1.9","null","<span style='color:GreenYellow; font-size: 70px;'>正确! </span>","null","","","","","","","","","","","","","","","","","","","","","","","feedback_test"
"","","","","","psychophysics","179","753658","0.0-13.0-2.0-1.0-0.0-0.10","813","","j","","","","","","","","","","","","","key","j","16.6692129629621","640","356","j","true","img/S_ambi40.png","方形","simultaneous",""
"","","","","","html-keyboard-response","180","753968","0.0-13.0-2.0-1.0-0.0-1.10","null","<span style='color:GreenYellow; font-size: 70px;'>正确! </span>","null","","","","","","","","","","","","","","","","","","","","","","","feedback_test"
"","","","","","psychophysics","181","755839","0.0-13.0-2.0-1.0-0.0-0.11","869","","f","","","","","","","","","","","","","key","f","16.66615315315393","640","356","f","true","img/C_ambi40.png","三角","simultaneous",""
"","","","","","html-keyboard-response","182","756151","0.0-13.0-2.0-1.0-0.0-1.11","null","<span style='color:GreenYellow; font-size: 70px;'>正确! </span>","null","","","","","","","","","","","","","","","","","","","","","","","feedback_test"
"","","","","","psychophysics","183","758004","0.0-13.0-2.0-1.0-0.0-0.12","851","","j","","","","","","","","","","","","","key","j","16.66611818181753","640","356","j","true","img/C_ambi40.png","圆形","simultaneous",""
"","","","","","html-keyboard-response","184","758313","0.0-13.0-2.0-1.0-0.0-1.12","null","<span style='color:GreenYellow; font-size: 70px;'>正确! </span>","null","","","","","","","","","","","","","","","","","","","","","","","feedback_test"
"","","","","","psychophysics","185","759991","0.0-13.0-2.0-1.0-0.0-0.13","678","","j","","","","","","","","","","","","","key","j","16.6648199999996","640","356","j","true","img/T_ambi40.png","三角","simultaneous",""
"","","","","","html-keyboard-response","186","760294","0.0-13.0-2.0-1.0-0.0-1.13","null","<span style='color:GreenYellow; font-size: 70px;'>正确! </span>","null","","","","","","","","","","","","","","","","","","","","","","","feedback_test"
"","","","","","psychophysics","187","762165","0.0-13.0-2.0-1.0-0.0-0.14","870","","j","","","","","","","","","","","","","key","j","16.666288288288147","640","356","j","true","img/S_ambi40.png","方形","simultaneous",""
"","","","","","html-keyboard-response","188","762471","0.0-13.0-2.0-1.0-0.0-1.14","null","<span style='color:GreenYellow; font-size: 70px;'>正确! </span>","null","","","","","","","","","","","","","","","","","","","","","","","feedback_test"
"","","","","","psychophysics","189","764207","0.0-13.0-2.0-1.0-0.0-0.15","734","","f","","","","","","","","","","","","","key","f","16.667923076923426","640","356","f","true","img/C_ambi40.png","三角","simultaneous",""
"","","","","","html-keyboard-response","190","764513","0.0-13.0-2.0-1.0-0.0-1.15","null","<span style='color:GreenYellow; font-size: 70px;'>正确! </span>","null","","","","","","","","","","","","","","","","","","","","","","","feedback_test"
"","","","","","psychophysics","191","766282","0.0-13.0-2.0-1.0-0.0-0.16","768","","f","","","","","","","","","","","","","key","f","16.66633333333302","640","356","f","true","img/T_ambi40.png","圆形","simultaneous",""
"","","","","","html-keyboard-response","192","766591","0.0-13.0-2.0-1.0-0.0-1.16","null","<span style='color:GreenYellow; font-size: 70px;'>正确! </span>","null","","","","","","","","","","","","","","","","","","","","","","","feedback_test"
"","","","","","psychophysics","193","768488","0.0-13.0-2.0-1.0-0.0-0.17","895","","f","","","","","","","","","","","","","key","f","16.666919642857724","640","356","f","true","img/S_ambi40.png","圆形","simultaneous",""
"","","","","","html-keyboard-response","194","768802","0.0-13.0-2.0-1.0-0.0-1.17","null","<span style='color:GreenYellow; font-size: 70px;'>正确! </span>","null","","","","","","","","","","","","","","","","","","","","","","","feedback_test"
"","","","","","psychophysics","195","770507","0.0-13.0-2.0-1.0-0.0-0.18","701","","f","","","","","","","","","","","","","key","f","16.66641176470633","640","356","f","true","img/S_ambi40.png","三角","simultaneous",""
"","","","","","html-keyboard-response","196","770809","0.0-13.0-2.0-1.0-0.0-1.18","null","<span style='color:GreenYellow; font-size: 70px;'>正确! </span>","null","","","","","","","","","","","","","","","","","","","","","","","feedback_test"
"","","","","","psychophysics","197","772409","0.0-13.0-2.0-1.0-0.0-0.19","598","","j","","","","","","","","","","","","","key","j","16.6662421052626","640","356","j","true","img/T_ambi40.png","三角","simultaneous",""
"","","","","","html-keyboard-response","198","772717","0.0-13.0-2.0-1.0-0.0-1.19","null","<span style='color:GreenYellow; font-size: 70px;'>正确! </span>","null","","","","","","","","","","","","","","","","","","","","","","","feedback_test"
"","","","","","psychophysics","199","774417","0.0-13.0-2.0-1.0-0.0-0.20","698","","f","","","","","","","","","","","","","key","f","16.66845544554422","640","356","f","true","img/T_ambi40.png","方形","simultaneous",""
"","","","","","html-keyboard-response","200","774719","0.0-13.0-2.0-1.0-0.0-1.20","null","<span style='color:GreenYellow; font-size: 70px;'>正确! </span>","null","","","","","","","","","","","","","","","","","","","","","","","feedback_test"
"","","","","","psychophysics","201","776342","0.0-13.0-2.0-1.0-0.0-0.21","622","","j","","","","","","","","","","","","","key","j","16.66678350515419","640","356","j","true","img/S_ambi40.png","方形","simultaneous",""
"","","","","","html-keyboard-response","202","776657","0.0-13.0-2.0-1.0-0.0-1.21","null","<span style='color:GreenYellow; font-size: 70px;'>正确! </span>","null","","","","","","","","","","","","","","","","","","","","","","","feedback_test"
"","","","","","psychophysics","203","778952","0.0-13.0-2.0-1.0-0.0-0.22","1294","","f","","","","","","","","","","","","","key","f","16.66629411764734","640","356","f","true","img/C_ambi40.png","方形","simultaneous",""
"","","","","","html-keyboard-response","204","779256","0.0-13.0-2.0-1.0-0.0-1.22","null","<span style='color:GreenYellow; font-size: 70px;'>正确! </span>","null","","","","","","","","","","","","","","","","","","","","","","","feedback_test"
"","","","","","psychophysics","205","780864","0.0-13.0-2.0-1.0-0.0-0.23","607","","j","","","","","","","","","","","","","key","j","16.66762105263157","640","356","j","true","img/C_ambi40.png","圆形","simultaneous",""
"","","","","","html-keyboard-response","206","781178","0.0-13.0-2.0-1.0-0.0-1.23","null","<span style='color:GreenYellow; font-size: 70px;'>正确! </span>","null","","","","","","","","","","","","","","","","","","","","","","","feedback_test"
"","","","","","psychophysics","207","782877","0.0-13.0-2.0-1.0-0.0-0.24","697","","f","","","","","","","","","","","","","key","f","16.665584158416294","640","356","f","true","img/C_ambi40.png","三角","simultaneous",""
"","","","","","html-keyboard-response","208","783181","0.0-13.0-2.0-1.0-0.0-1.24","null","<span style='color:GreenYellow; font-size: 70px;'>正确! </span>","null","","","","","","","","","","","","","","","","","","","","","","","feedback_test"
"","","","","","psychophysics","209","784921","0.0-13.0-2.0-1.0-0.0-0.25","738","","j","","","","","","","","","","","","","key","j","16.665038834950995","640","356","j","true","img/C_ambi40.png","圆形","simultaneous",""
"","","","","","html-keyboard-response","210","785224","0.0-13.0-2.0-1.0-0.0-1.25","null","<span style='color:GreenYellow; font-size: 70px;'>正确! </span>","null","","","","","","","","","","","","","","","","","","","","","","","feedback_test"
"","","","","","psychophysics","211","786891","0.0-13.0-2.0-1.0-0.0-0.26","666","","j","","","","","","","","","","","","","key","j","16.666000000000086","640","356","j","true","img/S_ambi40.png","方形","simultaneous",""
"","","","","","html-keyboard-response","212","787197","0.0-13.0-2.0-1.0-0.0-1.26","null","<span style='color:GreenYellow; font-size: 70px;'>正确! </span>","null","","","","","","","","","","","","","","","","","","","","","","","feedback_test"
"","","","","","psychophysics","213","789012","0.0-13.0-2.0-1.0-0.0-0.27","814","","f","","","","","","","","","","","","","key","f","16.6654351851849","640","356","f","true","img/S_ambi40.png","三角","simultaneous",""
"","","","","","html-keyboard-response","214","789328","0.0-13.0-2.0-1.0-0.0-1.27","null","<span style='color:GreenYellow; font-size: 70px;'>正确! </span>","null","","","","","","","","","","","","","","","","","","","","","","","feedback_test"
"","","","","","psychophysics","215","791000","0.0-13.0-2.0-1.0-0.0-0.28","671","","j","","","","","","","","","","","","","key","j","16.66651515151501","640","356","j","true","img/C_ambi40.png","圆形","simultaneous",""
"","","","","","html-keyboard-response","216","791310","0.0-13.0-2.0-1.0-0.0-1.28","null","<span style='color:GreenYellow; font-size: 70px;'>正确! </span>","null","","","","","","","","","","","","","","","","","","","","","","","feedback_test"
"","","","","","psychophysics","217","792999","0.0-13.0-2.0-1.0-0.0-0.29","688","","j","","","","","","","","","","","","","key","j","16.666609999999636","640","356","j","true","img/T_ambi40.png","三角","simultaneous",""
"","","","","","html-keyboard-response","218","793303","0.0-13.0-2.0-1.0-0.0-1.29","null","<span style='color:GreenYellow; font-size: 70px;'>正确! </span>","null","","","","","","","","","","","","","","","","","","","","","","","feedback_test"
"","","","","","psychophysics","219","795314","0.0-13.0-2.0-1.0-0.0-0.30","1009","","f","","","","","","","","","","","","","key","f","16.66872499999978","640","356","f","true","img/T_ambi40.png","方形","simultaneous",""
"","","","","","html-keyboard-response","220","795623","0.0-13.0-2.0-1.0-0.0-1.30","null","<span style='color:GreenYellow; font-size: 70px;'>正确! </span>","null","","","","","","","","","","","","","","","","","","","","","","","feedback_test"
"","","","","","psychophysics","221","797517","0.0-13.0-2.0-1.0-0.0-0.31","892","","f","","","","","","","","","","","","","key","f","16.666642857142765","640","356","f","true","img/T_ambi40.png","圆形","simultaneous",""
"","","","","","html-keyboard-response","222","797827","0.0-13.0-2.0-1.0-0.0-1.31","null","<span style='color:GreenYellow; font-size: 70px;'>正确! </span>","null","","","","","","","","","","","","","","","","","","","","","","","feedback_test"
"","","","","","psychophysics","223","799827","0.0-13.0-2.0-1.0-0.0-0.32","999","","f","","","","","","","","","","","","","key","f","16.666226890756935","640","356","f","true","img/S_ambi40.png","圆形","simultaneous",""
"","","","","","html-keyboard-response","224","800139","0.0-13.0-2.0-1.0-0.0-1.32","null","<span style='color:GreenYellow; font-size: 70px;'>正确! </span>","null","","","","","","","","","","","","","","","","","","","","","","","feedback_test"
"","","","","","psychophysics","225","801784","0.0-13.0-2.0-1.0-0.0-0.33","644","","j","","","","","","","","","","","","","key","j","16.666195876289102","640","356","j","true","img/T_ambi40.png","三角","simultaneous",""
"","","","","","html-keyboard-response","226","802096","0.0-13.0-2.0-1.0-0.0-1.33","null","<span style='color:GreenYellow; font-size: 70px;'>正确! </span>","null","","","","","","","","","","","","","","","","","","","","","","","feedback_test"
"","","","","","psychophysics","227","803890","0.0-13.0-2.0-1.0-0.0-0.34","792","","j","","","","","","","","","","","","","key","j","16.66662616822455","640","356","j","true","img/S_ambi40.png","方形","simultaneous",""
"","","","","","html-keyboard-response","228","804199","0.0-13.0-2.0-1.0-0.0-1.34","null","<span style='color:GreenYellow; font-size: 70px;'>正确! </span>","null","","","","","","","","","","","","","","","","","","","","","","","feedback_test"
"","","","","","psychophysics","229","805998","0.0-13.0-2.0-1.0-0.0-0.35","798","","f","","","","","","","","","","","","","key","f","16.66506542056085","640","356","f","true","img/C_ambi40.png","方形","simultaneous",""
"","","","","","html-keyboard-response","230","806309","0.0-13.0-2.0-1.0-0.0-1.35","null","<span style='color:GreenYellow; font-size: 70px;'>正确! </span>","null","","","","","","","","","","","","","","","","","","","","","","","feedback_test"
"","","","","","psychophysics","231","808464","0.0-13.0-2.0-1.0-0.0-0.36","1153","","f","","","","","","","","","","","","","key","f","16.667765625000357","640","356","f","true","img/T_ambi40.png","圆形","simultaneous",""
"","","","","","html-keyboard-response","232","808767","0.0-13.0-2.0-1.0-0.0-1.36","null","<span style='color:GreenYellow; font-size: 70px;'>正确! </span>","null","","","","","","","","","","","","","","","","","","","","","","","feedback_test"
"","","","","","psychophysics","233","810408","0.0-13.0-2.0-1.0-0.0-0.37","640","","j","","","","","","","","","","","","","key","j","16.66638775510186","640","356","j","true","img/C_ambi40.png","圆形","simultaneous",""
"","","","","","html-keyboard-response","234","810716","0.0-13.0-2.0-1.0-0.0-1.37","null","<span style='color:GreenYellow; font-size: 70px;'>正确! </span>","null","","","","","","","","","","","","","","","","","","","","","","","feedback_test"
"","","","","","psychophysics","235","812381","0.0-13.0-2.0-1.0-0.0-0.38","664","","f","","","","","","","","","","","","","key","f","16.66590909090956","640","356","f","true","img/S_ambi40.png","三角","simultaneous",""
"","","","","","html-keyboard-response","236","812692","0.0-13.0-2.0-1.0-0.0-1.38","null","<span style='color:GreenYellow; font-size: 70px;'>正确! </span>","null","","","","","","","","","","","","","","","","","","","","","","","feedback_test"
"","","","","","psychophysics","237","814567","0.0-13.0-2.0-1.0-0.0-0.39","873","","f","","","","","","","","","","","","","key","f","16.66630630630702","640","356","f","true","img/C_ambi40.png","三角","simultaneous",""
"","","","","","html-keyboard-response","238","814880","0.0-13.0-2.0-1.0-0.0-1.39","null","<span style='color:GreenYellow; font-size: 70px;'>正确! </span>","null","","","","","","","","","","","","","","","","","","","","","","","feedback_test"
"","","","","","psychophysics","239","816648","0.0-13.0-2.0-1.0-0.0-0.40","766","","f","","","","","","","","","","","","","key","f","16.668028571428952","640","356","f","true","img/T_ambi40.png","方形","simultaneous",""
"","","","","","html-keyboard-response","240","816950","0.0-13.0-2.0-1.0-0.0-1.40","null","<span style='color:GreenYellow; font-size: 70px;'>正确! </span>","null","","","","","","","","","","","","","","","","","","","","","","","feedback_test"
"","","","","","psychophysics","241","818639","0.0-13.0-2.0-1.0-0.0-0.41","688","","j","","","","","","","","","","","","","key","j","16.665277227722477","640","356","j","true","img/S_ambi40.png","方形","simultaneous",""
"","","","","","html-keyboard-response","242","818942","0.0-13.0-2.0-1.0-0.0-1.41","null","<span style='color:GreenYellow; font-size: 70px;'>正确! </span>","null","","","","","","","","","","","","","","","","","","","","","","","feedback_test"
"","","","","","psychophysics","243","820510","0.0-13.0-2.0-1.0-0.0-0.42","567","","j","","","","","","","","","","","","","key","j","16.663290322580504","640","356","j","true","img/T_ambi40.png","三角","simultaneous",""
"","","","","","html-keyboard-response","244","820819","0.0-13.0-2.0-1.0-0.0-1.42","null","<span style='color:GreenYellow; font-size: 70px;'>正确! </span>","null","","","","","","","","","","","","","","","","","","","","","","","feedback_test"
"","","","","","psychophysics","245","822566","0.0-13.0-2.0-1.0-0.0-0.43","746","","f","","","","","","","","","","","","","key","f","16.665759615385188","640","356","f","true","img/S_ambi40.png","圆形","simultaneous",""
"","","","","","html-keyboard-response","246","822874","0.0-13.0-2.0-1.0-0.0-1.43","null","<span style='color:GreenYellow; font-size: 70px;'>正确! </span>","null","","","","","","","","","","","","","","","","","","","","","","","feedback_test"
"","","","","","psychophysics","247","824531","0.0-13.0-2.0-1.0-0.0-0.44","656","","j","","","","","","","","","","","","","key","j","16.667428571429124","640","356","j","true","img/S_ambi40.png","方形","simultaneous",""
"","","","","","html-keyboard-response","248","824832","0.0-13.0-2.0-1.0-0.0-1.44","null","<span style='color:GreenYellow; font-size: 70px;'>正确! </span>","null","","","","","","","","","","","","","","","","","","","","","","","feedback_test"
"","","","","","psychophysics","249","826727","0.0-13.0-2.0-1.0-0.0-0.45","893","","f","","","","","","","","","","","","","key","f","16.666911504425077","640","356","f","true","img/C_ambi40.png","方形","simultaneous",""
"","","","","","html-keyboard-response","250","827032","0.0-13.0-2.0-1.0-0.0-1.45","null","<span style='color:GreenYellow; font-size: 70px;'>正确! </span>","null","","","","","","","","","","","","","","","","","","","","","","","feedback_test"
"","","","","","psychophysics","251","828612","0.0-13.0-2.0-1.0-0.0-0.46","579","","j","","","","","","","","","","","","","key","j","16.665840425532302","640","356","j","true","img/C_ambi40.png","圆形","simultaneous",""
"","","","","","html-keyboard-response","252","828921","0.0-13.0-2.0-1.0-0.0-1.46","null","<span style='color:GreenYellow; font-size: 70px;'>正确! </span>","null","","","","","","","","","","","","","","","","","","","","","","","feedback_test"
"","","","","","psychophysics","253","830572","0.0-13.0-2.0-1.0-0.0-0.47","651","","j","","","","","","","","","","","","","key","j","16.53104081632669","640","356","j","true","img/T_ambi40.png","三角","simultaneous",""
"","","","","","html-keyboard-response","254","830875","0.0-13.0-2.0-1.0-0.0-1.47","null","<span style='color:GreenYellow; font-size: 70px;'>正确! </span>","null","","","","","","","","","","","","","","","","","","","","","","","feedback_test"
"","","","","","psychophysics","255","832458","0.0-13.0-2.0-1.0-0.0-0.48","581","","f","","","","","","","","","","","","","key","f","16.665585106382384","640","356","f","true","img/C_ambi40.png","三角","simultaneous",""
"","","","","","html-keyboard-response","256","832768","0.0-13.0-2.0-1.0-0.0-1.48","null","<span style='color:GreenYellow; font-size: 70px;'>正确! </span>","null","","","","","","","","","","","","","","","","","","","","","","","feedback_test"
"","","","","","psychophysics","257","834387","0.0-13.0-2.0-1.0-0.0-0.49","618","","j","","","","","","","","","","","","","key","j","16.669270833333332","640","356","j","true","img/S_ambi40.png","方形","simultaneous",""
"","","","","","html-keyboard-response","258","834700","0.0-13.0-2.0-1.0-0.0-1.49","null","<span style='color:GreenYellow; font-size: 70px;'>正确! </span>","null","","","","","","","","","","","","","","","","","","","","","","","feedback_test"
"","","","","","psychophysics","259","836341","0.0-13.0-2.0-1.0-0.0-0.50","639","","f","","","","","","","","","","","","","key","f","16.6680612244907","640","356","f","true","img/T_ambi40.png","圆形","simultaneous",""
"","","","","","html-keyboard-response","260","836642","0.0-13.0-2.0-1.0-0.0-1.50","null","<span style='color:GreenYellow; font-size: 70px;'>正确! </span>","null","","","","","","","","","","","","","","","","","","","","","","","feedback_test"
"","","","","","psychophysics","261","838349","0.0-13.0-2.0-1.0-0.0-0.51","705","","j","","","","","","","","","","","","","key","j","16.66641584158377","640","356","j","true","img/T_ambi40.png","三角","simultaneous",""
"","","","","","html-keyboard-response","262","838655","0.0-13.0-2.0-1.0-0.0-1.51","null","<span style='color:GreenYellow; font-size: 70px;'>正确! </span>","null","","","","","","","","","","","","","","","","","","","","","","","feedback_test"
"","","","","","psychophysics","263","840325","0.0-13.0-2.0-1.0-0.0-0.52","669","","j","","","","","","","","","","","","","key","j","16.666414141413906","640","356","j","true","img/T_ambi40.png","三角","simultaneous",""
"","","","","","html-keyboard-response","264","840635","0.0-13.0-2.0-1.0-0.0-1.52","null","<span style='color:GreenYellow; font-size: 70px;'>正确! </span>","null","","","","","","","","","","","","","","","","","","","","","","","feedback_test"
"","","","","","psychophysics","265","842210","0.0-13.0-2.0-1.0-0.0-0.53","574","","f","","","","","","","","","","","","","key","f","16.66652127659627","640","356","f","true","img/S_ambi40.png","圆形","simultaneous",""
"","","","","","html-keyboard-response","266","842513","0.0-13.0-2.0-1.0-0.0-1.53","null","<span style='color:GreenYellow; font-size: 70px;'>正确! </span>","null","","","","","","","","","","","","","","","","","","","","","","","feedback_test"
"","","","","","psychophysics","267","844109","0.0-13.0-2.0-1.0-0.0-0.54","594","","j","","","","","","","","","","","","","key","j","16.6659473684212","640","356","j","true","img/S_ambi40.png","方形","simultaneous",""
"","","","","","html-keyboard-response","268","844415","0.0-13.0-2.0-1.0-0.0-1.54","null","<span style='color:GreenYellow; font-size: 70px;'>正确! </span>","null","","","","","","","","","","","","","","","","","","","","","","","feedback_test"
"","","","","","psychophysics","269","846045","0.0-13.0-2.0-1.0-0.0-0.55","630","","j","","","","","","","","","","","","","key","j","16.669896907217503","640","356","j","true","img/C_ambi40.png","圆形","simultaneous",""
"","","","","","html-keyboard-response","270","846353","0.0-13.0-2.0-1.0-0.0-1.55","null","<span style='color:GreenYellow; font-size: 70px;'>正确! </span>","null","","","","","","","","","","","","","","","","","","","","","","","feedback_test"
"","","","","","psychophysics","271","847945","0.0-13.0-2.0-1.0-0.0-0.56","590","","j","","","","","","","","","","","","","key","j","16.5322872340429","640","356","j","true","img/C_ambi40.png","圆形","simultaneous",""
"","","","","","html-keyboard-response","272","848258","0.0-13.0-2.0-1.0-0.0-1.56","null","<span style='color:GreenYellow; font-size: 70px;'>正确! </span>","null","","","","","","","","","","","","","","","","","","","","","","","feedback_test"
"","","","","","psychophysics","273","849952","0.0-13.0-2.0-1.0-0.0-0.57","693","","f","","","","","","","","","","","","","key","f","16.664259999999775","640","356","f","true","img/T_ambi40.png","方形","simultaneous",""
"","","","","","html-keyboard-response","274","850256","0.0-13.0-2.0-1.0-0.0-1.57","null","<span style='color:GreenYellow; font-size: 70px;'>正确! </span>","null","","","","","","","","","","","","","","","","","","","","","","","feedback_test"
"","","","","","psychophysics","275","852228","0.0-13.0-2.0-1.0-0.0-0.58","971","","f","","","","","","","","","","","","","key","f","16.66598290598227","640","356","f","true","img/C_ambi40.png","方形","simultaneous",""
"","","","","","html-keyboard-response","276","852542","0.0-13.0-2.0-1.0-0.0-1.58","null","<span style='color:GreenYellow; font-size: 70px;'>正确! </span>","null","","","","","","","","","","","","","","","","","","","","","","","feedback_test"
"","","","","","psychophysics","277","854341","0.0-13.0-2.0-1.0-0.0-0.59","797","","f","","","","","","","","","","","","","key","f","16.665878504672452","640","356","f","true","img/S_ambi40.png","三角","simultaneous",""
"","","","","","html-keyboard-response","278","854647","0.0-13.0-2.0-1.0-0.0-1.59","null","<span style='color:GreenYellow; font-size: 70px;'>正确! </span>","null","","","","","","","","","","","","","","","","","","","","","","","feedback_test"
"","","","","","html-keyboard-response","279","857147","0.0-13.0-2.0-1.0-1.0","2499","<style>.context{color:white; font-size: 35px; line-height:40px}</style>                            <div><p class='context'>您正确回答了100% 的试次。</p><p class='context'>您的平均反应时为747毫秒。</p><p class='context'>请按任意键进入休息</p></div>","arrowdown","","","","","","","","","","","","","","","","","","","","","","",""
"","","","","","html-button-response","280","922859","0.0-13.0-2.0-1.0-2.0","65710","
                    <p>您当前还剩余3组实验</p>
                    <p>现在是休息时间，当您结束休息后，您可以点击 结束休息 按钮 继续</p>
                    <p>建议休息时间还剩余<span id=""iii"">60</span>秒</p>","0","","","","","","","","","","","","","","","","","","","","","","",""
"","","","","","psychophysics","281","925057","0.0-13.0-2.0-1.0-0.1-0.60","1195","","j","","","","","","","","","","","","","key","j","16.6688091603058","640","356","j","true","img/C_ambi40.png","圆形","simultaneous",""
"","","","","","html-keyboard-response","282","925372","0.0-13.0-2.0-1.0-0.1-1.60","null","<span style='color:GreenYellow; font-size: 70px;'>正确! </span>","null","","","","","","","","","","","","","","","","","","","","","","","feedback_test"
"","","","","","psychophysics","283","927085","0.0-13.0-2.0-1.0-0.1-0.61","712","","j","","","","","","","","","","","","","key","j","16.665891089108957","640","356","j","true","img/C_ambi40.png","圆形","simultaneous",""
"","","","","","html-keyboard-response","284","927388","0.0-13.0-2.0-1.0-0.1-1.61","null","<span style='color:GreenYellow; font-size: 70px;'>正确! </span>","null","","","","","","","","","","","","","","","","","","","","","","","feedback_test"
"","","","","","psychophysics","285","929175","0.0-13.0-2.0-1.0-0.1-0.62","785","","f","","","","","","","","","","","","","key","f","16.666160377358604","640","356","f","true","img/T_ambi40.png","方形","simultaneous",""
"","","","","","html-keyboard-response","286","929478","0.0-13.0-2.0-1.0-0.1-1.62","null","<span style='color:GreenYellow; font-size: 70px;'>正确! </span>","null","","","","","","","","","","","","","","","","","","","","","","","feedback_test"
"","","","","","psychophysics","287","931371","0.0-13.0-2.0-1.0-0.1-0.63","891","","f","","","","","","","","","","","","","key","f","16.66427433628288","640","356","f","true","img/T_ambi40.png","圆形","simultaneous",""
"","","","","","html-keyboard-response","288","931687","0.0-13.0-2.0-1.0-0.1-1.63","null","<span style='color:GreenYellow; font-size: 70px;'>正确! </span>","null","","","","","","","","","","","","","","","","","","","","","","","feedback_test"
"","","","","","psychophysics","289","933425","0.0-13.0-2.0-1.0-0.1-0.64","735","","f","","","","","","","","","","","","","key","f","16.663611650485002","640","356","f","true","img/S_ambi40.png","圆形","simultaneous",""
"","","","","","html-keyboard-response","290","933741","0.0-13.0-2.0-1.0-0.1-1.64","null","<span style='color:GreenYellow; font-size: 70px;'>正确! </span>","null","","","","","","","","","","","","","","","","","","","","","","","feedback_test"
"","","","","","psychophysics","291","935454","0.0-13.0-2.0-1.0-0.1-0.65","712","","f","","","","","","","","","","","","","key","f","16.66505882352837","640","356","f","true","img/S_ambi40.png","三角","simultaneous",""
"","","","","","html-keyboard-response","292","935757","0.0-13.0-2.0-1.0-0.1-1.65","null","<span style='color:GreenYellow; font-size: 70px;'>正确! </span>","null","","","","","","","","","","","","","","","","","","","","","","","feedback_test"
"","","","","","psychophysics","293","937367","0.0-13.0-2.0-1.0-0.1-0.66","609","","j","","","","","","","","","","","","","key","j","16.663294736842477","640","356","j","true","img/T_ambi40.png","三角","simultaneous",""
"","","","","","html-keyboard-response","294","937676","0.0-13.0-2.0-1.0-0.1-1.66","null","<span style='color:GreenYellow; font-size: 70px;'>正确! </span>","null","","","","","","","","","","","","","","","","","","","","","","","feedback_test"
"","","","","","psychophysics","295","939434","0.0-13.0-2.0-1.0-0.1-0.67","757","","f","","","","","","","","","","","","","key","f","16.665365384616262","640","356","f","true","img/C_ambi40.png","三角","simultaneous",""
"","","","","","html-keyboard-response","296","939739","0.0-13.0-2.0-1.0-0.1-1.67","null","<span style='color:GreenYellow; font-size: 70px;'>正确! </span>","null","","","","","","","","","","","","","","","","","","","","","","","feedback_test"
"","","","","","psychophysics","297","941351","0.0-13.0-2.0-1.0-0.1-0.68","611","","j","","","","","","","","","","","","","key","j","16.66883157894726","640","356","j","true","img/S_ambi40.png","方形","simultaneous",""
"","","","","","html-keyboard-response","298","941665","0.0-13.0-2.0-1.0-0.1-1.68","null","<span style='color:GreenYellow; font-size: 70px;'>正确! </span>","null","","","","","","","","","","","","","","","","","","","","","","","feedback_test"
"","","","","","psychophysics","299","943275","0.0-13.0-2.0-1.0-0.1-0.69","609","","f","","","","","","","","","","","","","key","f","16.668270833334343","640","356","f","true","img/C_ambi40.png","方形","simultaneous",""
"","","","","","html-keyboard-response","300","943581","0.0-13.0-2.0-1.0-0.1-1.69","null","<span style='color:GreenYellow; font-size: 70px;'>正确! </span>","null","","","","","","","","","","","","","","","","","","","","","","","feedback_test"
"","","","","","psychophysics","301","945154","0.0-13.0-2.0-1.0-0.1-0.70","572","","j","","","","","","","","","","","","","key","j","16.666531914893408","640","356","j","true","img/T_ambi40.png","三角","simultaneous",""
"","","","","","html-keyboard-response","302","945465","0.0-13.0-2.0-1.0-0.1-1.70","null","<span style='color:GreenYellow; font-size: 70px;'>正确! </span>","null","","","","","","","","","","","","","","","","","","","","","","","feedback_test"
"","","","","","psychophysics","303","947169","0.0-13.0-2.0-1.0-0.1-0.71","703","","j","","","","","","","","","","","","","key","j","16.666372549019332","640","356","j","true","img/S_ambi40.png","方形","simultaneous",""
"","","","","","html-keyboard-response","304","947476","0.0-13.0-2.0-1.0-0.1-1.71","null","<span style='color:GreenYellow; font-size: 70px;'>正确! </span>","null","","","","","","","","","","","","","","","","","","","","","","","feedback_test"
"","","","","","psychophysics","305","949215","0.0-13.0-2.0-1.0-0.1-0.72","737","","f","","","","","","","","","","","","","key","f","16.666349514563866","640","356","f","true","img/C_ambi40.png","方形","simultaneous",""
"","","","","","html-keyboard-response","306","949528","0.0-13.0-2.0-1.0-0.1-1.72","null","<span style='color:GreenYellow; font-size: 70px;'>正确! </span>","null","","","","","","","","","","","","","","","","","","","","","","","feedback_test"
"","","","","","psychophysics","307","951242","0.0-13.0-2.0-1.0-0.1-0.73","713","","f","","","","","","","","","","","","","key","f","16.66602941176411","640","356","f","true","img/S_ambi40.png","圆形","simultaneous",""
"","","","","","html-keyboard-response","308","951544","0.0-13.0-2.0-1.0-0.1-1.73","null","<span style='color:GreenYellow; font-size: 70px;'>正确! </span>","null","","","","","","","","","","","","","","","","","","","","","","","feedback_test"
"","","","","","psychophysics","309","953193","0.0-13.0-2.0-1.0-0.1-0.74","648","","f","","","","","","","","","","","","","key","f","16.66622448979511","640","356","f","true","img/T_ambi40.png","圆形","simultaneous",""
"","","","","","html-keyboard-response","310","953499","0.0-13.0-2.0-1.0-0.1-1.74","null","<span style='color:GreenYellow; font-size: 70px;'>正确! </span>","null","","","","","","","","","","","","","","","","","","","","","","","feedback_test"
"","","","","","psychophysics","311","955131","0.0-13.0-2.0-1.0-0.1-0.75","631","","f","","","","","","","","","","","","","key","f","16.66631958762798","640","356","f","true","img/S_ambi40.png","三角","simultaneous",""
"","","","","","html-keyboard-response","312","955442","0.0-13.0-2.0-1.0-0.1-1.75","null","<span style='color:GreenYellow; font-size: 70px;'>正确! </span>","null","","","","","","","","","","","","","","","","","","","","","","","feedback_test"
"","","","","","psychophysics","313","957129","0.0-13.0-2.0-1.0-0.1-0.76","685","","j","","","","","","","","","","","","","key","j","16.663519999999554","640","356","j","true","img/C_ambi40.png","圆形","simultaneous",""
"","","","","","html-keyboard-response","314","957443","0.0-13.0-2.0-1.0-0.1-1.76","null","<span style='color:GreenYellow; font-size: 70px;'>正确! </span>","null","","","","","","","","","","","","","","","","","","","","","","","feedback_test"
"","","","","","psychophysics","315","959044","0.0-13.0-2.0-1.0-0.1-0.77","599","","j","","","","","","","","","","","","","key","j","16.668368421052584","640","356","j","true","img/S_ambi40.png","方形","simultaneous",""
"","","","","","html-keyboard-response","316","959351","0.0-13.0-2.0-1.0-0.1-1.77","null","<span style='color:GreenYellow; font-size: 70px;'>正确! </span>","null","","","","","","","","","","","","","","","","","","","","","","","feedback_test"
"","","","","","psychophysics","317","961048","0.0-13.0-2.0-1.0-0.1-0.78","697","","j","","","","","","","","","","","","","key","j","16.524649999999674","640","356","j","true","img/C_ambi40.png","圆形","simultaneous",""
"","","","","","html-keyboard-response","318","961358","0.0-13.0-2.0-1.0-0.1-1.78","null","<span style='color:GreenYellow; font-size: 70px;'>正确! </span>","null","","","","","","","","","","","","","","","","","","","","","","","feedback_test"
"","","","","","psychophysics","319","962911","0.0-13.0-2.0-1.0-0.1-0.79","553","","j","","","","","","","","","","","","","key","j","16.6643043478265","640","356","j","true","img/T_ambi40.png","三角","simultaneous",""
"","","","","","html-keyboard-response","320","963227","0.0-13.0-2.0-1.0-0.1-1.79","null","<span style='color:GreenYellow; font-size: 70px;'>正确! </span>","null","","","","","","","","","","","","","","","","","","","","","","","feedback_test"
"","","","","","psychophysics","321","964891","0.0-13.0-2.0-1.0-0.1-0.80","664","","f","","","","","","","","","","","","","key","f","16.663616161617085","640","356","f","true","img/C_ambi40.png","三角","simultaneous",""
"","","","","","html-keyboard-response","322","965197","0.0-13.0-2.0-1.0-0.1-1.80","null","<span style='color:GreenYellow; font-size: 70px;'>正确! </span>","null","","","","","","","","","","","","","","","","","","","","","","","feedback_test"
"","","","","","psychophysics","323","966883","0.0-13.0-2.0-1.0-0.1-0.81","685","","j","","","","","","","","","","","","","key","j","16.666400000000138","640","356","j","true","img/T_ambi40.png","三角","simultaneous",""
"","","","","","html-keyboard-response","324","967190","0.0-13.0-2.0-1.0-0.1-1.81","null","<span style='color:GreenYellow; font-size: 70px;'>正确! </span>","null","","","","","","","","","","","","","","","","","","","","","","","feedback_test"
"","","","","","psychophysics","325","969007","0.0-13.0-2.0-1.0-0.1-0.82","816","","j","","","","","","","","","","","","","key","j","16.663129629628706","640","356","j","true","img/S_ambi40.png","方形","simultaneous",""
"","","","","","html-keyboard-response","326","969317","0.0-13.0-2.0-1.0-0.1-1.82","null","<span style='color:GreenYellow; font-size: 70px;'>正确! </span>","null","","","","","","","","","","","","","","","","","","","","","","","feedback_test"
"","","","","","psychophysics","327","970976","0.0-13.0-2.0-1.0-0.1-0.83","657","","f","","","","","","","","","","","","","key","f","16.52087755102013","640","356","f","true","img/T_ambi40.png","方形","simultaneous",""
"","","","","","html-keyboard-response","328","971290","0.0-13.0-2.0-1.0-0.1-1.83","null","<span style='color:GreenYellow; font-size: 70px;'>正确! </span>","null","","","","","","","","","","","","","","","","","","","","","","","feedback_test"
"","","","","","psychophysics","329","972983","0.0-13.0-2.0-1.0-0.1-0.84","690","","j","","","","","","","","","","","","","key","j","16.667820000000066","640","356","j","true","img/S_ambi40.png","方形","simultaneous",""
"","","","","","html-keyboard-response","330","973295","0.0-13.0-2.0-1.0-0.1-1.84","null","<span style='color:GreenYellow; font-size: 70px;'>正确! </span>","null","","","","","","","","","","","","","","","","","","","","","","","feedback_test"
"","","","","","psychophysics","331","974918","0.0-13.0-2.0-1.0-0.1-0.85","622","","f","","","","","","","","","","","","","key","f","16.666864583333034","640","356","f","true","img/S_ambi40.png","三角","simultaneous",""
"","","","","","html-keyboard-response","332","975225","0.0-13.0-2.0-1.0-0.1-1.85","null","<span style='color:GreenYellow; font-size: 70px;'>正确! </span>","null","","","","","","","","","","","","","","","","","","","","","","","feedback_test"
"","","","","","psychophysics","333","976901","0.0-13.0-2.0-1.0-0.1-0.86","673","","f","","","","","","","","","","","","","key","f","16.663121212120966","640","356","f","true","img/T_ambi40.png","方形","simultaneous",""
"","","","","","html-keyboard-response","334","977214","0.0-13.0-2.0-1.0-0.1-1.86","null","<span style='color:GreenYellow; font-size: 70px;'>正确! </span>","null","","","","","","","","","","","","","","","","","","","","","","","feedback_test"
"","","","","","psychophysics","335","978884","0.0-13.0-2.0-1.0-0.1-0.87","669","","f","","","","","","","","","","","","","key","f","16.666292929292815","640","356","f","true","img/S_ambi40.png","圆形","simultaneous",""
"","","","","","html-keyboard-response","336","979192","0.0-13.0-2.0-1.0-0.1-1.87","null","<span style='color:GreenYellow; font-size: 70px;'>正确! </span>","null","","","","","","","","","","","","","","","","","","","","","","","feedback_test"
"","","","","","psychophysics","337","980757","0.0-13.0-2.0-1.0-0.1-0.88","564","","j","","","","","","","","","","","","","key","j","16.665645161290623","640","356","j","true","img/S_ambi40.png","方形","simultaneous",""
"","","","","","html-keyboard-response","338","981061","0.0-13.0-2.0-1.0-0.1-1.88","null","<span style='color:GreenYellow; font-size: 70px;'>正确! </span>","null","","","","","","","","","","","","","","","","","","","","","","","feedback_test"
"","","","","","psychophysics","339","982749","0.0-13.0-2.0-1.0-0.1-0.89","686","","j","","","","","","","","","","","","","key","j","16.665990000000455","640","356","j","true","img/C_ambi40.png","圆形","simultaneous",""
"","","","","","html-keyboard-response","340","983050","0.0-13.0-2.0-1.0-0.1-1.89","null","<span style='color:GreenYellow; font-size: 70px;'>正确! </span>","null","","","","","","","","","","","","","","","","","","","","","","","feedback_test"
"","","","","","psychophysics","341","984678","0.0-13.0-2.0-1.0-0.1-0.90","627","","f","","","","","","","","","","","","","key","f","16.667711340206598","640","356","f","true","img/C_ambi40.png","方形","simultaneous",""
"","","","","","html-keyboard-response","342","984988","0.0-13.0-2.0-1.0-0.1-1.90","null","<span style='color:GreenYellow; font-size: 70px;'>正确! </span>","null","","","","","","","","","","","","","","","","","","","","","","","feedback_test"
"","","","","","psychophysics","343","986587","0.0-13.0-2.0-1.0-0.1-0.91","597","","j","","","","","","","","","","","","","key","j","16.66377894736851","640","356","j","true","img/T_ambi40.png","三角","simultaneous",""
"","","","","","html-keyboard-response","344","986902","0.0-13.0-2.0-1.0-0.1-1.91","null","<span style='color:GreenYellow; font-size: 70px;'>正确! </span>","null","","","","","","","","","","","","","","","","","","","","","","","feedback_test"
"","","","","","psychophysics","345","988585","0.0-13.0-2.0-1.0-0.1-0.92","681","","f","","","","","","","","","","","","","key","f","16.666535353534996","640","356","f","true","img/T_ambi40.png","圆形","simultaneous",""
"","","","","","html-keyboard-response","346","988894","0.0-13.0-2.0-1.0-0.1-1.92","null","<span style='color:GreenYellow; font-size: 70px;'>正确! </span>","null","","","","","","","","","","","","","","","","","","","","","","","feedback_test"
"","","","","","psychophysics","347","990581","0.0-13.0-2.0-1.0-0.1-0.93","684","","f","","","","","","","","","","","","","key","f","16.665829999999843","640","356","f","true","img/C_ambi40.png","三角","simultaneous",""
"","","","","","html-keyboard-response","348","990885","0.0-13.0-2.0-1.0-0.1-1.93","null","<span style='color:GreenYellow; font-size: 70px;'>正确! </span>","null","","","","","","","","","","","","","","","","","","","","","","","feedback_test"
"","","","","","psychophysics","349","992484","0.0-13.0-2.0-1.0-0.1-0.94","599","","j","","","","","","","","","","","","","key","j","16.666617021275478","640","356","j","true","img/T_ambi40.png","三角","simultaneous",""
"","","","","","html-keyboard-response","350","992789","0.0-13.0-2.0-1.0-0.1-1.94","null","<span style='color:GreenYellow; font-size: 70px;'>正确! </span>","null","","","","","","","","","","","","","","","","","","","","","","","feedback_test"
"","","","","","psychophysics","351","994386","0.0-13.0-2.0-1.0-0.1-0.95","596","","j","","","","","","","","","","","","","key","j","16.67035789473693","640","356","j","true","img/C_ambi40.png","圆形","simultaneous",""
"","","","","","html-keyboard-response","352","994689","0.0-13.0-2.0-1.0-0.1-1.95","null","<span style='color:GreenYellow; font-size: 70px;'>正确! </span>","null","","","","","","","","","","","","","","","","","","","","","","","feedback_test"
"","","","","","psychophysics","353","996280","0.0-13.0-2.0-1.0-0.1-0.96","589","","f","","","","","","","","","","","","","key","f","16.664606382978704","640","356","f","true","img/C_ambi40.png","三角","simultaneous",""
"","","","","","html-keyboard-response","354","996585","0.0-13.0-2.0-1.0-0.1-1.96","null","<span style='color:GreenYellow; font-size: 70px;'>正确! </span>","null","","","","","","","","","","","","","","","","","","","","","","","feedback_test"
"","","","","","psychophysics","355","998175","0.0-13.0-2.0-1.0-0.1-0.97","589","","j","","","","","","","","","","","","","key","j","16.66646808510686","640","356","j","true","img/S_ambi40.png","方形","simultaneous",""
"","","","","","html-keyboard-response","356","998477","0.0-13.0-2.0-1.0-0.1-1.97","null","<span style='color:GreenYellow; font-size: 70px;'>正确! </span>","null","","","","","","","","","","","","","","","","","","","","","","","feedback_test"
"","","","","","psychophysics","357","1000060","0.0-13.0-2.0-1.0-0.1-0.98","581","","j","","","","","","","","","","","","","key","j","16.667914893616864","640","356","j","true","img/C_ambi40.png","圆形","simultaneous",""
"","","","","","html-keyboard-response","358","1000375","0.0-13.0-2.0-1.0-0.1-1.98","null","<span style='color:GreenYellow; font-size: 70px;'>正确! </span>","null","","","","","","","","","","","","","","","","","","","","","","","feedback_test"
"","","","","","psychophysics","359","1002034","0.0-13.0-2.0-1.0-0.1-0.99","657","","f","","","","","","","","","","","","","key","f","16.663469387755292","640","356","f","true","img/T_ambi40.png","圆形","simultaneous",""
"","","","","","html-keyboard-response","360","1002336","0.0-13.0-2.0-1.0-0.1-1.99","null","<span style='color:GreenYellow; font-size: 70px;'>正确! </span>","null","","","","","","","","","","","","","","","","","","","","","","","feedback_test"
"","","","","","psychophysics","361","1004302","0.0-13.0-2.0-1.0-0.1-0.100","964","","f","","","","","","","","","","","","","key","f","16.66630769230756","640","356","f","true","img/S_ambi40.png","圆形","simultaneous",""
"","","","","","html-keyboard-response","362","1004606","0.0-13.0-2.0-1.0-0.1-1.100","null","<span style='color:GreenYellow; font-size: 70px;'>正确! </span>","null","","","","","","","","","","","","","","","","","","","","","","","feedback_test"
"","","","","","psychophysics","363","1006468","0.0-13.0-2.0-1.0-0.1-0.101","861","","f","","","","","","","","","","","","","key","f","16.66609909909941","640","356","f","true","img/T_ambi40.png","方形","simultaneous",""
"","","","","","html-keyboard-response","364","1006774","0.0-13.0-2.0-1.0-0.1-1.101","null","<span style='color:GreenYellow; font-size: 70px;'>正确! </span>","null","","","","","","","","","","","","","","","","","","","","","","","feedback_test"
"","","","","","psychophysics","365","1008285","0.0-13.0-2.0-1.0-0.1-0.102","509","","j","","","","","","","","","","","","","key","j","16.66612222222223","640","356","j","true","img/C_ambi40.png","圆形","simultaneous",""
"","","","","","html-keyboard-response","366","1008587","0.0-13.0-2.0-1.0-0.1-1.102","null","<span style='color:GreenYellow; font-size: 70px;'>正确! </span>","null","","","","","","","","","","","","","","","","","","","","","","","feedback_test"
"","","","","","psychophysics","367","1010378","0.0-13.0-2.0-1.0-0.1-0.103","789","","f","","","","","","","","","","","","","key","f","16.66512264150968","640","356","f","true","img/S_ambi40.png","三角","simultaneous",""
"","","","","","html-keyboard-response","368","1010687","0.0-13.0-2.0-1.0-0.1-1.103","null","<span style='color:GreenYellow; font-size: 70px;'>正确! </span>","null","","","","","","","","","","","","","","","","","","","","","","","feedback_test"
"","","","","","psychophysics","369","1012587","0.0-13.0-2.0-1.0-0.1-0.104","898","","j","","","","","","","","","","","","","key","j","16.66658407079563","640","356","j","true","img/S_ambi40.png","方形","simultaneous",""
"","","","","","html-keyboard-response","370","1012896","0.0-13.0-2.0-1.0-0.1-1.104","null","<span style='color:GreenYellow; font-size: 70px;'>正确! </span>","null","","","","","","","","","","","","","","","","","","","","","","","feedback_test"
"","","","","","psychophysics","371","1014513","0.0-13.0-2.0-1.0-0.1-0.105","615","","f","","","","","","","","","","","","","key","f","16.668020833333383","640","356","f","true","img/C_ambi40.png","方形","simultaneous",""
"","","","","","html-keyboard-response","372","1014822","0.0-13.0-2.0-1.0-0.1-1.105","null","<span style='color:GreenYellow; font-size: 70px;'>正确! </span>","null","","","","","","","","","","","","","","","","","","","","","","","feedback_test"
"","","","","","psychophysics","373","1016443","0.0-13.0-2.0-1.0-0.1-0.106","619","","f","","","","","","","","","","","","","key","f","16.667281250000087","640","356","j","false","img/T_ambi40.png","三角","simultaneous",""
"","","","","","html-keyboard-response","374","1016751","0.0-13.0-2.0-1.0-0.1-1.106","null","<span style='color:red; font-size: 70px;'>错误! </span>","null","","","","","","","","","","","","","","","","","","","","","","","feedback_test"
"","","","","","psychophysics","375","1018410","0.0-13.0-2.0-1.0-0.1-0.107","659","","j","","","","","","","","","","","","","key","j","16.666459183674306","640","356","j","true","img/T_ambi40.png","三角","simultaneous",""
"","","","","","html-keyboard-response","376","1018716","0.0-13.0-2.0-1.0-0.1-1.107","null","<span style='color:GreenYellow; font-size: 70px;'>正确! </span>","null","","","","","","","","","","","","","","","","","","","","","","","feedback_test"
"","","","","","psychophysics","377","1020421","0.0-13.0-2.0-1.0-0.1-0.108","704","","f","","","","","","","","","","","","","key","f","16.66700980392189","640","356","f","true","img/C_ambi40.png","三角","simultaneous",""
"","","","","","html-keyboard-response","378","1020736","0.0-13.0-2.0-1.0-0.1-1.108","null","<span style='color:GreenYellow; font-size: 70px;'>正确! </span>","null","","","","","","","","","","","","","","","","","","","","","","","feedback_test"
"","","","","","psychophysics","379","1022402","0.0-13.0-2.0-1.0-0.1-0.109","663","","j","","","","","","","","","","","","","key","j","16.66944444444468","640","356","j","true","img/T_ambi40.png","三角","simultaneous",""
"","","","","","html-keyboard-response","380","1022706","0.0-13.0-2.0-1.0-0.1-1.109","null","<span style='color:GreenYellow; font-size: 70px;'>正确! </span>","null","","","","","","","","","","","","","","","","","","","","","","","feedback_test"
"","","","","","psychophysics","381","1024451","0.0-13.0-2.0-1.0-0.1-0.110","744","","f","","","","","","","","","","","","","key","f","16.666201923076116","640","356","f","true","img/T_ambi40.png","方形","simultaneous",""
"","","","","","html-keyboard-response","382","1024765","0.0-13.0-2.0-1.0-0.1-1.110","null","<span style='color:GreenYellow; font-size: 70px;'>正确! </span>","null","","","","","","","","","","","","","","","","","","","","","","","feedback_test"
"","","","","","psychophysics","383","1026319","0.0-13.0-2.0-1.0-0.1-0.111","553","","j","","","","","","","","","","","","","key","j","16.665978494623516","640","356","f","false","img/S_ambi40.png","圆形","simultaneous",""
"","","","","","html-keyboard-response","384","1026631","0.0-13.0-2.0-1.0-0.1-1.111","null","<span style='color:red; font-size: 70px;'>错误! </span>","null","","","","","","","","","","","","","","","","","","","","","","","feedback_test"
"","","","","","psychophysics","385","1028277","0.0-13.0-2.0-1.0-0.1-0.112","643","","j","","","","","","","","","","","","","key","j","16.670377551020856","640","356","j","true","img/C_ambi40.png","圆形","simultaneous",""
"","","","","","html-keyboard-response","386","1028578","0.0-13.0-2.0-1.0-0.1-1.112","null","<span style='color:GreenYellow; font-size: 70px;'>正确! </span>","null","","","","","","","","","","","","","","","","","","","","","","","feedback_test"
"","","","","","psychophysics","387","1030343","0.0-13.0-2.0-1.0-0.1-0.113","762","","f","","","","","","","","","","","","","key","f","16.666371428571818","640","356","f","true","img/S_ambi40.png","三角","simultaneous",""
"","","","","","html-keyboard-response","388","1030652","0.0-13.0-2.0-1.0-0.1-1.113","null","<span style='color:GreenYellow; font-size: 70px;'>正确! </span>","null","","","","","","","","","","","","","","","","","","","","","","","feedback_test"
"","","","","","psychophysics","389","1032344","0.0-13.0-2.0-1.0-0.1-0.114","691","","f","","","","","","","","","","","","","key","f","16.666630000000588","640","356","f","true","img/C_ambi40.png","方形","simultaneous",""
"","","","","","html-keyboard-response","390","1032660","0.0-13.0-2.0-1.0-0.1-1.114","null","<span style='color:GreenYellow; font-size: 70px;'>正确! </span>","null","","","","","","","","","","","","","","","","","","","","","","","feedback_test"
"","","","","","psychophysics","391","1034465","0.0-13.0-2.0-1.0-0.1-0.115","804","","j","","","","","","","","","","","","","key","j","16.669570093458763","640","356","j","true","img/S_ambi40.png","方形","simultaneous",""
"","","","","","html-keyboard-response","392","1034766","0.0-13.0-2.0-1.0-0.1-1.115","null","<span style='color:GreenYellow; font-size: 70px;'>正确! </span>","null","","","","","","","","","","","","","","","","","","","","","","","feedback_test"
"","","","","","psychophysics","393","1036592","0.0-13.0-2.0-1.0-0.1-0.116","824","","f","","","","","","","","","","","","","key","f","16.537972222222447","640","356","f","true","img/T_ambi40.png","圆形","simultaneous",""
"","","","","","html-keyboard-response","394","1036906","0.0-13.0-2.0-1.0-0.1-1.116","null","<span style='color:GreenYellow; font-size: 70px;'>正确! </span>","null","","","","","","","","","","","","","","","","","","","","","","","feedback_test"
"","","","","","psychophysics","395","1038556","0.0-13.0-2.0-1.0-0.1-0.117","648","","j","","","","","","","","","","","","","key","j","16.66331632653066","640","356","j","true","img/T_ambi40.png","三角","simultaneous",""
"","","","","","html-keyboard-response","396","1038860","0.0-13.0-2.0-1.0-0.1-1.117","null","<span style='color:GreenYellow; font-size: 70px;'>正确! </span>","null","","","","","","","","","","","","","","","","","","","","","","","feedback_test"
"","","","","","psychophysics","397","1040514","0.0-13.0-2.0-1.0-0.1-0.118","653","","j","","","","","","","","","","","","","key","j","16.665989795918293","640","356","j","true","img/C_ambi40.png","圆形","simultaneous",""
"","","","","","html-keyboard-response","398","1040826","0.0-13.0-2.0-1.0-0.1-1.118","null","<span style='color:GreenYellow; font-size: 70px;'>正确! </span>","null","","","","","","","","","","","","","","","","","","","","","","","feedback_test"
"","","","","","psychophysics","399","1042638","0.0-13.0-2.0-1.0-0.1-0.119","811","","j","","","","","","","","","","","","","key","j","16.663444444444462","640","356","j","true","img/S_ambi40.png","方形","simultaneous",""
"","","","","","html-keyboard-response","400","1042949","0.0-13.0-2.0-1.0-0.1-1.119","null","<span style='color:GreenYellow; font-size: 70px;'>正确! </span>","null","","","","","","","","","","","","","","","","","","","","","","","feedback_test"
"","","","","","html-keyboard-response","401","1045297","0.0-13.0-2.0-1.0-1.1","2346","<style>.context{color:white; font-size: 35px; line-height:40px}</style>                            <div><p class='context'>您正确回答了97% 的试次。</p><p class='context'>您的平均反应时为695毫秒。</p><p class='context'>请按任意键进入休息</p></div>","arrowdown","","","","","","","","","","","","","","","","","","","","","","",""
"","","","","","html-button-response","402","1106637","0.0-13.0-2.0-1.0-2.1","61337","
                    <p>您当前还剩余2组实验</p>
                    <p>现在是休息时间，当您结束休息后，您可以点击 结束休息 按钮 继续</p>
                    <p>建议休息时间还剩余<span id=""iii"">60</span>秒</p>","0","","","","","","","","","","","","","","","","","","","","","","",""
"","","","","","psychophysics","403","1108258","0.0-13.0-2.0-1.0-0.2-0.120","617","","j","","","","","","","","","","","","","key","j","16.666593750000175","640","356","j","true","img/S_ambi40.png","方形","simultaneous",""
"","","","","","html-keyboard-response","404","1108562","0.0-13.0-2.0-1.0-0.2-1.120","null","<span style='color:GreenYellow; font-size: 70px;'>正确! </span>","null","","","","","","","","","","","","","","","","","","","","","","","feedback_test"
"","","","","","psychophysics","405","1110133","0.0-13.0-2.0-1.0-0.2-0.121","570","","f","","","","","","","","","","","","","key","f","16.668968085105472","640","356","f","true","img/S_ambi40.png","圆形","simultaneous",""
"","","","","","html-keyboard-response","406","1110449","0.0-13.0-2.0-1.0-0.2-1.121","null","<span style='color:GreenYellow; font-size: 70px;'>正确! </span>","null","","","","","","","","","","","","","","","","","","","","","","","feedback_test"
"","","","","","psychophysics","407","1112091","0.0-13.0-2.0-1.0-0.2-0.122","642","","f","","","","","","","","","","","","","key","f","16.665938144328898","640","356","f","true","img/T_ambi40.png","圆形","simultaneous",""
"","","","","","html-keyboard-response","408","1112393","0.0-13.0-2.0-1.0-0.2-1.122","null","<span style='color:GreenYellow; font-size: 70px;'>正确! </span>","null","","","","","","","","","","","","","","","","","","","","","","","feedback_test"
"","","","","","psychophysics","409","1113993","0.0-13.0-2.0-1.0-0.2-0.123","599","","j","","","","","","","","","","","","","key","j","16.666736842106147","640","356","j","true","img/C_ambi40.png","圆形","simultaneous",""
"","","","","","html-keyboard-response","410","1114307","0.0-13.0-2.0-1.0-0.2-1.123","null","<span style='color:GreenYellow; font-size: 70px;'>正确! </span>","null","","","","","","","","","","","","","","","","","","","","","","","feedback_test"
"","","","","","psychophysics","411","1115893","0.0-13.0-2.0-1.0-0.2-0.124","584","","f","","","","","","","","","","","","","key","f","16.667031914892387","640","356","f","true","img/T_ambi40.png","方形","simultaneous",""
"","","","","","html-keyboard-response","412","1116209","0.0-13.0-2.0-1.0-0.2-1.124","null","<span style='color:GreenYellow; font-size: 70px;'>正确! </span>","null","","","","","","","","","","","","","","","","","","","","","","","feedback_test"
"","","","","","psychophysics","413","1117689","0.0-13.0-2.0-1.0-0.2-0.125","478","","j","","","","","","","","","","","","","key","j","16.666840909088602","640","356","j","true","img/C_ambi40.png","圆形","simultaneous",""
"","","","","","html-keyboard-response","414","1117999","0.0-13.0-2.0-1.0-0.2-1.125","null","<span style='color:GreenYellow; font-size: 70px;'>正确! </span>","null","","","","","","","","","","","","","","","","","","","","","","","feedback_test"
"","","","","","psychophysics","415","1119658","0.0-13.0-2.0-1.0-0.2-0.126","658","","f","","","","","","","","","","","","","key","f","16.666948979592178","640","356","f","true","img/C_ambi40.png","方形","simultaneous",""
"","","","","","html-keyboard-response","416","1119969","0.0-13.0-2.0-1.0-0.2-1.126","null","<span style='color:GreenYellow; font-size: 70px;'>正确! </span>","null","","","","","","","","","","","","","","","","","","","","","","","feedback_test"
"","","","","","psychophysics","417","1121516","0.0-13.0-2.0-1.0-0.2-0.127","545","","j","","","","","","","","","","","","","key","j","16.667021739129584","640","356","j","true","img/T_ambi40.png","三角","simultaneous",""
"","","","","","html-keyboard-response","418","1121825","0.0-13.0-2.0-1.0-0.2-1.127","null","<span style='color:GreenYellow; font-size: 70px;'>正确! </span>","null","","","","","","","","","","","","","","","","","","","","","","","feedback_test"
"","","","","","psychophysics","419","1123444","0.0-13.0-2.0-1.0-0.2-0.128","618","","j","","","","","","","","","","","","","key","j","16.66949999999876","640","356","j","true","img/S_ambi40.png","方形","simultaneous",""
"","","","","","html-keyboard-response","420","1123748","0.0-13.0-2.0-1.0-0.2-1.128","null","<span style='color:GreenYellow; font-size: 70px;'>正确! </span>","null","","","","","","","","","","","","","","","","","","","","","","","feedback_test"
"","","","","","psychophysics","421","1125356","0.0-13.0-2.0-1.0-0.2-0.129","607","","j","","","","","","","","","","","","","key","j","16.663242105264708","640","356","j","true","img/T_ambi40.png","三角","simultaneous",""
"","","","","","html-keyboard-response","422","1125661","0.0-13.0-2.0-1.0-0.2-1.129","null","<span style='color:GreenYellow; font-size: 70px;'>正确! </span>","null","","","","","","","","","","","","","","","","","","","","","","","feedback_test"
"","","","","","psychophysics","423","1127316","0.0-13.0-2.0-1.0-0.2-0.130","652","","f","","","","","","","","","","","","","key","f","16.66685858585947","640","356","f","true","img/C_ambi40.png","三角","simultaneous",""
"","","","","","html-keyboard-response","424","1127629","0.0-13.0-2.0-1.0-0.2-1.130","null","<span style='color:GreenYellow; font-size: 70px;'>正确! </span>","null","","","","","","","","","","","","","","","","","","","","","","","feedback_test"
"","","","","","psychophysics","425","1129406","0.0-13.0-2.0-1.0-0.2-0.131","776","","f","","","","","","","","","","","","","key","f","16.667018867923684","640","356","f","true","img/S_ambi40.png","三角","simultaneous",""
"","","","","","html-keyboard-response","426","1129720","0.0-13.0-2.0-1.0-0.2-1.131","null","<span style='color:GreenYellow; font-size: 70px;'>正确! </span>","null","","","","","","","","","","","","","","","","","","","","","","","feedback_test"
"","","","","","psychophysics","427","1131279","0.0-13.0-2.0-1.0-0.2-0.132","557","","j","","","","","","","","","","","","","key","j","16.66998913043442","640","356","j","true","img/S_ambi40.png","方形","simultaneous",""
"","","","","","html-keyboard-response","428","1131590","0.0-13.0-2.0-1.0-0.2-1.132","null","<span style='color:GreenYellow; font-size: 70px;'>正确! </span>","null","","","","","","","","","","","","","","","","","","","","","","","feedback_test"
"","","","","","psychophysics","429","1133294","0.0-13.0-2.0-1.0-0.2-0.133","702","","f","","","","","","","","","","","","","key","f","16.666108910891108","640","356","f","true","img/S_ambi40.png","三角","simultaneous",""
"","","","","","html-keyboard-response","430","1133601","0.0-13.0-2.0-1.0-0.2-1.133","null","<span style='color:GreenYellow; font-size: 70px;'>正确! </span>","null","","","","","","","","","","","","","","","","","","","","","","","feedback_test"
