"success","timeout","failed_images","failed_audio","failed_video","trial_type","trial_index","time_elapsed","internal_node_id","rt","stimulus","response","value","item_width_mm","item_height_mm","item_width_px","px2mm","view_dist_mm","item_width_deg","px2deg","scale_factor","win_width_deg","win_height_deg","view_history","response_type","key_press","avg_frame_time","center_x","center_y","correct_response","correct","Image","word","condition","screen_id"
"true","false","[]","[]","[]","preload","0","14","0.0-0.0","","","","","","","","","","","","","","","","","","","","","","","","","",""
"","","","","","html-keyboard-response","1","162268","0.0-1.0","162252","
   <p>您好，欢迎参加本次实验。</p>
   <p>为充分保障您的权利，请确保您已经知晓并同意《参与实验同意书》以及《数据公开知情同意书》。</p>
   <p>如果您未见过上述内容，请咨询实验员。</p>
   <p>如果您选择继续实验，则表示您已经清楚两份知情同意书的内容并同意。</p>
   <p> <div style = ""color: green""><按任意键至下页></div> </p>
   ","s","","","","","","","","","","","","","","","","","","","","","","",""
"","","","","","html-keyboard-response","2","166899","0.0-2.0","4628","
   <p>本实验首先需要您填写一些基本个人信息。</p>
   <p> <div style = ""color: green""><按任意键至下页></div></p>
   ","w","","","","","","","","","","","","","","","","","","","","","","",""
"","","","","","call-function","3","166909","0.0-3.0-0.0","","","","","","","","","","","","","","","","","","","","","","","","","",""
"","","","","","survey-html-form","4","172649","0.0-3.0-1.0","5727","","{""Q0"":""15""}","","","","","","","","","","","","","","","","","","","","","","",""
"","","","","","html-button-response","5","174097","0.0-3.0-2.0","1444","<p style = 'color : white'>您的性别</p>","1","","","","","","","","","","","","","","","","","","","","","","",""
"","","","","","survey-html-form","6","183921","0.0-3.0-3.0","9821","","{""Q0"":""2003""}","","","","","","","","","","","","","","","","","","","","","","",""
"","","","","","survey-html-form","7","188727","0.0-3.0-4.0","4803","","{""Q0"":""5""}","","","","","","","","","","","","","","","","","","","","","","",""
"","","","","","virtual-chinrest","8","407172","0.0-4.0","218437","","","","85.6","53.98","408.10011448477127","4.769606797080081","599.88","8.162002289695424","50","0.9875027859494473","26.52","13","","","","","","","","","","","",""
"true","","","","","fullscreen","9","412687","0.0-5.0","","","","","","","","","","","","","","","","","","","","","","","","","",""
"","","","","","instructions","10","561871","0.0-6.0","149180","","","","","","","","","","","","","","[{""page_index"":0,""viewing_time"":51342},{""page_index"":1,""viewing_time"":54143},{""page_index"":2,""viewing_time"":29978},{""page_index"":3,""viewing_time"":13717}]","","","","","","","","","","",""
"","","","","","psychophysics","11","564547","0.0-7.0-0.0-0.0","null","","null","","","","","","","","","","","","","key","null","16.974458064515925","682","379","f","false","img/T_ambi40.png","方形","prac_image_first",""
"","","","","","html-keyboard-response","12","564872","0.0-7.0-0.0-1.0","null","<span class='add_' style='color:yellow; font-size: 70px;'> 太慢! </span>","null","","","","","","","","","","","","","","","","","","","","","","","feedback_test"
"","","","","","psychophysics","13","566361","0.0-7.0-0.0-0.1","322","","f","","","","","","","","","","","","","key","f","16.651058139535326","682","379","j","false","img/C_ambi40.png","圆形","prac_image_first",""
"","","","","","html-keyboard-response","14","566678","0.0-7.0-0.0-1.1","null","<span style='color:red; font-size: 70px;'>错误! </span>","null","","","","","","","","","","","","","","","","","","","","","","","feedback_test"
"","","","","","psychophysics","15","568307","0.0-7.0-0.0-0.2","470","","j","","","","","","","","","","","","","key","j","16.651937500000106","682","379","f","false","img/C_ambi40.png","方形","prac_image_first",""
"","","","","","html-keyboard-response","16","568622","0.0-7.0-0.0-1.2","null","<span style='color:red; font-size: 70px;'>错误! </span>","null","","","","","","","","","","","","","","","","","","","","","","","feedback_test"
"","","","","","psychophysics","17","570677","0.0-7.0-0.0-0.3","897","","f","","","","","","","","","","","","","key","f","16.93328813559344","682","379","f","true","img/S_ambi40.png","圆形","prac_image_first",""
"","","","","","html-keyboard-response","18","570988","0.0-7.0-0.0-1.3","null","<span style='color:GreenYellow; font-size: 70px;'>正确! </span>","null","","","","","","","","","","","","","","","","","","","","","","","feedback_test"
"","","","","","psychophysics","19","573190","0.0-7.0-0.0-0.4","1045","","j","","","","","","","","","","","","","key","j","16.6530769230771","682","379","f","false","img/S_ambi40.png","三角","prac_image_first",""
"","","","","","html-keyboard-response","20","573494","0.0-7.0-0.0-1.4","null","<span style='color:red; font-size: 70px;'>错误! </span>","null","","","","","","","","","","","","","","","","","","","","","","","feedback_test"
"","","","","","psychophysics","21","575618","0.0-7.0-0.0-0.5","971","","f","","","","","","","","","","","","","key","f","17.055617886178982","682","379","j","false","img/S_ambi40.png","方形","prac_image_first",""
"","","","","","html-keyboard-response","22","575935","0.0-7.0-0.0-1.5","null","<span style='color:red; font-size: 70px;'>错误! </span>","null","","","","","","","","","","","","","","","","","","","","","","","feedback_test"
"","","","","","psychophysics","23","578110","0.0-7.0-0.0-0.6","1017","","f","","","","","","","","","","","","","key","f","16.778734374999658","682","379","j","false","img/T_ambi40.png","三角","prac_image_first",""
"","","","","","html-keyboard-response","24","578414","0.0-7.0-0.0-1.6","null","<span style='color:red; font-size: 70px;'>错误! </span>","null","","","","","","","","","","","","","","","","","","","","","","","feedback_test"
"","","","","","psychophysics","25","580543","0.0-7.0-0.0-0.7","977","","j","","","","","","","","","","","","","key","j","16.784508064515972","682","379","j","true","img/S_ambi40.png","方形","prac_image_first",""
"","","","","","html-keyboard-response","26","580860","0.0-7.0-0.0-1.7","null","<span style='color:GreenYellow; font-size: 70px;'>正确! </span>","null","","","","","","","","","","","","","","","","","","","","","","","feedback_test"
"","","","","","psychophysics","27","582789","0.0-7.0-0.0-0.8","770","","f","","","","","","","","","","","","","key","f","16.805715596331112","682","379","j","false","img/C_ambi40.png","圆形","prac_image_first",""
"","","","","","html-keyboard-response","28","583108","0.0-7.0-0.0-1.8","null","<span style='color:red; font-size: 70px;'>错误! </span>","null","","","","","","","","","","","","","","","","","","","","","","","feedback_test"
"","","","","","psychophysics","29","585362","0.0-7.0-0.0-0.9","1096","","f","","","","","","","","","","","","","key","f","16.777595419848147","682","379","f","true","img/T_ambi40.png","圆形","prac_image_first",""
"","","","","","html-keyboard-response","30","585668","0.0-7.0-0.0-1.9","null","<span style='color:GreenYellow; font-size: 70px;'>正确! </span>","null","","","","","","","","","","","","","","","","","","","","","","","feedback_test"
"","","","","","psychophysics","31","587553","0.0-7.0-0.0-0.10","731","","j","","","","","","","","","","","","","key","j","16.8009099099095","682","379","j","true","img/T_ambi40.png","三角","prac_image_first",""
"","","","","","html-keyboard-response","32","587870","0.0-7.0-0.0-1.10","null","<span style='color:GreenYellow; font-size: 70px;'>正确! </span>","null","","","","","","","","","","","","","","","","","","","","","","","feedback_test"
"","","","","","psychophysics","33","589861","0.0-7.0-0.0-0.11","837","","f","","","","","","","","","","","","","key","f","16.941391304347906","682","379","f","true","img/C_ambi40.png","三角","prac_image_first",""
"","","","","","html-keyboard-response","34","590181","0.0-7.0-0.0-1.11","null","<span style='color:GreenYellow; font-size: 70px;'>正确! </span>","null","","","","","","","","","","","","","","","","","","","","","","","feedback_test"
"","","","","","psychophysics","35","592843","0.0-7.0-0.0-0.12","null","","null","","","","","","","","","","","","","key","null","16.851926829268383","682","379","j","false","img/S_ambi40.png","方形","prac_image_first",""
"","","","","","html-keyboard-response","36","593151","0.0-7.0-0.0-1.12","null","<span class='add_' style='color:yellow; font-size: 70px;'> 太慢! </span>","null","","","","","","","","","","","","","","","","","","","","","","","feedback_test"
"","","","","","psychophysics","37","595820","0.0-7.0-0.0-0.13","null","","null","","","","","","","","","","","","","key","null","16.7822179487184","682","379","j","false","img/T_ambi40.png","三角","prac_image_first",""
"","","","","","html-keyboard-response","38","596132","0.0-7.0-0.0-1.13","null","<span class='add_' style='color:yellow; font-size: 70px;'> 太慢! </span>","null","","","","","","","","","","","","","","","","","","","","","","","feedback_test"
"","","","","","psychophysics","39","598786","0.0-7.0-0.0-0.14","null","","null","","","","","","","","","","","","","key","null","NaN","682","379","j","false","img/C_ambi40.png","圆形","prac_image_first",""
"","","","","","html-keyboard-response","40","599088","0.0-7.0-0.0-1.14","null","<span class='add_' style='color:yellow; font-size: 70px;'> 太慢! </span>","null","","","","","","","","","","","","","","","","","","","","","","","feedback_test"
"","","","","","psychophysics","41","601742","0.0-7.0-0.0-0.15","null","","null","","","","","","","","","","","","","key","null","NaN","682","379","f","false","img/C_ambi40.png","三角","prac_image_first",""
"","","","","","html-keyboard-response","42","602043","0.0-7.0-0.0-1.15","null","<span class='add_' style='color:yellow; font-size: 70px;'> 太慢! </span>","null","","","","","","","","","","","","","","","","","","","","","","","feedback_test"
"","","","","","psychophysics","43","604697","0.0-7.0-0.0-0.16","null","","null","","","","","","","","","","","","","key","null","NaN","682","379","j","false","img/C_ambi40.png","圆形","prac_image_first",""
"","","","","","html-keyboard-response","44","605009","0.0-7.0-0.0-1.16","null","<span class='add_' style='color:yellow; font-size: 70px;'> 太慢! </span>","null","","","","","","","","","","","","","","","","","","","","","","","feedback_test"
"","","","","","psychophysics","45","607661","0.0-7.0-0.0-0.17","null","","null","","","","","","","","","","","","","key","null","NaN","682","379","f","false","img/T_ambi40.png","方形","prac_image_first",""
"","","","","","html-keyboard-response","46","607964","0.0-7.0-0.0-1.17","null","<span class='add_' style='color:yellow; font-size: 70px;'> 太慢! </span>","null","","","","","","","","","","","","","","","","","","","","","","","feedback_test"
"","","","","","psychophysics","47","610618","0.0-7.0-0.0-0.18","null","","null","","","","","","","","","","","","","key","null","NaN","682","379","j","false","img/T_ambi40.png","三角","prac_image_first",""
"","","","","","html-keyboard-response","48","610933","0.0-7.0-0.0-1.18","null","<span class='add_' style='color:yellow; font-size: 70px;'> 太慢! </span>","null","","","","","","","","","","","","","","","","","","","","","","","feedback_test"
"","","","","","psychophysics","49","613588","0.0-7.0-0.0-0.19","null","","null","","","","","","","","","","","","","key","null","NaN","682","379","f","false","img/T_ambi40.png","圆形","prac_image_first",""
"","","","","","html-keyboard-response","50","613897","0.0-7.0-0.0-1.19","null","<span class='add_' style='color:yellow; font-size: 70px;'> 太慢! </span>","null","","","","","","","","","","","","","","","","","","","","","","","feedback_test"
"","","","","","psychophysics","51","616556","0.0-7.0-0.0-0.20","null","","null","","","","","","","","","","","","","key","null","16.648949367088512","682","379","f","false","img/S_ambi40.png","圆形","prac_image_first",""
"","","","","","html-keyboard-response","52","616874","0.0-7.0-0.0-1.20","null","<span class='add_' style='color:yellow; font-size: 70px;'> 太慢! </span>","null","","","","","","","","","","","","","","","","","","","","","","","feedback_test"
"","","","","","psychophysics","53","619527","0.0-7.0-0.0-0.21","null","","null","","","","","","","","","","","","","key","null","16.75707006369418","682","379","j","false","img/S_ambi40.png","方形","prac_image_first",""
"","","","","","html-keyboard-response","54","619846","0.0-7.0-0.0-1.21","null","<span class='add_' style='color:yellow; font-size: 70px;'> 太慢! </span>","null","","","","","","","","","","","","","","","","","","","","","","","feedback_test"
"","","","","","psychophysics","55","622518","0.0-7.0-0.0-0.22","null","","null","","","","","","","","","","","","","key","null","16.756554140127264","682","379","f","false","img/S_ambi40.png","三角","prac_image_first",""
"","","","","","html-keyboard-response","56","622820","0.0-7.0-0.0-1.22","null","<span class='add_' style='color:yellow; font-size: 70px;'> 太慢! </span>","null","","","","","","","","","","","","","","","","","","","","","","","feedback_test"
"","","","","","psychophysics","57","625475","0.0-7.0-0.0-0.23","null","","null","","","","","","","","","","","","","key","null","16.97689542483715","682","379","f","false","img/C_ambi40.png","方形","prac_image_first",""
"","","","","","html-keyboard-response","58","625781","0.0-7.0-0.0-1.23","null","<span class='add_' style='color:yellow; font-size: 70px;'> 太慢! </span>","null","","","","","","","","","","","","","","","","","","","","","","","feedback_test"
"","","","","","html-keyboard-response","59","699916","0.0-7.0-1.0-0.0","74129","<style>.context{color:white; font-size: 35px; line-height:40px}</style>                            <div><p class='context'>您正确回答了21% 的试次。</p><p class='context'>您的平均反应时为908毫秒。</p>","arrowright","","","","","","","","","","","","","","","","","","","","","","",""
"","","","","","instructions","60","807985","0.0-7.0-1.0-1.0","108056","","","","","","","","","","","","","","[{""page_index"":0,""viewing_time"":93485},{""page_index"":1,""viewing_time"":11640},{""page_index"":2,""viewing_time"":2930}]","","","","","","","","","","",""
"","","","","","psychophysics","61","810013","0.0-7.1-0.1-0.24","872","","j","","","","","","","","","","","","","key","j","16.651611570248665","682","379","j","true","img/C_ambi40.png","圆形","prac_image_first",""
"","","","","","html-keyboard-response","62","810329","0.0-7.1-0.1-1.24","null","<span style='color:GreenYellow; font-size: 70px;'>正确! </span>","null","","","","","","","","","","","","","","","","","","","","","","","feedback_test"
"","","","","","psychophysics","63","812194","0.0-7.1-0.1-0.25","710","","j","","","","","","","","","","","","","key","j","16.648909090909132","682","379","j","true","img/T_ambi40.png","三角","prac_image_first",""
"","","","","","html-keyboard-response","64","812510","0.0-7.1-0.1-1.25","null","<span style='color:GreenYellow; font-size: 70px;'>正确! </span>","null","","","","","","","","","","","","","","","","","","","","","","","feedback_test"
"","","","","","psychophysics","65","814529","0.0-7.1-0.1-0.26","863","","f","","","","","","","","","","","","","key","f","16.650958333333257","682","379","f","true","img/T_ambi40.png","圆形","prac_image_first",""
"","","","","","html-keyboard-response","66","814842","0.0-7.1-0.1-1.26","null","<span style='color:GreenYellow; font-size: 70px;'>正确! </span>","null","","","","","","","","","","","","","","","","","","","","","","","feedback_test"
"","","","","","psychophysics","67","816800","0.0-7.1-0.1-0.27","805","","f","","","","","","","","","","","","","key","f","16.651843478261373","682","379","f","true","img/C_ambi40.png","三角","prac_image_first",""
"","","","","","html-keyboard-response","68","817115","0.0-7.1-0.1-1.27","null","<span style='color:GreenYellow; font-size: 70px;'>正确! </span>","null","","","","","","","","","","","","","","","","","","","","","","","feedback_test"
"","","","","","psychophysics","69","819284","0.0-7.1-0.1-0.28","1018","","f","","","","","","","","","","","","","key","f","16.652085937499578","682","379","f","true","img/S_ambi40.png","圆形","prac_image_first",""
"","","","","","html-keyboard-response","70","819603","0.0-7.1-0.1-1.28","null","<span style='color:GreenYellow; font-size: 70px;'>正确! </span>","null","","","","","","","","","","","","","","","","","","","","","","","feedback_test"
"","","","","","psychophysics","71","822020","0.0-7.1-0.1-0.29","1263","","f","","","","","","","","","","","","","key","f","16.767859154929322","682","379","f","true","img/T_ambi40.png","方形","prac_image_first",""
"","","","","","html-keyboard-response","72","822328","0.0-7.1-0.1-1.29","null","<span style='color:GreenYellow; font-size: 70px;'>正确! </span>","null","","","","","","","","","","","","","","","","","","","","","","","feedback_test"
"","","","","","psychophysics","73","824435","0.0-7.1-0.1-0.30","952","","j","","","","","","","","","","","","","key","j","16.65113599999994","682","379","j","true","img/T_ambi40.png","三角","prac_image_first",""
"","","","","","html-keyboard-response","74","824749","0.0-7.1-0.1-1.30","null","<span style='color:GreenYellow; font-size: 70px;'>正确! </span>","null","","","","","","","","","","","","","","","","","","","","","","","feedback_test"
"","","","","","psychophysics","75","826804","0.0-7.1-0.1-0.31","902","","j","","","","","","","","","","","","","key","j","16.65142975206591","682","379","j","true","img/C_ambi40.png","圆形","prac_image_first",""
"","","","","","html-keyboard-response","76","827114","0.0-7.1-0.1-1.31","null","<span style='color:GreenYellow; font-size: 70px;'>正确! </span>","null","","","","","","","","","","","","","","","","","","","","","","","feedback_test"
"","","","","","psychophysics","77","829027","0.0-7.1-0.1-0.32","760","","f","","","","","","","","","","","","","key","f","16.648438596491406","682","379","f","true","img/C_ambi40.png","方形","prac_image_first",""
"","","","","","html-keyboard-response","78","829342","0.0-7.1-0.1-1.32","null","<span style='color:GreenYellow; font-size: 70px;'>正确! </span>","null","","","","","","","","","","","","","","","","","","","","","","","feedback_test"
"","","","","","psychophysics","79","831136","0.0-7.1-0.1-0.33","641","","j","","","","","","","","","","","","","key","j","16.67525471698049","682","379","j","true","img/S_ambi40.png","方形","prac_image_first",""
"","","","","","html-keyboard-response","80","831443","0.0-7.1-0.1-1.33","null","<span style='color:GreenYellow; font-size: 70px;'>正确! </span>","null","","","","","","","","","","","","","","","","","","","","","","","feedback_test"
"","","","","","psychophysics","81","833346","0.0-7.1-0.1-0.34","750","","j","","","","","","","","","","","","","key","j","16.800107142856827","682","379","j","true","img/S_ambi40.png","方形","prac_image_first",""
"","","","","","html-keyboard-response","82","833653","0.0-7.1-0.1-1.34","null","<span style='color:GreenYellow; font-size: 70px;'>正确! </span>","null","","","","","","","","","","","","","","","","","","","","","","","feedback_test"
"","","","","","psychophysics","83","835662","0.0-7.1-0.1-0.35","856","","f","","","","","","","","","","","","","key","f","16.651336134453462","682","379","f","true","img/S_ambi40.png","三角","prac_image_first",""
"","","","","","html-keyboard-response","84","835980","0.0-7.1-0.1-1.35","null","<span style='color:GreenYellow; font-size: 70px;'>正确! </span>","null","","","","","","","","","","","","","","","","","","","","","","","feedback_test"
"","","","","","psychophysics","85","837854","0.0-7.1-0.1-0.36","714","","j","","","","","","","","","","","","","key","j","16.65141818181781","682","379","j","true","img/C_ambi40.png","圆形","prac_image_first",""
"","","","","","html-keyboard-response","86","838162","0.0-7.1-0.1-1.36","null","<span style='color:GreenYellow; font-size: 70px;'>正确! </span>","null","","","","","","","","","","","","","","","","","","","","","","","feedback_test"
"","","","","","psychophysics","87","840052","0.0-7.1-0.1-0.37","736","","f","","","","","","","","","","","","","key","f","16.649180180179208","682","379","f","true","img/C_ambi40.png","三角","prac_image_first",""
"","","","","","html-keyboard-response","88","840357","0.0-7.1-0.1-1.37","null","<span style='color:GreenYellow; font-size: 70px;'>正确! </span>","null","","","","","","","","","","","","","","","","","","","","","","","feedback_test"
"","","","","","psychophysics","89","842354","0.0-7.1-0.1-0.38","840","","j","","","","","","","","","","","","","key","j","16.650305084746048","682","379","f","false","img/S_ambi40.png","三角","prac_image_first",""
"","","","","","html-keyboard-response","90","842660","0.0-7.1-0.1-1.38","null","<span style='color:red; font-size: 70px;'>错误! </span>","null","","","","","","","","","","","","","","","","","","","","","","","feedback_test"
"","","","","","psychophysics","91","845302","0.0-7.1-0.1-0.39","1486","","f","","","","","","","","","","","","","key","f","16.64960256410249","682","379","f","true","img/T_ambi40.png","方形","prac_image_first",""
"","","","","","html-keyboard-response","92","845609","0.0-7.1-0.1-1.39","null","<span style='color:GreenYellow; font-size: 70px;'>正确! </span>","null","","","","","","","","","","","","","","","","","","","","","","","feedback_test"
"","","","","","psychophysics","93","847645","0.0-7.1-0.1-0.40","880","","j","","","","","","","","","","","","","key","j","16.65109999999986","682","379","j","true","img/S_ambi40.png","方形","prac_image_first",""
"","","","","","html-keyboard-response","94","847959","0.0-7.1-0.1-1.40","null","<span style='color:GreenYellow; font-size: 70px;'>正确! </span>","null","","","","","","","","","","","","","","","","","","","","","","","feedback_test"
"","","","","","psychophysics","95","850553","0.0-7.1-0.1-0.41","1443","","j","","","","","","","","","","","","","key","j","16.64961688311668","682","379","j","true","img/T_ambi40.png","三角","prac_image_first",""
"","","","","","html-keyboard-response","96","850865","0.0-7.1-0.1-1.41","null","<span style='color:GreenYellow; font-size: 70px;'>正确! </span>","null","","","","","","","","","","","","","","","","","","","","","","","feedback_test"
"","","","","","psychophysics","97","853256","0.0-7.1-0.1-0.42","1234","","f","","","","","","","","","","","","","key","f","16.65140140845037","682","379","f","true","img/S_ambi40.png","圆形","prac_image_first",""
"","","","","","html-keyboard-response","98","853567","0.0-7.1-0.1-1.42","null","<span style='color:GreenYellow; font-size: 70px;'>正确! </span>","null","","","","","","","","","","","","","","","","","","","","","","","feedback_test"
"","","","","","psychophysics","99","856026","0.0-7.1-0.1-0.43","1308","","f","","","","","","","","","","","","","key","f","16.65026712328776","682","379","f","true","img/T_ambi40.png","圆形","prac_image_first",""
"","","","","","html-keyboard-response","100","856335","0.0-7.1-0.1-1.43","null","<span style='color:GreenYellow; font-size: 70px;'>正确! </span>","null","","","","","","","","","","","","","","","","","","","","","","","feedback_test"
"","","","","","psychophysics","101","858416","0.0-7.1-0.1-0.44","927","","j","","","","","","","","","","","","","key","j","16.65076422764223","682","379","j","true","img/C_ambi40.png","圆形","prac_image_first",""
"","","","","","html-keyboard-response","102","858719","0.0-7.1-0.1-1.44","null","<span style='color:GreenYellow; font-size: 70px;'>正确! </span>","null","","","","","","","","","","","","","","","","","","","","","","","feedback_test"
"","","","","","psychophysics","103","860750","0.0-7.1-0.1-0.45","878","","f","","","","","","","","","","","","","key","f","16.651561983471375","682","379","f","true","img/C_ambi40.png","方形","prac_image_first",""
"","","","","","html-keyboard-response","104","861054","0.0-7.1-0.1-1.45","null","<span style='color:GreenYellow; font-size: 70px;'>正确! </span>","null","","","","","","","","","","","","","","","","","","","","","","","feedback_test"
"","","","","","psychophysics","105","863433","0.0-7.1-0.1-0.46","1227","","j","","","","","","","","","","","","","key","j","16.650735714285734","682","379","j","true","img/S_ambi40.png","方形","prac_image_first",""
"","","","","","html-keyboard-response","106","863735","0.0-7.1-0.1-1.46","null","<span style='color:GreenYellow; font-size: 70px;'>正确! </span>","null","","","","","","","","","","","","","","","","","","","","","","","feedback_test"
"","","","","","psychophysics","107","865655","0.0-7.1-0.1-0.47","764","","j","","","","","","","","","","","","","key","j","16.650732142858033","682","379","j","true","img/T_ambi40.png","三角","prac_image_first",""
"","","","","","html-keyboard-response","108","865962","0.0-7.1-0.1-1.47","null","<span style='color:GreenYellow; font-size: 70px;'>正确! </span>","null","","","","","","","","","","","","","","","","","","","","","","","feedback_test"
"","","","","","html-keyboard-response","109","874905","0.0-8.0","8938","<style>.context{color:white; font-size: 35px; line-height:40px}</style>                            <div><p class='context'>您正确回答了96% 的试次。</p><p class='context'>您的平均反应时为956毫秒。</p><p class='context'>恭喜您完成这一阶段的练习。按任意键进入<span style='color: yellow;'>先文字后图形条件</span>的练习。</p></div>","r","","","","","","","","","","","","","","","","","","","","","","",""
"","","","","","psychophysics","110","877569","0.0-9.0-0.0-0.0","null","","null","","","","","","","","","","","","","key","null","16.649468354429885","682","379","f","false","img/S_ambi40.png","圆形","prac_word_first",""
"","","","","","html-keyboard-response","111","877871","0.0-9.0-0.0-1.0","null","<span class='add_' style='color:yellow; font-size: 70px;'> 太慢! </span>","null","","","","","","","","","","","","","","","","","","","","","","","feedback_test"
"","","","","","psychophysics","112","879980","0.0-9.0-0.0-0.1","956","","j","","","","","","","","","","","","","key","j","16.650623999999837","682","379","j","true","img/T_ambi40.png","三角","prac_word_first",""
"","","","","","html-keyboard-response","113","880296","0.0-9.0-0.0-1.1","null","<span style='color:GreenYellow; font-size: 70px;'>正确! </span>","null","","","","","","","","","","","","","","","","","","","","","","","feedback_test"
"","","","","","psychophysics","114","882498","0.0-9.0-0.0-0.2","1049","","f","","","","","","","","","","","","","key","f","16.649776923077074","682","379","f","true","img/C_ambi40.png","方形","prac_word_first",""
"","","","","","html-keyboard-response","115","882807","0.0-9.0-0.0-1.2","null","<span style='color:GreenYellow; font-size: 70px;'>正确! </span>","null","","","","","","","","","","","","","","","","","","","","","","","feedback_test"
"","","","","","psychophysics","116","884727","0.0-9.0-0.0-0.3","766","","j","","","","","","","","","","","","","key","j","16.651350877192606","682","379","f","false","img/T_ambi40.png","方形","prac_word_first",""
"","","","","","html-keyboard-response","117","885040","0.0-9.0-0.0-1.3","null","<span style='color:red; font-size: 70px;'>错误! </span>","null","","","","","","","","","","","","","","","","","","","","","","","feedback_test"
"","","","","","psychophysics","118","886936","0.0-9.0-0.0-0.4","743","","j","","","","","","","","","","","","","key","j","16.64433035714319","682","379","j","true","img/S_ambi40.png","方形","prac_word_first",""
"","","","","","html-keyboard-response","119","887252","0.0-9.0-0.0-1.4","null","<span style='color:GreenYellow; font-size: 70px;'>正确! </span>","null","","","","","","","","","","","","","","","","","","","","","","","feedback_test"
"","","","","","psychophysics","120","889187","0.0-9.0-0.0-0.5","781","","j","","","","","","","","","","","","","key","j","16.64631304347827","682","379","j","true","img/S_ambi40.png","方形","prac_word_first",""
"","","","","","html-keyboard-response","121","889494","0.0-9.0-0.0-1.5","null","<span style='color:GreenYellow; font-size: 70px;'>正确! </span>","null","","","","","","","","","","","","","","","","","","","","","","","feedback_test"
"","","","","","psychophysics","122","891373","0.0-9.0-0.0-0.6","725","","f","","","","","","","","","","","","","key","f","16.646318181818987","682","379","f","true","img/S_ambi40.png","三角","prac_word_first",""
"","","","","","html-keyboard-response","123","891679","0.0-9.0-0.0-1.6","null","<span style='color:GreenYellow; font-size: 70px;'>正确! </span>","null","","","","","","","","","","","","","","","","","","","","","","","feedback_test"
"","","","","","psychophysics","124","894332","0.0-9.0-0.0-0.7","null","","null","","","","","","","","","","","","","key","null","16.650974522292863","682","379","f","false","img/T_ambi40.png","圆形","prac_word_first",""
"","","","","","html-keyboard-response","125","894642","0.0-9.0-0.0-1.7","null","<span class='add_' style='color:yellow; font-size: 70px;'> 太慢! </span>","null","","","","","","","","","","","","","","","","","","","","","","","feedback_test"
"","","","","","psychophysics","126","896729","0.0-9.0-0.0-0.8","932","","f","","","","","","","","","","","","","key","f","16.652065040650626","682","379","f","true","img/C_ambi40.png","三角","prac_word_first",""
"","","","","","html-keyboard-response","127","897046","0.0-9.0-0.0-1.8","null","<span style='color:GreenYellow; font-size: 70px;'>正确! </span>","null","","","","","","","","","","","","","","","","","","","","","","","feedback_test"
"","","","","","psychophysics","128","898899","0.0-9.0-0.0-0.9","700","","j","","","","","","","","","","","","","key","j","16.651327272726814","682","379","j","true","img/T_ambi40.png","三角","prac_word_first",""
"","","","","","html-keyboard-response","129","899214","0.0-9.0-0.0-1.9","null","<span style='color:GreenYellow; font-size: 70px;'>正确! </span>","null","","","","","","","","","","","","","","","","","","","","","","","feedback_test"
"","","","","","psychophysics","130","900960","0.0-9.0-0.0-0.10","594","","j","","","","","","","","","","","","","key","j","16.65190384615338","682","379","j","true","img/C_ambi40.png","圆形","prac_word_first",""
"","","","","","html-keyboard-response","131","901268","0.0-9.0-0.0-1.10","null","<span style='color:GreenYellow; font-size: 70px;'>正确! </span>","null","","","","","","","","","","","","","","","","","","","","","","","feedback_test"
"","","","","","psychophysics","132","903044","0.0-9.0-0.0-0.11","623","","j","","","","","","","","","","","","","key","j","16.65077142857148","682","379","j","true","img/C_ambi40.png","圆形","prac_word_first",""
"","","","","","html-keyboard-response","133","903359","0.0-9.0-0.0-1.11","null","<span style='color:GreenYellow; font-size: 70px;'>正确! </span>","null","","","","","","","","","","","","","","","","","","","","","","","feedback_test"
"","","","","","psychophysics","134","905009","0.0-9.0-0.0-0.12","493","","j","","","","","","","","","","","","","key","j","16.65099999999997","682","379","j","true","img/C_ambi40.png","圆形","prac_word_first",""
"","","","","","html-keyboard-response","135","905325","0.0-9.0-0.0-1.12","null","<span style='color:GreenYellow; font-size: 70px;'>正确! </span>","null","","","","","","","","","","","","","","","","","","","","","","","feedback_test"
"","","","","","psychophysics","136","907113","0.0-9.0-0.0-0.13","637","","f","","","","","","","","","","","","","key","f","16.6503461538467","682","379","f","true","img/S_ambi40.png","圆形","prac_word_first",""
"","","","","","html-keyboard-response","137","907429","0.0-9.0-0.0-1.13","null","<span style='color:GreenYellow; font-size: 70px;'>正确! </span>","null","","","","","","","","","","","","","","","","","","","","","","","feedback_test"
"","","","","","psychophysics","138","909248","0.0-9.0-0.0-0.14","666","","f","","","","","","","","","","","","","key","f","16.650462962962962","682","379","f","true","img/S_ambi40.png","三角","prac_word_first",""
"","","","","","html-keyboard-response","139","909559","0.0-9.0-0.0-1.14","null","<span style='color:GreenYellow; font-size: 70px;'>正确! </span>","null","","","","","","","","","","","","","","","","","","","","","","","feedback_test"
"","","","","","psychophysics","140","911220","0.0-9.0-0.0-0.15","508","","j","","","","","","","","","","","","","key","j","16.65073195876213","682","379","j","true","img/C_ambi40.png","圆形","prac_word_first",""
"","","","","","html-keyboard-response","141","911528","0.0-9.0-0.0-1.15","null","<span style='color:GreenYellow; font-size: 70px;'>正确! </span>","null","","","","","","","","","","","","","","","","","","","","","","","feedback_test"
"","","","","","psychophysics","142","913303","0.0-9.0-0.0-0.16","620","","j","","","","","","","","","","","","","key","j","16.64959999999985","682","379","f","false","img/C_ambi40.png","三角","prac_word_first",""
"","","","","","html-keyboard-response","143","913610","0.0-9.0-0.0-1.16","null","<span style='color:red; font-size: 70px;'>错误! </span>","null","","","","","","","","","","","","","","","","","","","","","","","feedback_test"
"","","","","","psychophysics","144","915734","0.0-9.0-0.0-0.17","971","","f","","","","","","","","","","","","","key","f","16.652175999999976","682","379","f","true","img/C_ambi40.png","方形","prac_word_first",""
"","","","","","html-keyboard-response","145","916035","0.0-9.0-0.0-1.17","null","<span style='color:GreenYellow; font-size: 70px;'>正确! </span>","null","","","","","","","","","","","","","","","","","","","","","","","feedback_test"
"","","","","","psychophysics","146","918169","0.0-9.0-0.0-0.18","978","","j","","","","","","","","","","","","","key","j","16.649816000000573","682","379","j","true","img/S_ambi40.png","方形","prac_word_first",""
"","","","","","html-keyboard-response","147","918477","0.0-9.0-0.0-1.18","null","<span style='color:GreenYellow; font-size: 70px;'>正确! </span>","null","","","","","","","","","","","","","","","","","","","","","","","feedback_test"
"","","","","","psychophysics","148","920506","0.0-9.0-0.0-0.19","876","","f","","","","","","","","","","","","","key","f","16.6500999999999","682","379","j","false","img/T_ambi40.png","三角","prac_word_first",""
"","","","","","html-keyboard-response","149","920819","0.0-9.0-0.0-1.19","null","<span style='color:red; font-size: 70px;'>错误! </span>","null","","","","","","","","","","","","","","","","","","","","","","","feedback_test"
"","","","","","psychophysics","150","923017","0.0-9.0-0.0-0.20","1039","","j","","","","","","","","","","","","","key","j","16.653107692307543","682","379","j","true","img/S_ambi40.png","方形","prac_word_first",""
"","","","","","html-keyboard-response","151","923330","0.0-9.0-0.0-1.20","null","<span style='color:GreenYellow; font-size: 70px;'>正确! </span>","null","","","","","","","","","","","","","","","","","","","","","","","feedback_test"
"","","","","","psychophysics","152","925254","0.0-9.0-0.0-0.21","771","","f","","","","","","","","","","","","","key","f","16.79813274336295","682","379","f","true","img/T_ambi40.png","圆形","prac_word_first",""
"","","","","","html-keyboard-response","153","925561","0.0-9.0-0.0-1.21","null","<span style='color:GreenYellow; font-size: 70px;'>正确! </span>","null","","","","","","","","","","","","","","","","","","","","","","","feedback_test"
"","","","","","psychophysics","154","927543","0.0-9.0-0.0-0.22","826","","j","","","","","","","","","","","","","key","j","16.652350427351024","682","379","j","true","img/T_ambi40.png","三角","prac_word_first",""
"","","","","","html-keyboard-response","155","927846","0.0-9.0-0.0-1.22","null","<span style='color:GreenYellow; font-size: 70px;'>正确! </span>","null","","","","","","","","","","","","","","","","","","","","","","","feedback_test"
"","","","","","psychophysics","156","930023","0.0-9.0-0.0-0.23","1022","","f","","","","","","","","","","","","","key","f","16.648609374999978","682","379","f","true","img/T_ambi40.png","方形","prac_word_first",""
"","","","","","html-keyboard-response","157","930339","0.0-9.0-0.0-1.23","null","<span style='color:GreenYellow; font-size: 70px;'>正确! </span>","null","","","","","","","","","","","","","","","","","","","","","","","feedback_test"
"","","","","","html-keyboard-response","158","933605","0.0-10.0","3261","<style>.context{color:white; font-size: 35px; line-height:40px}</style>                            <div><p class='context'>您正确回答了79% 的试次。</p><p class='context'>您的平均反应时为790毫秒。</p><p class='context'>恭喜您完成练习。按任意键进入<span style='color: yellow;'>图形和文字同时呈现条件</span>的练习。</p></div>","o","","","","","","","","","","","","","","","","","","","","","","",""
"","","","","","psychophysics","159","936119","0.0-11.0-0.0-0.0","null","","null","","","","","","","","","","","","","key","null","16.650142857142832","682","379","f","false","img/S_ambi40.png","三角","prac_simultaneous",""
"","","","","","html-keyboard-response","160","936425","0.0-11.0-0.0-1.0","null","<span class='add_' style='color:yellow; font-size: 70px;'> 太慢! </span>","null","","","","","","","","","","","","","","","","","","","","","","","feedback_test"
"","","","","","psychophysics","161","938489","0.0-11.0-0.0-0.1","1061","","j","","","","","","","","","","","","","key","j","16.650336065573892","682","379","f","false","img/T_ambi40.png","圆形","prac_simultaneous",""
"","","","","","html-keyboard-response","162","938798","0.0-11.0-0.0-1.1","null","<span style='color:red; font-size: 70px;'>错误! </span>","null","","","","","","","","","","","","","","","","","","","","","","","feedback_test"
"","","","","","psychophysics","163","940706","0.0-11.0-0.0-0.2","902","","j","","","","","","","","","","","","","key","j","16.650232142857153","682","379","j","true","img/T_ambi40.png","三角","prac_simultaneous",""
"","","","","","html-keyboard-response","164","941024","0.0-11.0-0.0-1.2","null","<span style='color:GreenYellow; font-size: 70px;'>正确! </span>","null","","","","","","","","","","","","","","","","","","","","","","","feedback_test"
"","","","","","psychophysics","165","942875","0.0-11.0-0.0-0.3","850","","f","","","","","","","","","","","","","key","f","16.651342592593412","682","379","j","false","img/S_ambi40.png","方形","prac_simultaneous",""
"","","","","","html-keyboard-response","166","943186","0.0-11.0-0.0-1.3","null","<span style='color:red; font-size: 70px;'>错误! </span>","null","","","","","","","","","","","","","","","","","","","","","","","feedback_test"
"","","","","","psychophysics","167","944939","0.0-11.0-0.0-0.4","748","","j","","","","","","","","","","","","","key","j","16.650699029126187","682","379","j","true","img/T_ambi40.png","三角","prac_simultaneous",""
"","","","","","html-keyboard-response","168","945247","0.0-11.0-0.0-1.4","null","<span style='color:GreenYellow; font-size: 70px;'>正确! </span>","null","","","","","","","","","","","","","","","","","","","","","","","feedback_test"
"","","","","","psychophysics","169","947215","0.0-11.0-0.0-0.5","965","","f","","","","","","","","","","","","","key","f","16.64788034188056","682","379","f","true","img/S_ambi40.png","圆形","prac_simultaneous",""
"","","","","","html-keyboard-response","170","947521","0.0-11.0-0.0-1.5","null","<span style='color:GreenYellow; font-size: 70px;'>正确! </span>","null","","","","","","","","","","","","","","","","","","","","","","","feedback_test"
"","","","","","psychophysics","171","949632","0.0-11.0-0.0-0.6","1106","","j","","","","","","","","","","","","","key","j","16.650741935484188","682","379","j","true","img/C_ambi40.png","圆形","prac_simultaneous",""
"","","","","","html-keyboard-response","172","949947","0.0-11.0-0.0-1.6","null","<span style='color:GreenYellow; font-size: 70px;'>正确! </span>","null","","","","","","","","","","","","","","","","","","","","","","","feedback_test"
"","","","","","psychophysics","173","951609","0.0-11.0-0.0-0.7","661","","j","","","","","","","","","","","","","key","j","16.651051020407717","682","379","j","true","img/C_ambi40.png","圆形","prac_simultaneous",""
"","","","","","html-keyboard-response","174","951917","0.0-11.0-0.0-1.7","null","<span style='color:GreenYellow; font-size: 70px;'>正确! </span>","null","","","","","","","","","","","","","","","","","","","","","","","feedback_test"
"","","","","","psychophysics","175","953697","0.0-11.0-0.0-0.8","778","","j","","","","","","","","","","","","","key","j","16.80552427184506","682","379","f","false","img/T_ambi40.png","方形","prac_simultaneous",""
"","","","","","html-keyboard-response","176","954003","0.0-11.0-0.0-1.8","null","<span style='color:red; font-size: 70px;'>错误! </span>","null","","","","","","","","","","","","","","","","","","","","","","","feedback_test"
"","","","","","psychophysics","177","955811","0.0-11.0-0.0-0.9","805","","f","","","","","","","","","","","","","key","f","16.649485981308366","682","379","f","true","img/C_ambi40.png","三角","prac_simultaneous",""
"","","","","","html-keyboard-response","178","956120","0.0-11.0-0.0-1.9","null","<span style='color:GreenYellow; font-size: 70px;'>正确! </span>","null","","","","","","","","","","","","","","","","","","","","","","","feedback_test"
"","","","","","psychophysics","179","957877","0.0-11.0-0.0-0.10","754","","j","","","","","","","","","","","","","key","j","16.647634615385098","682","379","f","false","img/C_ambi40.png","方形","prac_simultaneous",""
"","","","","","html-keyboard-response","180","958185","0.0-11.0-0.0-1.10","null","<span style='color:red; font-size: 70px;'>错误! </span>","null","","","","","","","","","","","","","","","","","","","","","","","feedback_test"
"","","","","","psychophysics","181","960090","0.0-11.0-0.0-0.11","902","","j","","","","","","","","","","","","","key","j","16.650821428571362","682","379","j","true","img/S_ambi40.png","方形","prac_simultaneous",""
"","","","","","html-keyboard-response","182","960396","0.0-11.0-0.0-1.11","null","<span style='color:GreenYellow; font-size: 70px;'>正确! </span>","null","","","","","","","","","","","","","","","","","","","","","","","feedback_test"
"","","","","","psychophysics","183","962130","0.0-11.0-0.0-0.12","726","","j","","","","","","","","","","","","","key","j","16.653490196079172","682","379","j","true","img/C_ambi40.png","圆形","prac_simultaneous",""
"","","","","","html-keyboard-response","184","962442","0.0-11.0-0.0-1.12","null","<span style='color:GreenYellow; font-size: 70px;'>正确! </span>","null","","","","","","","","","","","","","","","","","","","","","","","feedback_test"
"","","","","","psychophysics","185","964286","0.0-11.0-0.0-0.13","842","","f","","","","","","","","","","","","","key","f","16.6507314814813","682","379","f","true","img/S_ambi40.png","三角","prac_simultaneous",""
"","","","","","html-keyboard-response","186","964602","0.0-11.0-0.0-1.13","null","<span style='color:GreenYellow; font-size: 70px;'>正确! </span>","null","","","","","","","","","","","","","","","","","","","","","","","feedback_test"
"","","","","","psychophysics","187","966885","0.0-11.0-0.0-0.14","1281","","j","","","","","","","","","","","","","key","j","16.650179104477257","682","379","f","false","img/T_ambi40.png","方形","prac_simultaneous",""
"","","","","","html-keyboard-response","188","967187","0.0-11.0-0.0-1.14","null","<span style='color:red; font-size: 70px;'>错误! </span>","null","","","","","","","","","","","","","","","","","","","","","","","feedback_test"
"","","","","","psychophysics","189","968904","0.0-11.0-0.0-0.15","713","","j","","","","","","","","","","","","","key","j","16.65207000000053","682","379","j","true","img/T_ambi40.png","三角","prac_simultaneous",""
"","","","","","html-keyboard-response","190","969218","0.0-11.0-0.0-1.15","null","<span style='color:GreenYellow; font-size: 70px;'>正确! </span>","null","","","","","","","","","","","","","","","","","","","","","","","feedback_test"
"","","","","","psychophysics","191","970775","0.0-11.0-0.0-0.16","551","","j","","","","","","","","","","","","","key","j","16.648608695652396","682","379","j","true","img/T_ambi40.png","三角","prac_simultaneous",""
"","","","","","html-keyboard-response","192","971079","0.0-11.0-0.0-1.16","null","<span style='color:GreenYellow; font-size: 70px;'>正确! </span>","null","","","","","","","","","","","","","","","","","","","","","","","feedback_test"
"","","","","","psychophysics","193","972944","0.0-11.0-0.0-0.17","863","","f","","","","","","","","","","","","","key","f","16.649690909091046","682","379","f","true","img/T_ambi40.png","圆形","prac_simultaneous",""
"","","","","","html-keyboard-response","194","973253","0.0-11.0-0.0-1.17","null","<span style='color:GreenYellow; font-size: 70px;'>正确! </span>","null","","","","","","","","","","","","","","","","","","","","","","","feedback_test"
"","","","","","psychophysics","195","975108","0.0-11.0-0.0-0.18","852","","f","","","","","","","","","","","","","key","f","16.65071559633094","682","379","f","true","img/C_ambi40.png","方形","prac_simultaneous",""
"","","","","","html-keyboard-response","196","975425","0.0-11.0-0.0-1.18","null","<span style='color:GreenYellow; font-size: 70px;'>正确! </span>","null","","","","","","","","","","","","","","","","","","","","","","","feedback_test"
"","","","","","psychophysics","197","977096","0.0-11.0-0.0-0.19","666","","f","","","","","","","","","","","","","key","f","16.650577319587928","682","379","j","false","img/S_ambi40.png","方形","prac_simultaneous",""
"","","","","","html-keyboard-response","198","977410","0.0-11.0-0.0-1.19","null","<span style='color:red; font-size: 70px;'>错误! </span>","null","","","","","","","","","","","","","","","","","","","","","","","feedback_test"
"","","","","","psychophysics","199","979139","0.0-11.0-0.0-0.20","727","","j","","","","","","","","","","","","","key","j","16.653732673267346","682","379","j","true","img/C_ambi40.png","圆形","prac_simultaneous",""
"","","","","","html-keyboard-response","200","979455","0.0-11.0-0.0-1.20","null","<span style='color:GreenYellow; font-size: 70px;'>正确! </span>","null","","","","","","","","","","","","","","","","","","","","","","","feedback_test"
"","","","","","psychophysics","201","981003","0.0-11.0-0.0-0.21","546","","j","","","","","","","","","","","","","key","j","16.65056043956045","682","379","j","true","img/S_ambi40.png","方形","prac_simultaneous",""
"","","","","","html-keyboard-response","202","981318","0.0-11.0-0.0-1.21","null","<span style='color:GreenYellow; font-size: 70px;'>正确! </span>","null","","","","","","","","","","","","","","","","","","","","","","","feedback_test"
"","","","","","psychophysics","203","982725","0.0-11.0-0.0-0.22","399","","j","","","","","","","","","","","","","key","j","16.649719512195144","682","379","f","false","img/S_ambi40.png","圆形","prac_simultaneous",""
"","","","","","html-keyboard-response","204","983036","0.0-11.0-0.0-1.22","null","<span style='color:red; font-size: 70px;'>错误! </span>","null","","","","","","","","","","","","","","","","","","","","","","","feedback_test"
"","","","","","psychophysics","205","985005","0.0-11.0-0.0-0.23","964","","f","","","","","","","","","","","","","key","f","16.650904347825513","682","379","f","true","img/C_ambi40.png","三角","prac_simultaneous",""
"","","","","","html-keyboard-response","206","985321","0.0-11.0-0.0-1.23","null","<span style='color:GreenYellow; font-size: 70px;'>正确! </span>","null","","","","","","","","","","","","","","","","","","","","","","","feedback_test"
"","","","","","html-keyboard-response","207","1010349","0.0-12.0","25024","<style>.context{color:white; font-size: 35px; line-height:40px}</style>                            <div><p class='context'>您正确回答了67% 的试次。</p><p class='context'>您的平均反应时为805毫秒。</p><p class='context'>恭喜您完成练习。按任意键进入正式实验。</p><p class='footer' style='font-size: 35px; line-height:40px;'>请在进入正式实验实验之前将您的<span style='color: lightgreen;'>食指</span>放在电脑键盘的相应键位上进行按键。</p>","j","","","","","","","","","","","","","","","","","","","","","","",""
"","","","","","html-keyboard-response","208","1017400","0.0-13.0-1.0-0.0","7041","
    <p>请您将手指放在按键上，准备进入呈现顺序为<span style='color: yellow;'>先文字后图形条件</span>的正式匹配任务</p>
    <p> <div style = ""color: green""><按任意键进入下一阶段的匹配任务></div></p>
    ","f","","","","","","","","","","","","","","","","","","","","","","",""
"","","","","","psychophysics","209","1019478","0.0-13.0-1.0-1.0-0.0-0.0","926","","j","","","","","","","","","","","","","key","j","16.650081300812705","682","379","j","true","img/T_ambi40.png","三角","word_first",""
"","","","","","html-keyboard-response","210","1019786","0.0-13.0-1.0-1.0-0.0-1.0","null","<span style='color:GreenYellow; font-size: 70px;'>正确! </span>","null","","","","","","","","","","","","","","","","","","","","","","","feedback_test"
"","","","","","psychophysics","211","1021593","0.0-13.0-1.0-1.0-0.0-0.1","655","","j","","","","","","","","","","","","","key","j","16.650925233645722","682","379","j","true","img/S_ambi40.png","方形","word_first",""
"","","","","","html-keyboard-response","212","1021911","0.0-13.0-1.0-1.0-0.0-1.1","null","<span style='color:GreenYellow; font-size: 70px;'>正确! </span>","null","","","","","","","","","","","","","","","","","","","","","","","feedback_test"
"","","","","","psychophysics","213","1023592","0.0-13.0-1.0-1.0-0.0-0.2","526","","j","","","","","","","","","","","","","key","j","16.65265999999945","682","379","j","true","img/T_ambi40.png","三角","word_first",""
"","","","","","html-keyboard-response","214","1023898","0.0-13.0-1.0-1.0-0.0-1.2","null","<span style='color:GreenYellow; font-size: 70px;'>正确! </span>","null","","","","","","","","","","","","","","","","","","","","","","","feedback_test"
"","","","","","psychophysics","215","1025645","0.0-13.0-1.0-1.0-0.0-0.3","595","","j","","","","","","","","","","","","","key","j","16.64975728155385","682","379","j","true","img/C_ambi40.png","圆形","word_first",""
"","","","","","html-keyboard-response","216","1025951","0.0-13.0-1.0-1.0-0.0-1.3","null","<span style='color:GreenYellow; font-size: 70px;'>正确! </span>","null","","","","","","","","","","","","","","","","","","","","","","","feedback_test"
"","","","","","psychophysics","217","1027606","0.0-13.0-1.0-1.0-0.0-0.4","501","","j","","","","","","","","","","","","","key","j","16.653826530612957","682","379","j","true","img/C_ambi40.png","圆形","word_first",""
"","","","","","html-keyboard-response","218","1027920","0.0-13.0-1.0-1.0-0.0-1.4","null","<span style='color:GreenYellow; font-size: 70px;'>正确! </span>","null","","","","","","","","","","","","","","","","","","","","","","","feedback_test"
"","","","","","psychophysics","219","1029632","0.0-13.0-1.0-1.0-0.0-0.5","558","","f","","","","","","","","","","","","","key","f","16.64961386138647","682","379","f","true","img/S_ambi40.png","圆形","word_first",""
"","","","","","html-keyboard-response","220","1029948","0.0-13.0-1.0-1.0-0.0-1.5","null","<span style='color:GreenYellow; font-size: 70px;'>正确! </span>","null","","","","","","","","","","","","","","","","","","","","","","","feedback_test"
"","","","","","psychophysics","221","1031737","0.0-13.0-1.0-1.0-0.0-0.6","635","","j","","","","","","","","","","","","","key","j","16.65071428571495","682","379","f","false","img/T_ambi40.png","方形","word_first",""
"","","","","","html-keyboard-response","222","1032038","0.0-13.0-1.0-1.0-0.0-1.6","null","<span style='color:red; font-size: 70px;'>错误! </span>","null","","","","","","","","","","","","","","","","","","","","","","","feedback_test"
"","","","","","psychophysics","223","1033910","0.0-13.0-1.0-1.0-0.0-0.7","713","","f","","","","","","","","","","","","","key","f","16.651198198197637","682","379","f","true","img/C_ambi40.png","三角","word_first",""
"","","","","","html-keyboard-response","224","1034222","0.0-13.0-1.0-1.0-0.0-1.7","null","<span style='color:GreenYellow; font-size: 70px;'>正确! </span>","null","","","","","","","","","","","","","","","","","","","","","","","feedback_test"
"","","","","","psychophysics","225","1036451","0.0-13.0-1.0-1.0-0.0-0.8","1075","","j","","","","","","","","","","","","","key","j","16.65177862595443","682","379","j","true","img/S_ambi40.png","方形","word_first",""
"","","","","","html-keyboard-response","226","1036756","0.0-13.0-1.0-1.0-0.0-1.8","null","<span style='color:GreenYellow; font-size: 70px;'>正确! </span>","null","","","","","","","","","","","","","","","","","","","","","","","feedback_test"
"","","","","","psychophysics","227","1038695","0.0-13.0-1.0-1.0-0.0-0.9","786","","j","","","","","","","","","","","","","key","j","16.647165217391297","682","379","f","false","img/C_ambi40.png","方形","word_first",""
"","","","","","html-keyboard-response","228","1039011","0.0-13.0-1.0-1.0-0.0-1.9","null","<span style='color:red; font-size: 70px;'>错误! </span>","null","","","","","","","","","","","","","","","","","","","","","","","feedback_test"
"","","","","","psychophysics","229","1040821","0.0-13.0-1.0-1.0-0.0-0.10","658","","f","","","","","","","","","","","","","key","f","16.651925925926427","682","379","f","true","img/S_ambi40.png","三角","word_first",""
"","","","","","html-keyboard-response","230","1041136","0.0-13.0-1.0-1.0-0.0-1.10","null","<span style='color:GreenYellow; font-size: 70px;'>正确! </span>","null","","","","","","","","","","","","","","","","","","","","","","","feedback_test"
"","","","","","psychophysics","231","1043285","0.0-13.0-1.0-1.0-0.0-0.11","994","","f","","","","","","","","","","","","","key","f","16.6496614173227","682","379","f","true","img/T_ambi40.png","圆形","word_first",""
"","","","","","html-keyboard-response","232","1043596","0.0-13.0-1.0-1.0-0.0-1.11","null","<span style='color:GreenYellow; font-size: 70px;'>正确! </span>","null","","","","","","","","","","","","","","","","","","","","","","","feedback_test"
"","","","","","psychophysics","233","1045321","0.0-13.0-1.0-1.0-0.0-0.12","570","","j","","","","","","","","","","","","","key","j","16.815693069307024","682","379","f","false","img/T_ambi40.png","圆形","word_first",""
"","","","","","html-keyboard-response","234","1045633","0.0-13.0-1.0-1.0-0.0-1.12","null","<span style='color:red; font-size: 70px;'>错误! </span>","null","","","","","","","","","","","","","","","","","","","","","","","feedback_test"
"","","","","","psychophysics","235","1047571","0.0-13.0-1.0-1.0-0.0-0.13","787","","f","","","","","","","","","","","","","key","f","16.641095652174123","682","379","f","true","img/S_ambi40.png","三角","word_first",""
"","","","","","html-keyboard-response","236","1047881","0.0-13.0-1.0-1.0-0.0-1.13","null","<span style='color:GreenYellow; font-size: 70px;'>正确! </span>","null","","","","","","","","","","","","","","","","","","","","","","","feedback_test"
"","","","","","psychophysics","237","1049626","0.0-13.0-1.0-1.0-0.0-0.14","591","","j","","","","","","","","","","","","","key","j","16.809352941176506","682","379","j","true","img/S_ambi40.png","方形","word_first",""
"","","","","","html-keyboard-response","238","1049932","0.0-13.0-1.0-1.0-0.0-1.14","null","<span style='color:GreenYellow; font-size: 70px;'>正确! </span>","null","","","","","","","","","","","","","","","","","","","","","","","feedback_test"
"","","","","","psychophysics","239","1051668","0.0-13.0-1.0-1.0-0.0-0.15","584","","f","","","","","","","","","","","","","key","f","16.651715686275423","682","379","j","false","img/T_ambi40.png","三角","word_first",""
"","","","","","html-keyboard-response","240","1051984","0.0-13.0-1.0-1.0-0.0-1.15","null","<span style='color:red; font-size: 70px;'>错误! </span>","null","","","","","","","","","","","","","","","","","","","","","","","feedback_test"
"","","","","","psychophysics","241","1053631","0.0-13.0-1.0-1.0-0.0-0.16","495","","j","","","","","","","","","","","","","key","j","16.64988659793924","682","379","j","true","img/S_ambi40.png","方形","word_first",""
"","","","","","html-keyboard-response","242","1053946","0.0-13.0-1.0-1.0-0.0-1.16","null","<span style='color:GreenYellow; font-size: 70px;'>正确! </span>","null","","","","","","","","","","","","","","","","","","","","","","","feedback_test"
"","","","","","psychophysics","243","1055471","0.0-13.0-1.0-1.0-0.0-0.17","372","","j","","","","","","","","","","","","","key","j","16.650617977525787","682","379","f","false","img/C_ambi40.png","三角","word_first",""
"","","","","","html-keyboard-response","244","1055784","0.0-13.0-1.0-1.0-0.0-1.17","null","<span style='color:red; font-size: 70px;'>错误! </span>","null","","","","","","","","","","","","","","","","","","","","","","","feedback_test"
"","","","","","psychophysics","245","1057595","0.0-13.0-1.0-1.0-0.0-0.18","655","","f","","","","","","","","","","","","","key","f","16.651878504672254","682","379","f","true","img/C_ambi40.png","方形","word_first",""
"","","","","","html-keyboard-response","246","1057910","0.0-13.0-1.0-1.0-0.0-1.18","null","<span style='color:GreenYellow; font-size: 70px;'>正确! </span>","null","","","","","","","","","","","","","","","","","","","","","","","feedback_test"
"","","","","","psychophysics","247","1060026","0.0-13.0-1.0-1.0-0.0-0.19","964","","j","","","","","","","","","","","","","key","j","16.784508064515034","682","379","j","true","img/C_ambi40.png","圆形","word_first",""
"","","","","","html-keyboard-response","248","1060333","0.0-13.0-1.0-1.0-0.0-1.19","null","<span style='color:GreenYellow; font-size: 70px;'>正确! </span>","null","","","","","","","","","","","","","","","","","","","","","","","feedback_test"
"","","","","","psychophysics","249","1062076","0.0-13.0-1.0-1.0-0.0-0.20","588","","j","","","","","","","","","","","","","key","j","16.64669902912495","682","379","j","true","img/C_ambi40.png","圆形","word_first",""
"","","","","","html-keyboard-response","250","1062392","0.0-13.0-1.0-1.0-0.0-1.20","null","<span style='color:GreenYellow; font-size: 70px;'>正确! </span>","null","","","","","","","","","","","","","","","","","","","","","","","feedback_test"
"","","","","","psychophysics","251","1063941","0.0-13.0-1.0-1.0-0.0-0.21","397","","j","","","","","","","","","","","","","key","j","16.651666666665633","682","379","f","false","img/S_ambi40.png","圆形","word_first",""
"","","","","","html-keyboard-response","252","1064243","0.0-13.0-1.0-1.0-0.0-1.21","null","<span style='color:red; font-size: 70px;'>错误! </span>","null","","","","","","","","","","","","","","","","","","","","","","","feedback_test"
"","","","","","psychophysics","253","1066248","0.0-13.0-1.0-1.0-0.0-0.22","853","","f","","","","","","","","","","","","","key","f","16.650714285714756","682","379","f","true","img/T_ambi40.png","方形","word_first",""
"","","","","","html-keyboard-response","254","1066552","0.0-13.0-1.0-1.0-0.0-1.22","null","<span style='color:GreenYellow; font-size: 70px;'>正确! </span>","null","","","","","","","","","","","","","","","","","","","","","","","feedback_test"
"","","","","","psychophysics","255","1068312","0.0-13.0-1.0-1.0-0.0-0.23","604","","j","","","","","","","","","","","","","key","j","16.650769230768603","682","379","j","true","img/T_ambi40.png","三角","word_first",""
"","","","","","html-keyboard-response","256","1068630","0.0-13.0-1.0-1.0-0.0-1.23","null","<span style='color:GreenYellow; font-size: 70px;'>正确! </span>","null","","","","","","","","","","","","","","","","","","","","","","","feedback_test"
"","","","","","psychophysics","257","1070338","0.0-13.0-1.0-1.0-0.0-0.24","555","","j","","","","","","","","","","","","","key","j","16.65324752475135","682","379","j","true","img/C_ambi40.png","圆形","word_first",""
"","","","","","html-keyboard-response","258","1070640","0.0-13.0-1.0-1.0-0.0-1.24","null","<span style='color:GreenYellow; font-size: 70px;'>正确! </span>","null","","","","","","","","","","","","","","","","","","","","","","","feedback_test"
"","","","","","psychophysics","259","1072397","0.0-13.0-1.0-1.0-0.0-0.25","599","","j","","","","","","","","","","","","","key","j","16.653163461538497","682","379","j","true","img/T_ambi40.png","三角","word_first",""
"","","","","","html-keyboard-response","260","1072711","0.0-13.0-1.0-1.0-0.0-1.25","null","<span style='color:GreenYellow; font-size: 70px;'>正确! </span>","null","","","","","","","","","","","","","","","","","","","","","","","feedback_test"
"","","","","","psychophysics","261","1074644","0.0-13.0-1.0-1.0-0.0-0.26","779","","f","","","","","","","","","","","","","key","f","16.6503805309736","682","379","f","true","img/C_ambi40.png","方形","word_first",""
"","","","","","html-keyboard-response","262","1074960","0.0-13.0-1.0-1.0-0.0-1.26","null","<span style='color:GreenYellow; font-size: 70px;'>正确! </span>","null","","","","","","","","","","","","","","","","","","","","","","","feedback_test"
"","","","","","psychophysics","263","1076675","0.0-13.0-1.0-1.0-0.0-0.27","559","","j","","","","","","","","","","","","","key","j","16.652080000001007","682","379","f","false","img/C_ambi40.png","三角","word_first",""
"","","","","","html-keyboard-response","264","1076988","0.0-13.0-1.0-1.0-0.0-1.27","null","<span style='color:red; font-size: 70px;'>错误! </span>","null","","","","","","","","","","","","","","","","","","","","","","","feedback_test"
"","","","","","psychophysics","265","1079086","0.0-13.0-1.0-1.0-0.0-0.28","944","","f","","","","","","","","","","","","","key","f","16.65118548387076","682","379","f","true","img/S_ambi40.png","圆形","word_first",""
"","","","","","html-keyboard-response","266","1079395","0.0-13.0-1.0-1.0-0.0-1.28","null","<span style='color:GreenYellow; font-size: 70px;'>正确! </span>","null","","","","","","","","","","","","","","","","","","","","","","","feedback_test"
"","","","","","psychophysics","267","1081224","0.0-13.0-1.0-1.0-0.0-0.29","676","","j","","","","","","","","","","","","","key","j","16.65066666666556","682","379","j","true","img/S_ambi40.png","方形","word_first",""
"","","","","","html-keyboard-response","268","1081531","0.0-13.0-1.0-1.0-0.0-1.29","null","<span style='color:GreenYellow; font-size: 70px;'>正确! </span>","null","","","","","","","","","","","","","","","","","","","","","","","feedback_test"
"","","","","","psychophysics","269","1083354","0.0-13.0-1.0-1.0-0.0-0.30","667","","f","","","","","","","","","","","","","key","f","16.64821296296281","682","379","f","true","img/T_ambi40.png","方形","word_first",""
"","","","","","html-keyboard-response","270","1083666","0.0-13.0-1.0-1.0-0.0-1.30","null","<span style='color:GreenYellow; font-size: 70px;'>正确! </span>","null","","","","","","","","","","","","","","","","","","","","","","","feedback_test"
"","","","","","psychophysics","271","1085382","0.0-13.0-1.0-1.0-0.0-0.31","563","","j","","","","","","","","","","","","","key","j","16.816609999998473","682","379","f","false","img/S_ambi40.png","三角","word_first",""
"","","","","","html-keyboard-response","272","1085697","0.0-13.0-1.0-1.0-0.0-1.31","null","<span style='color:red; font-size: 70px;'>错误! </span>","null","","","","","","","","","","","","","","","","","","","","","","","feedback_test"
"","","","","","psychophysics","273","1087565","0.0-13.0-1.0-1.0-0.0-0.32","715","","j","","","","","","","","","","","","","key","j","16.649990909091535","682","379","j","true","img/C_ambi40.png","圆形","word_first",""
"","","","","","html-keyboard-response","274","1087877","0.0-13.0-1.0-1.0-0.0-1.32","null","<span style='color:GreenYellow; font-size: 70px;'>正确! </span>","null","","","","","","","","","","","","","","","","","","","","","","","feedback_test"
"","","","","","psychophysics","275","1089629","0.0-13.0-1.0-1.0-0.0-0.33","600","","j","","","","","","","","","","","","","key","j","16.650106796115473","682","379","j","true","img/T_ambi40.png","三角","word_first",""
"","","","","","html-keyboard-response","276","1089938","0.0-13.0-1.0-1.0-0.0-1.33","null","<span style='color:GreenYellow; font-size: 70px;'>正确! </span>","null","","","","","","","","","","","","","","","","","","","","","","","feedback_test"
"","","","","","psychophysics","277","1091679","0.0-13.0-1.0-1.0-0.0-0.34","588","","j","","","","","","","","","","","","","key","j","16.643456310678037","682","379","j","true","img/S_ambi40.png","方形","word_first",""
"","","","","","html-keyboard-response","278","1091995","0.0-13.0-1.0-1.0-0.0-1.34","null","<span style='color:GreenYellow; font-size: 70px;'>正确! </span>","null","","","","","","","","","","","","","","","","","","","","","","","feedback_test"
"","","","","","psychophysics","279","1093651","0.0-13.0-1.0-1.0-0.0-0.35","500","","f","","","","","","","","","","","","","key","f","16.65156122449101","682","379","f","true","img/T_ambi40.png","圆形","word_first",""
"","","","","","html-keyboard-response","280","1093959","0.0-13.0-1.0-1.0-0.0-1.35","null","<span style='color:GreenYellow; font-size: 70px;'>正确! </span>","null","","","","","","","","","","","","","","","","","","","","","","","feedback_test"
"","","","","","psychophysics","281","1096349","0.0-13.0-1.0-1.0-0.0-0.36","1238","","j","","","","","","","","","","","","","key","j","16.65149999999861","682","379","f","false","img/T_ambi40.png","方形","word_first",""
"","","","","","html-keyboard-response","282","1096663","0.0-13.0-1.0-1.0-0.0-1.36","null","<span style='color:red; font-size: 70px;'>错误! </span>","null","","","","","","","","","","","","","","","","","","","","","","","feedback_test"
"","","","","","psychophysics","283","1098341","0.0-13.0-1.0-1.0-0.0-0.37","526","","j","","","","","","","","","","","","","key","j","16.651704081631152","682","379","j","true","img/C_ambi40.png","圆形","word_first",""
"","","","","","html-keyboard-response","284","1098655","0.0-13.0-1.0-1.0-0.0-1.37","null","<span style='color:GreenYellow; font-size: 70px;'>正确! </span>","null","","","","","","","","","","","","","","","","","","","","","","","feedback_test"
"","","","","","psychophysics","285","1100537","0.0-13.0-1.0-1.0-0.0-0.38","725","","f","","","","","","","","","","","","","key","f","16.65111607142691","682","379","f","true","img/C_ambi40.png","方形","word_first",""
"","","","","","html-keyboard-response","286","1100840","0.0-13.0-1.0-1.0-0.0-1.38","null","<span style='color:GreenYellow; font-size: 70px;'>正确! </span>","null","","","","","","","","","","","","","","","","","","","","","","","feedback_test"
"","","","","","psychophysics","287","1102787","0.0-13.0-1.0-1.0-0.0-0.39","792","","f","","","","","","","","","","","","","key","f","16.65074561403558","682","379","j","false","img/S_ambi40.png","方形","word_first",""
"","","","","","html-keyboard-response","288","1103103","0.0-13.0-1.0-1.0-0.0-1.39","null","<span style='color:red; font-size: 70px;'>错误! </span>","null","","","","","","","","","","","","","","","","","","","","","","","feedback_test"
"","","","","","psychophysics","289","1104801","0.0-13.0-1.0-1.0-0.0-0.40","524","","j","","","","","","","","","","","","","key","j","16.818724489796963","682","379","f","false","img/C_ambi40.png","三角","word_first",""
"","","","","","html-keyboard-response","290","1105116","0.0-13.0-1.0-1.0-0.0-1.40","null","<span style='color:red; font-size: 70px;'>错误! </span>","null","","","","","","","","","","","","","","","","","","","","","","","feedback_test"
"","","","","","psychophysics","291","1106787","0.0-13.0-1.0-1.0-0.0-0.41","518","","j","","","","","","","","","","","","","key","j","16.649397959184302","682","379","j","true","img/S_ambi40.png","方形","word_first",""
"","","","","","html-keyboard-response","292","1107094","0.0-13.0-1.0-1.0-0.0-1.41","null","<span style='color:GreenYellow; font-size: 70px;'>正确! </span>","null","","","","","","","","","","","","","","","","","","","","","","","feedback_test"
"","","","","","psychophysics","293","1108877","0.0-13.0-1.0-1.0-0.0-0.42","631","","j","","","","","","","","","","","","","key","j","16.64985576923041","682","379","j","true","img/T_ambi40.png","三角","word_first",""
"","","","","","html-keyboard-response","294","1109183","0.0-13.0-1.0-1.0-0.0-1.42","null","<span style='color:GreenYellow; font-size: 70px;'>正确! </span>","null","","","","","","","","","","","","","","","","","","","","","","","feedback_test"
"","","","","","psychophysics","295","1110782","0.0-13.0-1.0-1.0-0.0-0.43","444","","j","","","","","","","","","","","","","key","j","16.651499999999167","682","379","j","true","img/T_ambi40.png","三角","word_first",""
"","","","","","html-keyboard-response","296","1111085","0.0-13.0-1.0-1.0-0.0-1.43","null","<span style='color:GreenYellow; font-size: 70px;'>正确! </span>","null","","","","","","","","","","","","","","","","","","","","","","","feedback_test"
"","","","","","psychophysics","297","1112729","0.0-13.0-1.0-1.0-0.0-0.44","487","","f","","","","","","","","","","","","","key","f","16.65133333333506","682","379","f","true","img/S_ambi40.png","圆形","word_first",""
"","","","","","html-keyboard-response","298","1113041","0.0-13.0-1.0-1.0-0.0-1.44","null","<span style='color:GreenYellow; font-size: 70px;'>正确! </span>","null","","","","","","","","","","","","","","","","","","","","","","","feedback_test"
"","","","","","psychophysics","299","1114705","0.0-13.0-1.0-1.0-0.0-0.45","507","","j","","","","","","","","","","","","","key","j","16.64970408163119","682","379","j","true","img/C_ambi40.png","圆形","word_first",""
"","","","","","html-keyboard-response","300","1115017","0.0-13.0-1.0-1.0-0.0-1.45","null","<span style='color:GreenYellow; font-size: 70px;'>正确! </span>","null","","","","","","","","","","","","","","","","","","","","","","","feedback_test"
"","","","","","psychophysics","301","1116789","0.0-13.0-1.0-1.0-0.0-0.46","620","","f","","","","","","","","","","","","","key","f","16.650961904762134","682","379","f","true","img/S_ambi40.png","三角","word_first",""
"","","","","","html-keyboard-response","302","1117097","0.0-13.0-1.0-1.0-0.0-1.46","null","<span style='color:GreenYellow; font-size: 70px;'>正确! </span>","null","","","","","","","","","","","","","","","","","","","","","","","feedback_test"
"","","","","","psychophysics","303","1118991","0.0-13.0-1.0-1.0-0.0-0.47","741","","f","","","","","","","","","","","","","key","f","16.64902678571525","682","379","f","true","img/T_ambi40.png","圆形","word_first",""
"","","","","","html-keyboard-response","304","1119301","0.0-13.0-1.0-1.0-0.0-1.47","null","<span style='color:GreenYellow; font-size: 70px;'>正确! </span>","null","","","","","","","","","","","","","","","","","","","","","","","feedback_test"
"","","","","","psychophysics","305","1121046","0.0-13.0-1.0-1.0-0.0-0.48","593","","j","","","","","","","","","","","","","key","j","16.65011650485267","682","379","j","true","img/S_ambi40.png","方形","word_first",""
"","","","","","html-keyboard-response","306","1121350","0.0-13.0-1.0-1.0-0.0-1.48","null","<span style='color:GreenYellow; font-size: 70px;'>正确! </span>","null","","","","","","","","","","","","","","","","","","","","","","","feedback_test"
"","","","","","psychophysics","307","1123204","0.0-13.0-1.0-1.0-0.0-0.49","699","","f","","","","","","","","","","","","","key","f","16.650440366972887","682","379","f","true","img/T_ambi40.png","圆形","word_first",""
"","","","","","html-keyboard-response","308","1123511","0.0-13.0-1.0-1.0-0.0-1.49","null","<span style='color:GreenYellow; font-size: 70px;'>正确! </span>","null","","","","","","","","","","","","","","","","","","","","","","","feedback_test"
"","","","","","psychophysics","309","1125262","0.0-13.0-1.0-1.0-0.0-0.50","598","","j","","","","","","","","","","","","","key","j","16.650300970872937","682","379","f","false","img/C_ambi40.png","方形","word_first",""
"","","","","","html-keyboard-response","310","1125579","0.0-13.0-1.0-1.0-0.0-1.50","null","<span style='color:red; font-size: 70px;'>错误! </span>","null","","","","","","","","","","","","","","","","","","","","","","","feedback_test"
"","","","","","psychophysics","311","1127280","0.0-13.0-1.0-1.0-0.0-0.51","549","","j","","","","","","","","","","","","","key","j","16.6491100000008","682","379","j","true","img/S_ambi40.png","方形","word_first",""
"","","","","","html-keyboard-response","312","1127588","0.0-13.0-1.0-1.0-0.0-1.51","null","<span style='color:GreenYellow; font-size: 70px;'>正确! </span>","null","","","","","","","","","","","","","","","","","","","","","","","feedback_test"
"","","","","","psychophysics","313","1129292","0.0-13.0-1.0-1.0-0.0-0.52","552","","j","","","","","","","","","","","","","key","j","16.64820792079018","682","379","j","true","img/C_ambi40.png","圆形","word_first",""
"","","","","","html-keyboard-response","314","1129607","0.0-13.0-1.0-1.0-0.0-1.52","null","<span style='color:GreenYellow; font-size: 70px;'>正确! </span>","null","","","","","","","","","","","","","","","","","","","","","","","feedback_test"
"","","","","","psychophysics","315","1131386","0.0-13.0-1.0-1.0-0.0-0.53","626","","j","","","","","","","","","","","","","key","j","16.810884615386247","682","379","j","true","img/T_ambi40.png","三角","word_first",""
"","","","","","html-keyboard-response","316","1131700","0.0-13.0-1.0-1.0-0.0-1.53","null","<span style='color:GreenYellow; font-size: 70px;'>正确! </span>","null","","","","","","","","","","","","","","","","","","","","","","","feedback_test"
"","","","","","psychophysics","317","1133468","0.0-13.0-1.0-1.0-0.0-0.54","614","","f","","","","","","","","","","","","","key","f","16.649533333332233","682","379","f","true","img/S_ambi40.png","三角","word_first",""
"","","","","","html-keyboard-response","318","1133776","0.0-13.0-1.0-1.0-0.0-1.54","null","<span style='color:GreenYellow; font-size: 70px;'>正确! </span>","null","","","","","","","","","","","","","","","","","","","","","","","feedback_test"
"","","","","","psychophysics","319","1135430","0.0-13.0-1.0-1.0-0.0-0.55","501","","j","","","","","","","","","","","","","key","j","16.64790816326407","682","379","j","true","img/C_ambi40.png","圆形","word_first",""
"","","","","","html-keyboard-response","320","1135744","0.0-13.0-1.0-1.0-0.0-1.55","null","<span style='color:GreenYellow; font-size: 70px;'>正确! </span>","null","","","","","","","","","","","","","","","","","","","","","","","feedback_test"
"","","","","","psychophysics","321","1137316","0.0-13.0-1.0-1.0-0.0-0.56","419","","j","","","","","","","","","","","","","key","j","16.651173913044065","682","379","f","false","img/S_ambi40.png","圆形","word_first",""
"","","","","","html-keyboard-response","322","1137624","0.0-13.0-1.0-1.0-0.0-1.56","null","<span style='color:red; font-size: 70px;'>错误! </span>","null","","","","","","","","","","","","","","","","","","","","","","","feedback_test"
"","","","","","psychophysics","323","1139615","0.0-13.0-1.0-1.0-0.0-0.57","838","","f","","","","","","","","","","","","","key","f","16.647584745763027","682","379","f","true","img/C_ambi40.png","三角","word_first",""
"","","","","","html-keyboard-response","324","1139927","0.0-13.0-1.0-1.0-0.0-1.57","null","<span style='color:GreenYellow; font-size: 70px;'>正确! </span>","null","","","","","","","","","","","","","","","","","","","","","","","feedback_test"
"","","","","","psychophysics","325","1141799","0.0-13.0-1.0-1.0-0.0-0.58","719","","f","","","","","","","","","","","","","key","f","16.6504770642202","682","379","f","true","img/T_ambi40.png","方形","word_first",""
"","","","","","html-keyboard-response","326","1142114","0.0-13.0-1.0-1.0-0.0-1.58","null","<span style='color:GreenYellow; font-size: 70px;'>正确! </span>","null","","","","","","","","","","","","","","","","","","","","","","","feedback_test"
"","","","","","psychophysics","327","1143788","0.0-13.0-1.0-1.0-0.0-0.59","521","","j","","","","","","","","","","","","","key","j","16.826040816327026","682","379","j","true","img/T_ambi40.png","三角","word_first",""
"","","","","","html-keyboard-response","328","1144095","0.0-13.0-1.0-1.0-0.0-1.59","null","<span style='color:GreenYellow; font-size: 70px;'>正确! </span>","null","","","","","","","","","","","","","","","","","","","","","","","feedback_test"
"","","","","","html-keyboard-response","329","1148749","0.0-13.0-1.0-1.0-1.0","4650","<style>.context{color:white; font-size: 35px; line-height:40px}</style>                            <div><p class='context'>您正确回答了78% 的试次。</p><p class='context'>您的平均反应时为655毫秒。</p><p class='context'>请按任意键进入休息</p></div>","k","","","","","","","","","","","","","","","","","","","","","","",""
"","","","","","html-button-response","330","1433674","0.0-13.0-1.0-1.0-2.0","284917","
                    <p>您当前还剩余3组实验</p>
                    <p>现在是休息时间，当您结束休息后，您可以点击 结束休息 按钮 继续</p>
                    <p>建议休息时间还剩余<span id=""iii"">60</span>秒</p>","0","","","","","","","","","","","","","","","","","","","","","","",""
"","","","","","psychophysics","331","1435653","0.0-13.0-1.0-1.0-0.1-0.60","826","","j","","","","","","","","","","","","","key","j","16.651627118644004","682","379","j","true","img/C_ambi40.png","圆形","word_first",""
"","","","","","html-keyboard-response","332","1435958","0.0-13.0-1.0-1.0-0.1-1.60","null","<span style='color:GreenYellow; font-size: 70px;'>正确! </span>","null","","","","","","","","","","","","","","","","","","","","","","","feedback_test"
"","","","","","psychophysics","333","1437878","0.0-13.0-1.0-1.0-0.1-0.61","764","","f","","","","","","","","","","","","","key","f","16.650840707966005","682","379","f","true","img/C_ambi40.png","方形","word_first",""
"","","","","","html-keyboard-response","334","1438183","0.0-13.0-1.0-1.0-0.1-1.61","null","<span style='color:GreenYellow; font-size: 70px;'>正确! </span>","null","","","","","","","","","","","","","","","","","","","","","","","feedback_test"
"","","","","","psychophysics","335","1440836","0.0-13.0-1.0-1.0-0.1-0.62","null","","null","","","","","","","","","","","","","key","null","NaN","682","379","f","false","img/T_ambi40.png","圆形","word_first",""
"","","","","","html-keyboard-response","336","1441138","0.0-13.0-1.0-1.0-0.1-1.62","null","<span class='add_' style='color:yellow; font-size: 70px;'> 太慢! </span>","null","","","","","","","","","","","","","","","","","","","","","","","feedback_test"
"","","","","","psychophysics","337","1443769","0.0-13.0-1.0-1.0-0.1-0.63","1480","","f","","","","","","","","","","","","","key","f","16.650890625000102","682","379","f","true","img/S_ambi40.png","圆形","word_first",""
"","","","","","html-keyboard-response","338","1444073","0.0-13.0-1.0-1.0-0.1-1.63","null","<span style='color:GreenYellow; font-size: 70px;'>正确! </span>","null","","","","","","","","","","","","","","","","","","","","","","","feedback_test"
"","","","","","psychophysics","339","1445798","0.0-13.0-1.0-1.0-0.1-0.64","572","","j","","","","","","","","","","","","","key","j","16.65050000000024","682","379","j","true","img/S_ambi40.png","方形","word_first",""
"","","","","","html-keyboard-response","340","1446111","0.0-13.0-1.0-1.0-0.1-1.64","null","<span style='color:GreenYellow; font-size: 70px;'>正确! </span>","null","","","","","","","","","","","","","","","","","","","","","","","feedback_test"
"","","","","","psychophysics","341","1447883","0.0-13.0-1.0-1.0-0.1-0.65","619","","j","","","","","","","","","","","","","key","j","16.649428571430256","682","379","j","true","img/T_ambi40.png","三角","word_first",""
"","","","","","html-keyboard-response","342","1448193","0.0-13.0-1.0-1.0-0.1-1.65","null","<span style='color:GreenYellow; font-size: 70px;'>正确! </span>","null","","","","","","","","","","","","","","","","","","","","","","","feedback_test"
"","","","","","psychophysics","343","1449960","0.0-13.0-1.0-1.0-0.1-0.66","614","","f","","","","","","","","","","","","","key","f","16.651533333334097","682","379","f","true","img/S_ambi40.png","三角","word_first",""
"","","","","","html-keyboard-response","344","1450276","0.0-13.0-1.0-1.0-0.1-1.66","null","<span style='color:GreenYellow; font-size: 70px;'>正确! </span>","null","","","","","","","","","","","","","","","","","","","","","","","feedback_test"
"","","","","","psychophysics","345","1452051","0.0-13.0-1.0-1.0-0.1-0.67","624","","j","","","","","","","","","","","","","key","j","16.650914285713363","682","379","j","true","img/T_ambi40.png","三角","word_first",""
"","","","","","html-keyboard-response","346","1452356","0.0-13.0-1.0-1.0-0.1-1.67","null","<span style='color:GreenYellow; font-size: 70px;'>正确! </span>","null","","","","","","","","","","","","","","","","","","","","","","","feedback_test"
"","","","","","psychophysics","347","1454222","0.0-13.0-1.0-1.0-0.1-0.68","712","","f","","","","","","","","","","","","","key","f","16.65118181818292","682","379","f","true","img/T_ambi40.png","方形","word_first",""
"","","","","","html-keyboard-response","348","1454527","0.0-13.0-1.0-1.0-0.1-1.68","null","<span style='color:GreenYellow; font-size: 70px;'>正确! </span>","null","","","","","","","","","","","","","","","","","","","","","","","feedback_test"
"","","","","","psychophysics","349","1457181","0.0-13.0-1.0-1.0-0.1-0.69","null","","null","","","","","","","","","","","","","key","null","16.652848484848317","682","379","j","false","img/C_ambi40.png","圆形","word_first",""
"","","","","","html-keyboard-response","350","1457496","0.0-13.0-1.0-1.0-0.1-1.69","null","<span class='add_' style='color:yellow; font-size: 70px;'> 太慢! </span>","null","","","","","","","","","","","","","","","","","","","","","","","feedback_test"
"","","","","","psychophysics","351","1459267","0.0-13.0-1.0-1.0-0.1-0.70","617","","j","","","","","","","","","","","","","key","j","16.651203883495363","682","379","j","true","img/S_ambi40.png","方形","word_first",""
"","","","","","html-keyboard-response","352","1459575","0.0-13.0-1.0-1.0-0.1-1.70","null","<span style='color:GreenYellow; font-size: 70px;'>正确! </span>","null","","","","","","","","","","","","","","","","","","","","","","","feedback_test"
"","","","","","psychophysics","353","1461243","0.0-13.0-1.0-1.0-0.1-0.71","515","","f","","","","","","","","","","","","","key","f","16.647474747473336","682","379","f","true","img/C_ambi40.png","三角","word_first",""
"","","","","","html-keyboard-response","354","1461547","0.0-13.0-1.0-1.0-0.1-1.71","null","<span style='color:GreenYellow; font-size: 70px;'>正确! </span>","null","","","","","","","","","","","","","","","","","","","","","","","feedback_test"
"","","","","","psychophysics","355","1463229","0.0-13.0-1.0-1.0-0.1-0.72","529","","j","","","","","","","","","","","","","key","j","16.64812000000151","682","379","j","true","img/S_ambi40.png","方形","word_first",""
"","","","","","html-keyboard-response","356","1463532","0.0-13.0-1.0-1.0-0.1-1.72","null","<span style='color:GreenYellow; font-size: 70px;'>正确! </span>","null","","","","","","","","","","","","","","","","","","","","","","","feedback_test"
"","","","","","psychophysics","357","1465279","0.0-13.0-1.0-1.0-0.1-0.73","594","","j","","","","","","","","","","","","","key","j","16.64909803921439","682","379","j","true","img/C_ambi40.png","圆形","word_first",""
"","","","","","html-keyboard-response","358","1465586","0.0-13.0-1.0-1.0-0.1-1.73","null","<span style='color:GreenYellow; font-size: 70px;'>正确! </span>","null","","","","","","","","","","","","","","","","","","","","","","","feedback_test"
"","","","","","psychophysics","359","1467276","0.0-13.0-1.0-1.0-0.1-0.74","536","","f","","","","","","","","","","","","","key","f","16.64783000000054","682","379","f","true","img/C_ambi40.png","方形","word_first",""
"","","","","","html-keyboard-response","360","1467583","0.0-13.0-1.0-1.0-0.1-1.74","null","<span style='color:GreenYellow; font-size: 70px;'>正确! </span>","null","","","","","","","","","","","","","","","","","","","","","","","feedback_test"
"","","","","","psychophysics","361","1469439","0.0-13.0-1.0-1.0-0.1-0.75","701","","f","","","","","","","","","","","","","key","f","16.651467889908343","682","379","f","true","img/T_ambi40.png","方形","word_first",""
"","","","","","html-keyboard-response","362","1469748","0.0-13.0-1.0-1.0-0.1-1.75","null","<span style='color:GreenYellow; font-size: 70px;'>正确! </span>","null","","","","","","","","","","","","","","","","","","","","","","","feedback_test"
"","","","","","psychophysics","363","1471750","0.0-13.0-1.0-1.0-0.1-0.76","850","","f","","","","","","","","","","","","","key","f","16.650703389830966","682","379","f","true","img/S_ambi40.png","三角","word_first",""
"","","","","","html-keyboard-response","364","1472062","0.0-13.0-1.0-1.0-0.1-1.76","null","<span style='color:GreenYellow; font-size: 70px;'>正确! </span>","null","","","","","","","","","","","","","","","","","","","","","","","feedback_test"
"","","","","","psychophysics","365","1473682","0.0-13.0-1.0-1.0-0.1-0.77","468","","j","","","","","","","","","","","","","key","j","16.651312499998312","682","379","j","true","img/T_ambi40.png","三角","word_first",""
"","","","","","html-keyboard-response","366","1473998","0.0-13.0-1.0-1.0-0.1-1.77","null","<span style='color:GreenYellow; font-size: 70px;'>正确! </span>","null","","","","","","","","","","","","","","","","","","","","","","","feedback_test"
"","","","","","psychophysics","367","1475816","0.0-13.0-1.0-1.0-0.1-0.78","667","","f","","","","","","","","","","","","","key","f","16.64708333333342","682","379","f","true","img/T_ambi40.png","圆形","word_first",""
"","","","","","html-keyboard-response","368","1476129","0.0-13.0-1.0-1.0-0.1-1.78","null","<span style='color:GreenYellow; font-size: 70px;'>正确! </span>","null","","","","","","","","","","","","","","","","","","","","","","","feedback_test"
"","","","","","psychophysics","369","1477779","0.0-13.0-1.0-1.0-0.1-0.79","497","","j","","","","","","","","","","","","","key","j","16.650520408162564","682","379","j","true","img/C_ambi40.png","圆形","word_first",""
"","","","","","html-keyboard-response","370","1478096","0.0-13.0-1.0-1.0-0.1-1.79","null","<span style='color:GreenYellow; font-size: 70px;'>正确! </span>","null","","","","","","","","","","","","","","","","","","","","","","","feedback_test"
"","","","","","psychophysics","371","1479748","0.0-13.0-1.0-1.0-0.1-0.80","501","","j","","","","","","","","","","","","","key","j","16.650268041238323","682","379","j","true","img/T_ambi40.png","三角","word_first",""
"","","","","","html-keyboard-response","372","1480063","0.0-13.0-1.0-1.0-0.1-1.80","null","<span style='color:GreenYellow; font-size: 70px;'>正确! </span>","null","","","","","","","","","","","","","","","","","","","","","","","feedback_test"
"","","","","","psychophysics","373","1481812","0.0-13.0-1.0-1.0-0.1-0.81","597","","f","","","","","","","","","","","","","key","f","16.651221153847963","682","379","f","true","img/C_ambi40.png","三角","word_first",""
"","","","","","html-keyboard-response","374","1482117","0.0-13.0-1.0-1.0-0.1-1.81","null","<span style='color:GreenYellow; font-size: 70px;'>正确! </span>","null","","","","","","","","","","","","","","","","","","","","","","","feedback_test"
"","","","","","psychophysics","375","1483814","0.0-13.0-1.0-1.0-0.1-0.82","544","","j","","","","","","","","","","","","","key","j","16.651489999999757","682","379","j","true","img/S_ambi40.png","方形","word_first",""
"","","","","","html-keyboard-response","376","1484128","0.0-13.0-1.0-1.0-0.1-1.82","null","<span style='color:GreenYellow; font-size: 70px;'>正确! </span>","null","","","","","","","","","","","","","","","","","","","","","","","feedback_test"
"","","","","","psychophysics","377","1485999","0.0-13.0-1.0-1.0-0.1-0.83","716","","j","","","","","","","","","","","","","key","j","16.65045454545497","682","379","f","false","img/S_ambi40.png","圆形","word_first",""
"","","","","","html-keyboard-response","378","1486307","0.0-13.0-1.0-1.0-0.1-1.83","null","<span style='color:red; font-size: 70px;'>错误! </span>","null","","","","","","","","","","","","","","","","","","","","","","","feedback_test"
"","","","","","psychophysics","379","1488252","0.0-13.0-1.0-1.0-0.1-0.84","793","","f","","","","","","","","","","","","","key","f","16.650215517239772","682","379","f","true","img/C_ambi40.png","三角","word_first",""
"","","","","","html-keyboard-response","380","1488556","0.0-13.0-1.0-1.0-0.1-1.84","null","<span style='color:GreenYellow; font-size: 70px;'>正确! </span>","null","","","","","","","","","","","","","","","","","","","","","","","feedback_test"
"","","","","","psychophysics","381","1490314","0.0-13.0-1.0-1.0-0.1-0.85","606","","j","","","","","","","","","","","","","key","j","16.650153846153096","682","379","j","true","img/S_ambi40.png","方形","word_first",""
"","","","","","html-keyboard-response","382","1490627","0.0-13.0-1.0-1.0-0.1-1.85","null","<span style='color:GreenYellow; font-size: 70px;'>正确! </span>","null","","","","","","","","","","","","","","","","","","","","","","","feedback_test"
"","","","","","psychophysics","383","1492402","0.0-13.0-1.0-1.0-0.1-0.86","623","","f","","","","","","","","","","","","","key","f","16.651538461536312","682","379","f","true","img/C_ambi40.png","方形","word_first",""
"","","","","","html-keyboard-response","384","1492708","0.0-13.0-1.0-1.0-0.1-1.86","null","<span style='color:GreenYellow; font-size: 70px;'>正确! </span>","null","","","","","","","","","","","","","","","","","","","","","","","feedback_test"
"","","","","","psychophysics","385","1494457","0.0-13.0-1.0-1.0-0.1-0.87","594","","j","","","","","","","","","","","","","key","j","16.64939805825277","682","379","j","true","img/C_ambi40.png","圆形","word_first",""
"","","","","","html-keyboard-response","386","1494773","0.0-13.0-1.0-1.0-0.1-1.87","null","<span style='color:GreenYellow; font-size: 70px;'>正确! </span>","null","","","","","","","","","","","","","","","","","","","","","","","feedback_test"
"","","","","","psychophysics","387","1496433","0.0-13.0-1.0-1.0-0.1-0.88","507","","j","","","","","","","","","","","","","key","j","16.64980412371092","682","379","j","true","img/T_ambi40.png","三角","word_first",""
"","","","","","html-keyboard-response","388","1496744","0.0-13.0-1.0-1.0-0.1-1.88","null","<span style='color:GreenYellow; font-size: 70px;'>正确! </span>","null","","","","","","","","","","","","","","","","","","","","","","","feedback_test"
"","","","","","psychophysics","389","1498347","0.0-13.0-1.0-1.0-0.1-0.89","451","","j","","","","","","","","","","","","","key","j","16.648294736841986","682","379","j","true","img/T_ambi40.png","三角","word_first",""
"","","","","","html-keyboard-response","390","1498663","0.0-13.0-1.0-1.0-0.1-1.89","null","<span style='color:GreenYellow; font-size: 70px;'>正确! </span>","null","","","","","","","","","","","","","","","","","","","","","","","feedback_test"
"","","","","","psychophysics","391","1500394","0.0-13.0-1.0-1.0-0.1-0.90","579","","f","","","","","","","","","","","","","key","f","16.650378640777276","682","379","f","true","img/S_ambi40.png","三角","word_first",""
"","","","","","html-keyboard-response","392","1500704","0.0-13.0-1.0-1.0-0.1-1.90","null","<span style='color:GreenYellow; font-size: 70px;'>正确! </span>","null","","","","","","","","","","","","","","","","","","","","","","","feedback_test"
"","","","","","psychophysics","393","1502408","0.0-13.0-1.0-1.0-0.1-0.91","550","","j","","","","","","","","","","","","","key","j","16.646564356436365","682","379","j","true","img/S_ambi40.png","方形","word_first",""
"","","","","","html-keyboard-response","394","1502725","0.0-13.0-1.0-1.0-0.1-1.91","null","<span style='color:GreenYellow; font-size: 70px;'>正确! </span>","null","","","","","","","","","","","","","","","","","","","","","","","feedback_test"
"","","","","","psychophysics","395","1504392","0.0-13.0-1.0-1.0-0.1-0.92","511","","j","","","","","","","","","","","","","key","j","16.65058163265289","682","379","j","true","img/C_ambi40.png","圆形","word_first",""
"","","","","","html-keyboard-response","396","1504714","0.0-13.0-1.0-1.0-0.1-1.92","null","<span style='color:GreenYellow; font-size: 70px;'>正确! </span>","null","","","","","","","","","","","","","","","","","","","","","","","feedback_test"
"","","","","","psychophysics","397","1506550","0.0-13.0-1.0-1.0-0.1-0.93","684","","f","","","","","","","","","","","","","key","f","16.65085185185092","682","379","f","true","img/T_ambi40.png","圆形","word_first",""
"","","","","","html-keyboard-response","398","1506856","0.0-13.0-1.0-1.0-0.1-1.93","null","<span style='color:GreenYellow; font-size: 70px;'>正确! </span>","null","","","","","","","","","","","","","","","","","","","","","","","feedback_test"
"","","","","","psychophysics","399","1508802","0.0-13.0-1.0-1.0-0.1-0.94","794","","f","","","","","","","","","","","","","key","f","16.65063478260949","682","379","f","true","img/S_ambi40.png","圆形","word_first",""
"","","","","","html-keyboard-response","400","1509113","0.0-13.0-1.0-1.0-0.1-1.94","null","<span style='color:GreenYellow; font-size: 70px;'>正确! </span>","null","","","","","","","","","","","","","","","","","","","","","","","feedback_test"
"","","","","","psychophysics","401","1510869","0.0-13.0-1.0-1.0-0.1-0.95","603","","j","","","","","","","","","","","","","key","j","16.648644230769534","682","379","f","false","img/T_ambi40.png","方形","word_first",""
"","","","","","html-keyboard-response","402","1511183","0.0-13.0-1.0-1.0-0.1-1.95","null","<span style='color:red; font-size: 70px;'>错误! </span>","null","","","","","","","","","","","","","","","","","","","","","","","feedback_test"
"","","","","","psychophysics","403","1512959","0.0-13.0-1.0-1.0-0.1-0.96","624","","f","","","","","","","","","","","","","key","f","16.651132075471875","682","379","f","true","img/S_ambi40.png","三角","word_first",""
"","","","","","html-keyboard-response","404","1513273","0.0-13.0-1.0-1.0-0.1-1.96","null","<span style='color:GreenYellow; font-size: 70px;'>正确! </span>","null","","","","","","","","","","","","","","","","","","","","","","","feedback_test"
"","","","","","psychophysics","405","1514986","0.0-13.0-1.0-1.0-0.1-0.97","560","","j","","","","","","","","","","","","","key","j","16.651400000001303","682","379","j","true","img/C_ambi40.png","圆形","word_first",""
"","","","","","html-keyboard-response","406","1515303","0.0-13.0-1.0-1.0-0.1-1.97","null","<span style='color:GreenYellow; font-size: 70px;'>正确! </span>","null","","","","","","","","","","","","","","","","","","","","","","","feedback_test"
"","","","","","psychophysics","407","1517196","0.0-13.0-1.0-1.0-0.1-0.98","741","","f","","","","","","","","","","","","","key","f","16.651873873873942","682","379","f","true","img/S_ambi40.png","圆形","word_first",""
"","","","","","html-keyboard-response","408","1517505","0.0-13.0-1.0-1.0-0.1-1.98","null","<span style='color:GreenYellow; font-size: 70px;'>正确! </span>","null","","","","","","","","","","","","","","","","","","","","","","","feedback_test"
"","","","","","psychophysics","409","1519195","0.0-13.0-1.0-1.0-0.1-0.99","537","","j","","","","","","","","","","","","","key","j","16.651129999998957","682","379","j","true","img/S_ambi40.png","方形","word_first",""
"","","","","","html-keyboard-response","410","1519511","0.0-13.0-1.0-1.0-0.1-1.99","null","<span style='color:GreenYellow; font-size: 70px;'>正确! </span>","null","","","","","","","","","","","","","","","","","","","","","","","feedback_test"
"","","","","","psychophysics","411","1521439","0.0-13.0-1.0-1.0-0.1-0.100","776","","f","","","","","","","","","","","","","key","f","16.651315789473685","682","379","j","false","img/C_ambi40.png","圆形","word_first",""
"","","","","","html-keyboard-response","412","1521755","0.0-13.0-1.0-1.0-0.1-1.100","null","<span style='color:red; font-size: 70px;'>错误! </span>","null","","","","","","","","","","","","","","","","","","","","","","","feedback_test"
"","","","","","psychophysics","413","1523422","0.0-13.0-1.0-1.0-0.1-0.101","515","","j","","","","","","","","","","","","","key","j","16.65072727272748","682","379","j","true","img/S_ambi40.png","方形","word_first",""
"","","","","","html-keyboard-response","414","1523737","0.0-13.0-1.0-1.0-0.1-1.101","null","<span style='color:GreenYellow; font-size: 70px;'>正确! </span>","null","","","","","","","","","","","","","","","","","","","","","","","feedback_test"
"","","","","","psychophysics","415","1525448","0.0-13.0-1.0-1.0-0.1-0.102","558","","j","","","","","","","","","","","","","key","j","16.98631313131097","682","379","j","true","img/T_ambi40.png","三角","word_first",""
"","","","","","html-keyboard-response","416","1525750","0.0-13.0-1.0-1.0-0.1-1.102","null","<span style='color:GreenYellow; font-size: 70px;'>正确! </span>","null","","","","","","","","","","","","","","","","","","","","","","","feedback_test"
"","","","","","psychophysics","417","1527416","0.0-13.0-1.0-1.0-0.1-0.103","511","","j","","","","","","","","","","","","","key","j","16.822783505155215","682","379","j","true","img/T_ambi40.png","三角","word_first",""
"","","","","","html-keyboard-response","418","1527729","0.0-13.0-1.0-1.0-0.1-1.103","null","<span style='color:GreenYellow; font-size: 70px;'>正确! </span>","null","","","","","","","","","","","","","","","","","","","","","","","feedback_test"
"","","","","","psychophysics","419","1529445","0.0-13.0-1.0-1.0-0.1-0.104","563","","f","","","","","","","","","","","","","key","f","16.65160784313647","682","379","f","true","img/T_ambi40.png","圆形","word_first",""
"","","","","","html-keyboard-response","420","1529753","0.0-13.0-1.0-1.0-0.1-1.104","null","<span style='color:GreenYellow; font-size: 70px;'>正确! </span>","null","","","","","","","","","","","","","","","","","","","","","","","feedback_test"
"","","","","","psychophysics","421","1531547","0.0-13.0-1.0-1.0-0.1-0.105","641","","f","","","","","","","","","","","","","key","f","16.651190476190475","682","379","f","true","img/C_ambi40.png","方形","word_first",""
"","","","","","html-keyboard-response","422","1531853","0.0-13.0-1.0-1.0-0.1-1.105","null","<span style='color:GreenYellow; font-size: 70px;'>正确! </span>","null","","","","","","","","","","","","","","","","","","","","","","","feedback_test"
"","","","","","psychophysics","423","1533647","0.0-13.0-1.0-1.0-0.1-0.106","640","","f","","","","","","","","","","","","","key","f","16.64664150943391","682","379","f","true","img/C_ambi40.png","三角","word_first",""
"","","","","","html-keyboard-response","424","1533964","0.0-13.0-1.0-1.0-0.1-1.106","null","<span style='color:GreenYellow; font-size: 70px;'>正确! </span>","null","","","","","","","","","","","","","","","","","","","","","","","feedback_test"
"","","","","","psychophysics","425","1535811","0.0-13.0-1.0-1.0-0.1-0.107","694","","f","","","","","","","","","","","","","key","f","16.650981481482397","682","379","f","true","img/T_ambi40.png","方形","word_first",""
"","","","","","html-keyboard-response","426","1536115","0.0-13.0-1.0-1.0-0.1-1.107","null","<span style='color:GreenYellow; font-size: 70px;'>正确! </span>","null","","","","","","","","","","","","","","","","","","","","","","","feedback_test"
"","","","","","psychophysics","427","1537941","0.0-13.0-1.0-1.0-0.1-0.108","672","","j","","","","","","","","","","","","","key","j","16.64915740740684","682","379","j","true","img/C_ambi40.png","圆形","word_first",""
"","","","","","html-keyboard-response","428","1538246","0.0-13.0-1.0-1.0-0.1-1.108","null","<span style='color:GreenYellow; font-size: 70px;'>正确! </span>","null","","","","","","","","","","","","","","","","","","","","","","","feedback_test"
"","","","","","psychophysics","429","1540174","0.0-13.0-1.0-1.0-0.1-0.109","773","","j","","","","","","","","","","","","","key","j","16.648646017697235","682","379","j","true","img/S_ambi40.png","方形","word_first",""
"","","","","","html-keyboard-response","430","1540487","0.0-13.0-1.0-1.0-0.1-1.109","null","<span style='color:GreenYellow; font-size: 70px;'>正确! </span>","null","","","","","","","","","","","","","","","","","","","","","","","feedback_test"
"","","","","","psychophysics","431","1542204","0.0-13.0-1.0-1.0-0.1-0.110","565","","j","","","","","","","","","","","","","key","j","16.650990099009903","682","379","j","true","img/T_ambi40.png","三角","word_first",""
"","","","","","html-keyboard-response","432","1542509","0.0-13.0-1.0-1.0-0.1-1.110","null","<span style='color:GreenYellow; font-size: 70px;'>正确! </span>","null","","","","","","","","","","","","","","","","","","","","","","","feedback_test"
"","","","","","psychophysics","433","1544361","0.0-13.0-1.0-1.0-0.1-0.111","696","","f","","","","","","","","","","","","","key","f","16.650736363636415","682","379","f","true","img/T_ambi40.png","方形","word_first",""
