"success","timeout","failed_images","failed_audio","failed_video","trial_type","trial_index","time_elapsed","internal_node_id","rt","stimulus","response","value","item_width_mm","item_height_mm","item_width_px","px2mm","view_dist_mm","item_width_deg","px2deg","scale_factor","win_width_deg","win_height_deg","view_history","response_type","key_press","avg_frame_time","center_x","center_y","correct_response","correct","Image","word","condition","screen_id"
"true","false","[]","[]","[]","preload","0","1528","0.0-0.0","","","","","","","","","","","","","","","","","","","","","","","","","",""
"","","","","","html-keyboard-response","1","7991","0.0-1.0","6463","
   <p>您好，欢迎参加本次实验。</p>
   <p>为充分保障您的权利，请确保您已经知晓并同意《参与实验同意书》以及《数据公开知情同意书》。</p>
   <p>如果您未见过上述内容，请咨询实验员。</p>
   <p>如果您选择继续实验，则表示您已经清楚两份知情同意书的内容并同意。</p>
   <p> <div style = ""color: green""><按任意键至下页></div> </p>
   "," ","","","","","","","","","","","","","","","","","","","","","","",""
"","","","","","html-keyboard-response","2","9096","0.0-2.0","1105","
   <p>本实验首先需要您填写一些基本个人信息。</p>
   <p> <div style = ""color: green""><按任意键至下页></div></p>
   "," ","","","","","","","","","","","","","","","","","","","","","","",""
"","","","","","call-function","3","9097","0.0-3.0-0.0","","","","","","","","","","","","","","","","","","","","","","","","","",""
"","","","","","survey-html-form","4","13489","0.0-3.0-1.0","4392","","{""Q0"":""2""}","","","","","","","","","","","","","","","","","","","","","","",""
"","","","","","html-button-response","5","14546","0.0-3.0-2.0","1056","<p style = 'color : white'>您的性别</p>","0","","","","","","","","","","","","","","","","","","","","","","",""
"","","","","","survey-html-form","6","17549","0.0-3.0-3.0","3002","","{""Q0"":""2000""}","","","","","","","","","","","","","","","","","","","","","","",""
"","","","","","survey-html-form","7","21250","0.0-3.0-4.0","3700","","{""Q0"":""5""}","","","","","","","","","","","","","","","","","","","","","","",""
"","","","","","virtual-chinrest","8","152407","0.0-4.0","131156","","","","85.6","53.98","376.2766066923099","4.398603851380011","650.78","7.525532133846197","50.00000000000001","1.1480915696501335","38.39999999999999","19.359999999999996","","","","","","","","","","","",""
"true","","","","","fullscreen","9","156841","0.0-5.0","","","","","","","","","","","","","","","","","","","","","","","","","",""
"","","","","","instructions","10","207174","0.0-6.0","50333","","","","","","","","","","","","","","[{""page_index"":0,""viewing_time"":3814},{""page_index"":1,""viewing_time"":25407},{""page_index"":2,""viewing_time"":11295},{""page_index"":1,""viewing_time"":1752},{""page_index"":2,""viewing_time"":610},{""page_index"":3,""viewing_time"":7455}]","","","","","","","","","","",""
"","","","","","psychophysics","11","209669","0.0-7.0-0.0-0.0","1342","","f","","","","","","","","","","","","","key","f","7.794559748427713","960","536","f","true","img/S_ambi40.png","方形","prac_image_first",""
"","","","","","html-keyboard-response","12","209983","0.0-7.0-0.0-1.0","null","<span style='color:GreenYellow; font-size: 70px;'>正确! </span>","null","","","","","","","","","","","","","","","","","","","","","","","feedback_test"
"","","","","","psychophysics","13","212169","0.0-7.0-0.0-0.1","1031","","j","","","","","","","","","","","","","key","j","7.622944055944095","960","536","j","true","img/T_ambi40.png","圆形","prac_image_first",""
"","","","","","html-keyboard-response","14","212475","0.0-7.0-0.0-1.1","null","<span style='color:GreenYellow; font-size: 70px;'>正确! </span>","null","","","","","","","","","","","","","","","","","","","","","","","feedback_test"
"","","","","","psychophysics","15","214644","0.0-7.0-0.0-0.2","1016","","j","","","","","","","","","","","","","key","j","7.712360714285751","960","536","j","true","img/S_ambi40.png","圆形","prac_image_first",""
"","","","","","html-keyboard-response","16","214950","0.0-7.0-0.0-1.2","null","<span style='color:GreenYellow; font-size: 70px;'>正确! </span>","null","","","","","","","","","","","","","","","","","","","","","","","feedback_test"
"","","","","","psychophysics","17","217065","0.0-7.0-0.0-0.3","963","","j","","","","","","","","","","","","","key","j","7.8206468401486475","960","536","j","true","img/C_ambi40.png","三角","prac_image_first",""
"","","","","","html-keyboard-response","18","217382","0.0-7.0-0.0-1.3","null","<span style='color:GreenYellow; font-size: 70px;'>正确! </span>","null","","","","","","","","","","","","","","","","","","","","","","","feedback_test"
"","","","","","psychophysics","19","219506","0.0-7.0-0.0-0.4","973","","j","","","","","","","","","","","","","key","j","7.785610294117706","960","536","j","true","img/C_ambi40.png","方形","prac_image_first",""
"","","","","","html-keyboard-response","20","219822","0.0-7.0-0.0-1.4","null","<span style='color:GreenYellow; font-size: 70px;'>正确! </span>","null","","","","","","","","","","","","","","","","","","","","","","","feedback_test"
"","","","","","psychophysics","21","222424","0.0-7.0-0.0-0.5","1447","","j","","","","","","","","","","","","","key","j","7.82158433734932","960","536","f","false","img/C_ambi40.png","圆形","prac_image_first",""
"","","","","","html-keyboard-response","22","222735","0.0-7.0-0.0-1.5","null","<span style='color:red; font-size: 70px;'>错误! </span>","null","","","","","","","","","","","","","","","","","","","","","","","feedback_test"
"","","","","","psychophysics","23","224520","0.0-7.0-0.0-0.6","634","","f","","","","","","","","","","","","","key","f","7.86471238938048","960","536","f","true","img/S_ambi40.png","方形","prac_image_first",""
"","","","","","html-keyboard-response","24","224837","0.0-7.0-0.0-1.6","null","<span style='color:GreenYellow; font-size: 70px;'>正确! </span>","null","","","","","","","","","","","","","","","","","","","","","","","feedback_test"
"","","","","","psychophysics","25","226909","0.0-7.0-0.0-0.7","918","","f","","","","","","","","","","","","","key","f","7.694787313432868","960","536","f","true","img/T_ambi40.png","三角","prac_image_first",""
"","","","","","html-keyboard-response","26","227218","0.0-7.0-0.0-1.7","null","<span style='color:GreenYellow; font-size: 70px;'>正确! </span>","null","","","","","","","","","","","","","","","","","","","","","","","feedback_test"
"","","","","","psychophysics","27","229226","0.0-7.0-0.0-0.8","855","","f","","","","","","","","","","","","","key","f","7.8122705882353545","960","536","f","true","img/T_ambi40.png","三角","prac_image_first",""
"","","","","","html-keyboard-response","28","229536","0.0-7.0-0.0-1.8","null","<span style='color:GreenYellow; font-size: 70px;'>正确! </span>","null","","","","","","","","","","","","","","","","","","","","","","","feedback_test"
"","","","","","psychophysics","29","231442","0.0-7.0-0.0-0.9","752","","j","","","","","","","","","","","","","key","j","7.771786008230549","960","536","j","true","img/T_ambi40.png","方形","prac_image_first",""
"","","","","","html-keyboard-response","30","231754","0.0-7.0-0.0-1.9","null","<span style='color:GreenYellow; font-size: 70px;'>正确! </span>","null","","","","","","","","","","","","","","","","","","","","","","","feedback_test"
"","","","","","psychophysics","31","233764","0.0-7.0-0.0-0.10","860","","f","","","","","","","","","","","","","key","f","7.841615686274485","960","536","f","true","img/C_ambi40.png","圆形","prac_image_first",""
"","","","","","html-keyboard-response","32","234075","0.0-7.0-0.0-1.10","null","<span style='color:GreenYellow; font-size: 70px;'>正确! </span>","null","","","","","","","","","","","","","","","","","","","","","","","feedback_test"
"","","","","","psychophysics","33","236163","0.0-7.0-0.0-0.11","933","","j","","","","","","","","","","","","","key","j","7.574447272727266","960","536","j","true","img/S_ambi40.png","三角","prac_image_first",""
"","","","","","html-keyboard-response","34","236474","0.0-7.0-0.0-1.11","null","<span style='color:GreenYellow; font-size: 70px;'>正确! </span>","null","","","","","","","","","","","","","","","","","","","","","","","feedback_test"
"","","","","","psychophysics","35","238282","0.0-7.0-0.0-0.12","656","","f","","","","","","","","","","","","","key","f","7.818530434782556","960","536","f","true","img/S_ambi40.png","方形","prac_image_first",""
"","","","","","html-keyboard-response","36","238594","0.0-7.0-0.0-1.12","null","<span style='color:GreenYellow; font-size: 70px;'>正确! </span>","null","","","","","","","","","","","","","","","","","","","","","","","feedback_test"
"","","","","","psychophysics","37","240580","0.0-7.0-0.0-0.13","835","","j","","","","","","","","","","","","","key","j","7.852511904761842","960","536","j","true","img/S_ambi40.png","圆形","prac_image_first",""
"","","","","","html-keyboard-response","38","240887","0.0-7.0-0.0-1.13","null","<span style='color:GreenYellow; font-size: 70px;'>正确! </span>","null","","","","","","","","","","","","","","","","","","","","","","","feedback_test"
"","","","","","psychophysics","39","242812","0.0-7.0-0.0-0.14","770","","f","","","","","","","","","","","","","key","f","7.918913223140527","960","536","j","false","img/C_ambi40.png","三角","prac_image_first",""
"","","","","","html-keyboard-response","40","243128","0.0-7.0-0.0-1.14","null","<span style='color:red; font-size: 70px;'>错误! </span>","null","","","","","","","","","","","","","","","","","","","","","","","feedback_test"
"","","","","","psychophysics","41","245785","0.0-7.0-0.0-0.15","null","","null","","","","","","","","","","","","","key","null","7.757956011730258","960","536","f","false","img/C_ambi40.png","圆形","prac_image_first",""
"","","","","","html-keyboard-response","42","246099","0.0-7.0-0.0-1.15","null","<span class='add_' style='color:yellow; font-size: 70px;'> 太慢! </span>","null","","","","","","","","","","","","","","","","","","","","","","","feedback_test"
"","","","","","psychophysics","43","247877","0.0-7.0-0.0-0.16","619","","f","","","","","","","","","","","","","key","f","7.664696969697025","960","536","f","true","img/S_ambi40.png","方形","prac_image_first",""
"","","","","","html-keyboard-response","44","248183","0.0-7.0-0.0-1.16","null","<span style='color:GreenYellow; font-size: 70px;'>正确! </span>","null","","","","","","","","","","","","","","","","","","","","","","","feedback_test"
"","","","","","psychophysics","45","250170","0.0-7.0-0.0-0.17","837","","j","","","","","","","","","","","","","key","j","7.821332015810243","960","536","j","true","img/T_ambi40.png","方形","prac_image_first",""
"","","","","","html-keyboard-response","46","250482","0.0-7.0-0.0-1.17","null","<span style='color:GreenYellow; font-size: 70px;'>正确! </span>","null","","","","","","","","","","","","","","","","","","","","","","","feedback_test"
"","","","","","psychophysics","47","252233","0.0-7.0-0.0-0.18","595","","f","","","","","","","","","","","","","key","f","7.850009009009096","960","536","f","true","img/T_ambi40.png","三角","prac_image_first",""
"","","","","","html-keyboard-response","48","252539","0.0-7.0-0.0-1.18","null","<span style='color:GreenYellow; font-size: 70px;'>正确! </span>","null","","","","","","","","","","","","","","","","","","","","","","","feedback_test"
"","","","","","psychophysics","49","254430","0.0-7.0-0.0-0.19","737","","j","","","","","","","","","","","","","key","j","7.711786885245929","960","536","j","true","img/S_ambi40.png","三角","prac_image_first",""
"","","","","","html-keyboard-response","50","254743","0.0-7.0-0.0-1.19","null","<span style='color:GreenYellow; font-size: 70px;'>正确! </span>","null","","","","","","","","","","","","","","","","","","","","","","","feedback_test"
"","","","","","psychophysics","51","256589","0.0-7.0-0.0-0.20","694","","f","","","","","","","","","","","","","key","f","7.731004201680639","960","536","f","true","img/C_ambi40.png","圆形","prac_image_first",""
"","","","","","html-keyboard-response","52","256897","0.0-7.0-0.0-1.20","null","<span style='color:GreenYellow; font-size: 70px;'>正确! </span>","null","","","","","","","","","","","","","","","","","","","","","","","feedback_test"
"","","","","","psychophysics","53","258673","0.0-7.0-0.0-0.21","612","","j","","","","","","","","","","","","","key","j","7.664073593073647","960","536","j","true","img/C_ambi40.png","方形","prac_image_first",""
"","","","","","html-keyboard-response","54","258988","0.0-7.0-0.0-1.21","null","<span style='color:GreenYellow; font-size: 70px;'>正确! </span>","null","","","","","","","","","","","","","","","","","","","","","","","feedback_test"
"","","","","","psychophysics","55","260757","0.0-7.0-0.0-0.22","615","","f","","","","","","","","","","","","","key","f","7.908098654708493","960","536","j","false","img/T_ambi40.png","圆形","prac_image_first",""
"","","","","","html-keyboard-response","56","261075","0.0-7.0-0.0-1.22","null","<span style='color:red; font-size: 70px;'>错误! </span>","null","","","","","","","","","","","","","","","","","","","","","","","feedback_test"
"","","","","","psychophysics","57","263392","0.0-7.0-0.0-0.23","1166","","f","","","","","","","","","","","","","key","f","7.71202348993295","960","536","f","true","img/T_ambi40.png","三角","prac_image_first",""
"","","","","","html-keyboard-response","58","263713","0.0-7.0-0.0-1.23","null","<span style='color:GreenYellow; font-size: 70px;'>正确! </span>","null","","","","","","","","","","","","","","","","","","","","","","","feedback_test"
"","","","","","html-keyboard-response","59","271070","0.0-8.0","7356","<style>.context{color:white; font-size: 35px; line-height:40px}</style>                            <div><p class='context'>您正确回答了83% 的试次。</p><p class='context'>您的平均反应时为851毫秒。</p><p class='context'>恭喜您完成这一阶段的练习。按任意键进入<span style='color: yellow;'>先文字后图形条件</span>的练习。</p></div>"," ","","","","","","","","","","","","","","","","","","","","","","",""
"","","","","","psychophysics","60","272877","0.0-9.0-0.0-0.0","654","","f","","","","","","","","","","","","","key","f","7.882885462554974","960","536","f","true","img/T_ambi40.png","三角","prac_word_first",""
"","","","","","html-keyboard-response","61","273199","0.0-9.0-0.0-1.0","null","<span style='color:GreenYellow; font-size: 70px;'>正确! </span>","null","","","","","","","","","","","","","","","","","","","","","","","feedback_test"
"","","","","","psychophysics","62","274965","0.0-9.0-0.0-0.1","610","","j","","","","","","","","","","","","","key","j","7.807480000000085","960","536","j","true","img/S_ambi40.png","三角","prac_word_first",""
"","","","","","html-keyboard-response","63","275279","0.0-9.0-0.0-1.1","null","<span style='color:GreenYellow; font-size: 70px;'>正确! </span>","null","","","","","","","","","","","","","","","","","","","","","","","feedback_test"
"","","","","","psychophysics","64","277129","0.0-9.0-0.0-0.2","698","","f","","","","","","","","","","","","","key","f","7.862978632478531","960","536","f","true","img/S_ambi40.png","方形","prac_word_first",""
"","","","","","html-keyboard-response","65","277439","0.0-9.0-0.0-1.2","null","<span style='color:GreenYellow; font-size: 70px;'>正确! </span>","null","","","","","","","","","","","","","","","","","","","","","","","feedback_test"
"","","","","","psychophysics","66","279212","0.0-9.0-0.0-0.3","621","","f","","","","","","","","","","","","","key","f","7.873165178571331","960","536","f","true","img/C_ambi40.png","圆形","prac_word_first",""
"","","","","","html-keyboard-response","67","279528","0.0-9.0-0.0-1.3","null","<span style='color:GreenYellow; font-size: 70px;'>正确! </span>","null","","","","","","","","","","","","","","","","","","","","","","","feedback_test"
"","","","","","psychophysics","68","281244","0.0-9.0-0.0-0.4","564","","f","","","","","","","","","","","","","key","f","7.693729729729606","960","536","f","true","img/S_ambi40.png","方形","prac_word_first",""
"","","","","","html-keyboard-response","69","281553","0.0-9.0-0.0-1.4","null","<span style='color:GreenYellow; font-size: 70px;'>正确! </span>","null","","","","","","","","","","","","","","","","","","","","","","","feedback_test"
"","","","","","psychophysics","70","283385","0.0-9.0-0.0-0.5","677","","j","","","","","","","","","","","","","key","j","7.909817391304482","960","536","j","true","img/C_ambi40.png","方形","prac_word_first",""
"","","","","","html-keyboard-response","71","283699","0.0-9.0-0.0-1.5","null","<span style='color:GreenYellow; font-size: 70px;'>正确! </span>","null","","","","","","","","","","","","","","","","","","","","","","","feedback_test"
"","","","","","psychophysics","72","285429","0.0-9.0-0.0-0.6","578","","f","","","","","","","","","","","","","key","f","7.791846153845987","960","536","f","true","img/C_ambi40.png","圆形","prac_word_first",""
"","","","","","html-keyboard-response","73","285753","0.0-9.0-0.0-1.6","null","<span style='color:GreenYellow; font-size: 70px;'>正确! </span>","null","","","","","","","","","","","","","","","","","","","","","","","feedback_test"
"","","","","","psychophysics","74","288003","0.0-9.0-0.0-0.7","1094","","j","","","","","","","","","","","","","key","j","7.841125874125791","960","536","j","true","img/C_ambi40.png","三角","prac_word_first",""
"","","","","","html-keyboard-response","75","288309","0.0-9.0-0.0-1.7","null","<span style='color:GreenYellow; font-size: 70px;'>正确! </span>","null","","","","","","","","","","","","","","","","","","","","","","","feedback_test"
"","","","","","psychophysics","76","290155","0.0-9.0-0.0-0.8","691","","j","","","","","","","","","","","","","key","j","7.666383333333215","960","536","j","true","img/T_ambi40.png","方形","prac_word_first",""
"","","","","","html-keyboard-response","77","290471","0.0-9.0-0.0-1.8","null","<span style='color:GreenYellow; font-size: 70px;'>正确! </span>","null","","","","","","","","","","","","","","","","","","","","","","","feedback_test"
"","","","","","psychophysics","78","292507","0.0-9.0-0.0-0.9","885","","j","","","","","","","","","","","","","key","j","7.767655172413821","960","536","j","true","img/S_ambi40.png","圆形","prac_word_first",""
"","","","","","html-keyboard-response","79","292820","0.0-9.0-0.0-1.9","null","<span style='color:GreenYellow; font-size: 70px;'>正确! </span>","null","","","","","","","","","","","","","","","","","","","","","","","feedback_test"
"","","","","","psychophysics","80","294618","0.0-9.0-0.0-0.10","646","","f","","","","","","","","","","","","","key","f","7.8222489082968725","960","536","j","false","img/T_ambi40.png","圆形","prac_word_first",""
"","","","","","html-keyboard-response","81","294926","0.0-9.0-0.0-1.10","null","<span style='color:red; font-size: 70px;'>错误! </span>","null","","","","","","","","","","","","","","","","","","","","","","","feedback_test"
"","","","","","psychophysics","82","297248","0.0-9.0-0.0-0.11","1168","","f","","","","","","","","","","","","","key","f","7.8083804713803975","960","536","f","true","img/T_ambi40.png","三角","prac_word_first",""
"","","","","","html-keyboard-response","83","297559","0.0-9.0-0.0-1.11","null","<span style='color:GreenYellow; font-size: 70px;'>正确! </span>","null","","","","","","","","","","","","","","","","","","","","","","","feedback_test"
"","","","","","psychophysics","84","299516","0.0-9.0-0.0-0.12","804","","f","","","","","","","","","","","","","key","f","7.623788235294085","960","536","f","true","img/S_ambi40.png","方形","prac_word_first",""
"","","","","","html-keyboard-response","85","299826","0.0-9.0-0.0-1.12","null","<span style='color:GreenYellow; font-size: 70px;'>正确! </span>","null","","","","","","","","","","","","","","","","","","","","","","","feedback_test"
"","","","","","psychophysics","86","301613","0.0-9.0-0.0-0.13","633","","f","","","","","","","","","","","","","key","f","7.694809523809478","960","536","f","true","img/C_ambi40.png","圆形","prac_word_first",""
"","","","","","html-keyboard-response","87","301918","0.0-9.0-0.0-1.13","null","<span style='color:GreenYellow; font-size: 70px;'>正确! </span>","null","","","","","","","","","","","","","","","","","","","","","","","feedback_test"
"","","","","","psychophysics","88","303726","0.0-9.0-0.0-0.14","654","","f","","","","","","","","","","","","","key","f","7.785395652173928","960","536","f","true","img/T_ambi40.png","三角","prac_word_first",""
"","","","","","html-keyboard-response","89","304033","0.0-9.0-0.0-1.14","null","<span style='color:GreenYellow; font-size: 70px;'>正确! </span>","null","","","","","","","","","","","","","","","","","","","","","","","feedback_test"
"","","","","","psychophysics","90","305971","0.0-9.0-0.0-0.15","787","","f","","","","","","","","","","","","","key","f","7.78317741935485","960","536","j","false","img/S_ambi40.png","圆形","prac_word_first",""
"","","","","","html-keyboard-response","91","306277","0.0-9.0-0.0-1.15","null","<span style='color:red; font-size: 70px;'>错误! </span>","null","","","","","","","","","","","","","","","","","","","","","","","feedback_test"
"","","","","","psychophysics","92","308137","0.0-9.0-0.0-0.16","705","","f","","","","","","","","","","","","","key","f","7.756539748953831","960","536","f","true","img/S_ambi40.png","方形","prac_word_first",""
"","","","","","html-keyboard-response","93","308445","0.0-9.0-0.0-1.16","null","<span style='color:GreenYellow; font-size: 70px;'>正确! </span>","null","","","","","","","","","","","","","","","","","","","","","","","feedback_test"
"","","","","","psychophysics","94","310146","0.0-9.0-0.0-0.17","548","","f","","","","","","","","","","","","","key","f","7.811092592592575","960","536","f","true","img/C_ambi40.png","圆形","prac_word_first",""
"","","","","","html-keyboard-response","95","310464","0.0-9.0-0.0-1.17","null","<span style='color:GreenYellow; font-size: 70px;'>正确! </span>","null","","","","","","","","","","","","","","","","","","","","","","","feedback_test"
"","","","","","psychophysics","96","312157","0.0-9.0-0.0-0.18","539","","j","","","","","","","","","","","","","key","j","7.957971698113329","960","536","j","true","img/T_ambi40.png","方形","prac_word_first",""
"","","","","","html-keyboard-response","97","312459","0.0-9.0-0.0-1.18","null","<span style='color:GreenYellow; font-size: 70px;'>正确! </span>","null","","","","","","","","","","","","","","","","","","","","","","","feedback_test"
"","","","","","psychophysics","98","314208","0.0-9.0-0.0-0.19","596","","j","","","","","","","","","","","","","key","j","7.890218181818173","960","536","j","true","img/T_ambi40.png","圆形","prac_word_first",""
"","","","","","html-keyboard-response","99","314514","0.0-9.0-0.0-1.19","null","<span style='color:GreenYellow; font-size: 70px;'>正确! </span>","null","","","","","","","","","","","","","","","","","","","","","","","feedback_test"
"","","","","","psychophysics","100","316286","0.0-9.0-0.0-0.20","619","","j","","","","","","","","","","","","","key","j","7.837999999999949","960","536","j","true","img/C_ambi40.png","三角","prac_word_first",""
"","","","","","html-keyboard-response","101","316604","0.0-9.0-0.0-1.20","null","<span style='color:GreenYellow; font-size: 70px;'>正确! </span>","null","","","","","","","","","","","","","","","","","","","","","","","feedback_test"
"","","","","","psychophysics","102","318429","0.0-9.0-0.0-0.21","673","","f","","","","","","","","","","","","","key","f","7.744273504273644","960","536","j","false","img/S_ambi40.png","三角","prac_word_first",""
"","","","","","html-keyboard-response","103","318747","0.0-9.0-0.0-1.21","null","<span style='color:red; font-size: 70px;'>错误! </span>","null","","","","","","","","","","","","","","","","","","","","","","","feedback_test"
"","","","","","psychophysics","104","320809","0.0-9.0-0.0-0.22","907","","j","","","","","","","","","","","","","key","j","7.904323076923118","960","536","j","true","img/C_ambi40.png","方形","prac_word_first",""
"","","","","","html-keyboard-response","105","321115","0.0-9.0-0.0-1.22","null","<span style='color:GreenYellow; font-size: 70px;'>正确! </span>","null","","","","","","","","","","","","","","","","","","","","","","","feedback_test"
"","","","","","psychophysics","106","322963","0.0-9.0-0.0-0.23","693","","f","","","","","","","","","","","","","key","f","7.7963432203388825","960","536","f","true","img/T_ambi40.png","三角","prac_word_first",""
"","","","","","html-keyboard-response","107","323275","0.0-9.0-0.0-1.23","null","<span style='color:GreenYellow; font-size: 70px;'>正确! </span>","null","","","","","","","","","","","","","","","","","","","","","","","feedback_test"
"","","","","","html-keyboard-response","108","326190","0.0-10.0","2914","<style>.context{color:white; font-size: 35px; line-height:40px}</style>                            <div><p class='context'>您正确回答了88% 的试次。</p><p class='context'>您的平均反应时为711毫秒。</p><p class='context'>恭喜您完成练习。按任意键进入<span style='color: yellow;'>图形和文字同时呈现条件</span>的练习。</p></div>"," ","","","","","","","","","","","","","","","","","","","","","","",""
"","","","","","psychophysics","109","328700","0.0-11.0-0.0-0.0","null","","null","","","","","","","","","","","","","key","null","7.86320820189289","960","536","j","false","img/T_ambi40.png","方形","prac_simultaneous",""
"","","","","","html-keyboard-response","110","329002","0.0-11.0-0.0-1.0","null","<span class='add_' style='color:yellow; font-size: 70px;'> 太慢! </span>","null","","","","","","","","","","","","","","","","","","","","","","","feedback_test"
"","","","","","psychophysics","111","331098","0.0-11.0-0.0-0.1","1093","","f","","","","","","","","","","","","","key","f","7.916268939393789","960","536","f","true","img/C_ambi40.png","圆形","prac_simultaneous",""
"","","","","","html-keyboard-response","112","331411","0.0-11.0-0.0-1.1","null","<span style='color:GreenYellow; font-size: 70px;'>正确! </span>","null","","","","","","","","","","","","","","","","","","","","","","","feedback_test"
"","","","","","psychophysics","113","333112","0.0-11.0-0.0-0.2","697","","j","","","","","","","","","","","","","key","j","7.771458715596396","960","536","j","true","img/S_ambi40.png","圆形","prac_simultaneous",""
"","","","","","html-keyboard-response","114","333413","0.0-11.0-0.0-1.2","null","<span style='color:GreenYellow; font-size: 70px;'>正确! </span>","null","","","","","","","","","","","","","","","","","","","","","","","feedback_test"
"","","","","","psychophysics","115","335224","0.0-11.0-0.0-0.3","810","","j","","","","","","","","","","","","","key","j","7.784735930736078","960","536","j","true","img/T_ambi40.png","圆形","prac_simultaneous",""
"","","","","","html-keyboard-response","116","335530","0.0-11.0-0.0-1.3","null","<span style='color:GreenYellow; font-size: 70px;'>正确! </span>","null","","","","","","","","","","","","","","","","","","","","","","","feedback_test"
"","","","","","psychophysics","117","337185","0.0-11.0-0.0-0.4","654","","f","","","","","","","","","","","","","key","f","7.875004830917822","960","536","f","true","img/S_ambi40.png","方形","prac_simultaneous",""
"","","","","","html-keyboard-response","118","337497","0.0-11.0-0.0-1.4","null","<span style='color:GreenYellow; font-size: 70px;'>正确! </span>","null","","","","","","","","","","","","","","","","","","","","","","","feedback_test"
"","","","","","psychophysics","119","339222","0.0-11.0-0.0-0.5","719","","j","","","","","","","","","","","","","key","j","7.760226244343934","960","536","j","true","img/C_ambi40.png","三角","prac_simultaneous",""
"","","","","","html-keyboard-response","120","339530","0.0-11.0-0.0-1.5","null","<span style='color:GreenYellow; font-size: 70px;'>正确! </span>","null","","","","","","","","","","","","","","","","","","","","","","","feedback_test"
"","","","","","psychophysics","121","341353","0.0-11.0-0.0-0.6","815","","f","","","","","","","","","","","","","key","f","7.711344680851177","960","536","f","true","img/T_ambi40.png","三角","prac_simultaneous",""
"","","","","","html-keyboard-response","122","341662","0.0-11.0-0.0-1.6","null","<span style='color:GreenYellow; font-size: 70px;'>正确! </span>","null","","","","","","","","","","","","","","","","","","","","","","","feedback_test"
"","","","","","psychophysics","123","343437","0.0-11.0-0.0-0.7","775","","j","","","","","","","","","","","","","key","j","7.837937777777617","960","536","j","true","img/C_ambi40.png","方形","prac_simultaneous",""
"","","","","","html-keyboard-response","124","343760","0.0-11.0-0.0-1.7","null","<span style='color:GreenYellow; font-size: 70px;'>正确! </span>","null","","","","","","","","","","","","","","","","","","","","","","","feedback_test"
"","","","","","psychophysics","125","345601","0.0-11.0-0.0-0.8","836","","j","","","","","","","","","","","","","key","j","7.767021186440647","960","536","j","true","img/S_ambi40.png","三角","prac_simultaneous",""
"","","","","","html-keyboard-response","126","345903","0.0-11.0-0.0-1.8","null","<span style='color:GreenYellow; font-size: 70px;'>正确! </span>","null","","","","","","","","","","","","","","","","","","","","","","","feedback_test"
"","","","","","psychophysics","127","347580","0.0-11.0-0.0-0.9","677","","f","","","","","","","","","","","","","key","f","7.826589622641617","960","536","f","true","img/C_ambi40.png","圆形","prac_simultaneous",""
"","","","","","html-keyboard-response","128","347891","0.0-11.0-0.0-1.9","null","<span style='color:GreenYellow; font-size: 70px;'>正确! </span>","null","","","","","","","","","","","","","","","","","","","","","","","feedback_test"
"","","","","","psychophysics","129","349499","0.0-11.0-0.0-0.10","603","","f","","","","","","","","","","","","","key","f","7.866812807881718","960","536","f","true","img/S_ambi40.png","方形","prac_simultaneous",""
"","","","","","html-keyboard-response","130","349807","0.0-11.0-0.0-1.10","null","<span style='color:GreenYellow; font-size: 70px;'>正确! </span>","null","","","","","","","","","","","","","","","","","","","","","","","feedback_test"
"","","","","","psychophysics","131","351485","0.0-11.0-0.0-0.11","673","","f","","","","","","","","","","","","","key","f","7.860221698113063","960","536","f","true","img/T_ambi40.png","三角","prac_simultaneous",""
"","","","","","html-keyboard-response","132","351798","0.0-11.0-0.0-1.11","null","<span style='color:GreenYellow; font-size: 70px;'>正确! </span>","null","","","","","","","","","","","","","","","","","","","","","","","feedback_test"
"","","","","","psychophysics","133","353438","0.0-11.0-0.0-0.12","639","","j","","","","","","","","","","","","","key","j","7.884373786407681","960","536","j","true","img/T_ambi40.png","方形","prac_simultaneous",""
"","","","","","html-keyboard-response","134","353747","0.0-11.0-0.0-1.12","null","<span style='color:GreenYellow; font-size: 70px;'>正确! </span>","null","","","","","","","","","","","","","","","","","","","","","","","feedback_test"
"","","","","","psychophysics","135","355400","0.0-11.0-0.0-0.13","651","","f","","","","","","","","","","","","","key","f","7.798488151658905","960","536","j","false","img/T_ambi40.png","圆形","prac_simultaneous",""
"","","","","","html-keyboard-response","136","355716","0.0-11.0-0.0-1.13","null","<span style='color:red; font-size: 70px;'>错误! </span>","null","","","","","","","","","","","","","","","","","","","","","","","feedback_test"
"","","","","","psychophysics","137","357511","0.0-11.0-0.0-0.14","789","","j","","","","","","","","","","","","","key","j","7.9310088888889485","960","536","j","true","img/C_ambi40.png","方形","prac_simultaneous",""
"","","","","","html-keyboard-response","138","357831","0.0-11.0-0.0-1.14","null","<span style='color:GreenYellow; font-size: 70px;'>正确! </span>","null","","","","","","","","","","","","","","","","","","","","","","","feedback_test"
"","","","","","psychophysics","139","359479","0.0-11.0-0.0-0.15","647","","f","","","","","","","","","","","","","key","f","7.585493023255786","960","536","f","true","img/C_ambi40.png","圆形","prac_simultaneous",""
"","","","","","html-keyboard-response","140","359792","0.0-11.0-0.0-1.15","null","<span style='color:GreenYellow; font-size: 70px;'>正确! </span>","null","","","","","","","","","","","","","","","","","","","","","","","feedback_test"
"","","","","","psychophysics","141","361392","0.0-11.0-0.0-0.16","595","","j","","","","","","","","","","","","","key","j","7.949960000000138","960","536","f","false","img/S_ambi40.png","方形","prac_simultaneous",""
"","","","","","html-keyboard-response","142","361705","0.0-11.0-0.0-1.16","null","<span style='color:red; font-size: 70px;'>错误! </span>","null","","","","","","","","","","","","","","","","","","","","","","","feedback_test"
"","","","","","psychophysics","143","363521","0.0-11.0-0.0-0.17","813","","f","","","","","","","","","","","","","key","f","7.816401746724916","960","536","f","true","img/S_ambi40.png","方形","prac_simultaneous",""
"","","","","","html-keyboard-response","144","363823","0.0-11.0-0.0-1.17","null","<span style='color:GreenYellow; font-size: 70px;'>正确! </span>","null","","","","","","","","","","","","","","","","","","","","","","","feedback_test"
"","","","","","psychophysics","145","365439","0.0-11.0-0.0-0.18","615","","j","","","","","","","","","","","","","key","j","7.901128712871244","960","536","j","true","img/S_ambi40.png","三角","prac_simultaneous",""
"","","","","","html-keyboard-response","146","365744","0.0-11.0-0.0-1.18","null","<span style='color:GreenYellow; font-size: 70px;'>正确! </span>","null","","","","","","","","","","","","","","","","","","","","","","","feedback_test"
"","","","","","psychophysics","147","367486","0.0-11.0-0.0-0.19","739","","f","","","","","","","","","","","","","key","f","7.6806238938052935","960","536","f","true","img/T_ambi40.png","三角","prac_simultaneous",""
"","","","","","html-keyboard-response","148","367802","0.0-11.0-0.0-1.19","null","<span style='color:GreenYellow; font-size: 70px;'>正确! </span>","null","","","","","","","","","","","","","","","","","","","","","","","feedback_test"
"","","","","","psychophysics","149","369639","0.0-11.0-0.0-0.20","836","","f","","","","","","","","","","","","","key","f","7.837206008583767","960","536","j","false","img/S_ambi40.png","圆形","prac_simultaneous",""
"","","","","","html-keyboard-response","150","369949","0.0-11.0-0.0-1.20","null","<span style='color:red; font-size: 70px;'>错误! </span>","null","","","","","","","","","","","","","","","","","","","","","","","feedback_test"
"","","","","","psychophysics","151","371776","0.0-11.0-0.0-0.21","821","","f","","","","","","","","","","","","","key","f","7.643735294117535","960","536","f","true","img/C_ambi40.png","圆形","prac_simultaneous",""
"","","","","","html-keyboard-response","152","372087","0.0-11.0-0.0-1.21","null","<span style='color:GreenYellow; font-size: 70px;'>正确! </span>","null","","","","","","","","","","","","","","","","","","","","","","","feedback_test"
"","","","","","psychophysics","153","373766","0.0-11.0-0.0-0.22","673","","j","","","","","","","","","","","","","key","j","7.860424528301766","960","536","j","true","img/C_ambi40.png","三角","prac_simultaneous",""
"","","","","","html-keyboard-response","154","374078","0.0-11.0-0.0-1.22","null","<span style='color:GreenYellow; font-size: 70px;'>正确! </span>","null","","","","","","","","","","","","","","","","","","","","","","","feedback_test"
"","","","","","psychophysics","155","375820","0.0-11.0-0.0-0.23","740","","f","","","","","","","","","","","","","key","f","7.8941872146118275","960","536","f","true","img/T_ambi40.png","三角","prac_simultaneous",""
"","","","","","html-keyboard-response","156","376135","0.0-11.0-0.0-1.23","null","<span style='color:GreenYellow; font-size: 70px;'>正确! </span>","null","","","","","","","","","","","","","","","","","","","","","","","feedback_test"
"","","","","","html-keyboard-response","157","385776","0.0-12.0","9640","<style>.context{color:white; font-size: 35px; line-height:40px}</style>                            <div><p class='context'>您正确回答了83% 的试次。</p><p class='context'>您的平均反应时为741毫秒。</p><p class='context'>恭喜您完成练习。按任意键进入正式实验。</p><p class='footer' style='font-size: 35px; line-height:40px;'>请在进入正式实验实验之前将您的<span style='color: lightgreen;'>食指</span>放在电脑键盘的相应键位上进行按键。</p>"," ","","","","","","","","","","","","","","","","","","","","","","",""
"","","","","","html-keyboard-response","158","389619","0.0-13.0-1.0-0.0","3839","
    <p>请您将手指放在按键上，准备进入呈现顺序为<span style='color: yellow;'>先文字后图形条件</span>的正式匹配任务</p>
    <p> <div style = ""color: green""><按任意键进入下一阶段的匹配任务></div></p>
    "," ","","","","","","","","","","","","","","","","","","","","","","",""
"","","","","","psychophysics","159","391378","0.0-13.0-1.0-1.0-0.0-0.0","608","","f","","","","","","","","","","","","","key","f","7.846381165919357","960","536","f","true","img/S_ambi40.png","方形","word_first",""
"","","","","","html-keyboard-response","160","391689","0.0-13.0-1.0-1.0-0.0-1.0","null","<span style='color:GreenYellow; font-size: 70px;'>正确! </span>","null","","","","","","","","","","","","","","","","","","","","","","","feedback_test"
"","","","","","psychophysics","161","393361","0.0-13.0-1.0-1.0-0.0-0.1","521","","f","","","","","","","","","","","","","key","f","7.786593457943679","960","536","f","true","img/T_ambi40.png","三角","word_first",""
"","","","","","html-keyboard-response","162","393666","0.0-13.0-1.0-1.0-0.0-1.1","null","<span style='color:GreenYellow; font-size: 70px;'>正确! </span>","null","","","","","","","","","","","","","","","","","","","","","","","feedback_test"
"","","","","","psychophysics","163","395392","0.0-13.0-1.0-1.0-0.0-0.2","574","","j","","","","","","","","","","","","","key","j","7.9029723502304465","960","536","j","true","img/C_ambi40.png","三角","word_first",""
"","","","","","html-keyboard-response","164","395710","0.0-13.0-1.0-1.0-0.0-1.2","null","<span style='color:GreenYellow; font-size: 70px;'>正确! </span>","null","","","","","","","","","","","","","","","","","","","","","","","feedback_test"
"","","","","","psychophysics","165","397492","0.0-13.0-1.0-1.0-0.0-0.3","626","","f","","","","","","","","","","","","","key","f","7.864942477875909","960","536","j","false","img/S_ambi40.png","圆形","word_first",""
"","","","","","html-keyboard-response","166","397806","0.0-13.0-1.0-1.0-0.0-1.3","null","<span style='color:red; font-size: 70px;'>错误! </span>","null","","","","","","","","","","","","","","","","","","","","","","","feedback_test"
"","","","","","psychophysics","167","400238","0.0-13.0-1.0-1.0-0.0-0.4","1282","","j","","","","","","","","","","","","","key","j","7.766570512820647","960","536","j","true","img/T_ambi40.png","圆形","word_first",""
"","","","","","html-keyboard-response","168","400546","0.0-13.0-1.0-1.0-0.0-1.4","null","<span style='color:GreenYellow; font-size: 70px;'>正确! </span>","null","","","","","","","","","","","","","","","","","","","","","","","feedback_test"
"","","","","","psychophysics","169","402459","0.0-13.0-1.0-1.0-0.0-0.5","761","","j","","","","","","","","","","","","","key","j","7.58207200000016","960","536","j","true","img/S_ambi40.png","三角","word_first",""
"","","","","","html-keyboard-response","170","402765","0.0-13.0-1.0-1.0-0.0-1.5","null","<span style='color:GreenYellow; font-size: 70px;'>正确! </span>","null","","","","","","","","","","","","","","","","","","","","","","","feedback_test"
"","","","","","psychophysics","171","404525","0.0-13.0-1.0-1.0-0.0-0.6","603","","j","","","","","","","","","","","","","key","j","7.640611353711841","960","536","j","true","img/C_ambi40.png","方形","word_first",""
"","","","","","html-keyboard-response","172","404838","0.0-13.0-1.0-1.0-0.0-1.6","null","<span style='color:GreenYellow; font-size: 70px;'>正确! </span>","null","","","","","","","","","","","","","","","","","","","","","","","feedback_test"
"","","","","","psychophysics","173","406792","0.0-13.0-1.0-1.0-0.0-0.7","801","","j","","","","","","","","","","","","","key","j","7.83913709677431","960","536","j","true","img/T_ambi40.png","方形","word_first",""
"","","","","","html-keyboard-response","174","407106","0.0-13.0-1.0-1.0-0.0-1.7","null","<span style='color:GreenYellow; font-size: 70px;'>正确! </span>","null","","","","","","","","","","","","","","","","","","","","","","","feedback_test"
"","","","","","psychophysics","175","408768","0.0-13.0-1.0-1.0-0.0-0.8","509","","f","","","","","","","","","","","","","key","f","7.903600961538569","960","536","f","true","img/C_ambi40.png","圆形","word_first",""
"","","","","","html-keyboard-response","176","409083","0.0-13.0-1.0-1.0-0.0-1.8","null","<span style='color:GreenYellow; font-size: 70px;'>正确! </span>","null","","","","","","","","","","","","","","","","","","","","","","","feedback_test"
"","","","","","psychophysics","177","410872","0.0-13.0-1.0-1.0-0.0-0.9","633","","f","","","","","","","","","","","","","key","f","7.724571428571382","960","536","f","true","img/T_ambi40.png","三角","word_first",""
"","","","","","html-keyboard-response","178","411187","0.0-13.0-1.0-1.0-0.0-1.9","null","<span style='color:GreenYellow; font-size: 70px;'>正确! </span>","null","","","","","","","","","","","","","","","","","","","","","","","feedback_test"
"","","","","","psychophysics","179","412787","0.0-13.0-1.0-1.0-0.0-0.10","445","","f","","","","","","","","","","","","","key","f","7.756112195122078","960","536","f","true","img/C_ambi40.png","圆形","word_first",""
"","","","","","html-keyboard-response","180","413094","0.0-13.0-1.0-1.0-0.0-1.10","null","<span style='color:GreenYellow; font-size: 70px;'>正确! </span>","null","","","","","","","","","","","","","","","","","","","","","","","feedback_test"
"","","","","","psychophysics","181","414723","0.0-13.0-1.0-1.0-0.0-0.11","478","","f","","","","","","","","","","","","","key","f","7.55980373831753","960","536","f","true","img/S_ambi40.png","方形","word_first",""
"","","","","","html-keyboard-response","182","415029","0.0-13.0-1.0-1.0-0.0-1.11","null","<span style='color:GreenYellow; font-size: 70px;'>正确! </span>","null","","","","","","","","","","","","","","","","","","","","","","","feedback_test"
"","","","","","psychophysics","183","416636","0.0-13.0-1.0-1.0-0.0-0.12","446","","j","","","","","","","","","","","","","key","j","7.7144685990336255","960","536","j","true","img/T_ambi40.png","圆形","word_first",""
"","","","","","html-keyboard-response","184","416946","0.0-13.0-1.0-1.0-0.0-1.12","null","<span style='color:GreenYellow; font-size: 70px;'>正确! </span>","null","","","","","","","","","","","","","","","","","","","","","","","feedback_test"
"","","","","","psychophysics","185","418698","0.0-13.0-1.0-1.0-0.0-0.13","600","","j","","","","","","","","","","","","","key","j","7.677105726872413","960","536","j","true","img/S_ambi40.png","三角","word_first",""
"","","","","","html-keyboard-response","186","419003","0.0-13.0-1.0-1.0-0.0-1.13","null","<span style='color:GreenYellow; font-size: 70px;'>正确! </span>","null","","","","","","","","","","","","","","","","","","","","","","","feedback_test"
"","","","","","psychophysics","187","420783","0.0-13.0-1.0-1.0-0.0-0.14","629","","f","","","","","","","","","","","","","key","f","7.869422222222202","960","536","f","true","img/C_ambi40.png","圆形","word_first",""
"","","","","","html-keyboard-response","188","421094","0.0-13.0-1.0-1.0-0.0-1.14","null","<span style='color:GreenYellow; font-size: 70px;'>正确! </span>","null","","","","","","","","","","","","","","","","","","","","","","","feedback_test"
"","","","","","psychophysics","189","422846","0.0-13.0-1.0-1.0-0.0-0.15","601","","j","","","","","","","","","","","","","key","j","7.745884444444544","960","536","j","true","img/C_ambi40.png","三角","word_first",""
"","","","","","html-keyboard-response","190","423154","0.0-13.0-1.0-1.0-0.0-1.15","null","<span style='color:GreenYellow; font-size: 70px;'>正确! </span>","null","","","","","","","","","","","","","","","","","","","","","","","feedback_test"
"","","","","","psychophysics","191","424857","0.0-13.0-1.0-1.0-0.0-0.16","551","","f","","","","","","","","","","","","","key","f","7.953671361502269","960","536","j","false","img/S_ambi40.png","圆形","word_first",""
"","","","","","html-keyboard-response","192","425165","0.0-13.0-1.0-1.0-0.0-1.16","null","<span style='color:red; font-size: 70px;'>错误! </span>","null","","","","","","","","","","","","","","","","","","","","","","","feedback_test"
"","","","","","psychophysics","193","427048","0.0-13.0-1.0-1.0-0.0-0.17","729","","f","","","","","","","","","","","","","key","f","7.91036708860777","960","536","f","true","img/T_ambi40.png","三角","word_first",""
"","","","","","html-keyboard-response","194","427360","0.0-13.0-1.0-1.0-0.0-1.17","null","<span style='color:GreenYellow; font-size: 70px;'>正确! </span>","null","","","","","","","","","","","","","","","","","","","","","","","feedback_test"
"","","","","","psychophysics","195","429013","0.0-13.0-1.0-1.0-0.0-0.18","499","","f","","","","","","","","","","","","","key","f","7.6569626168225495","960","536","f","true","img/T_ambi40.png","三角","word_first",""
"","","","","","html-keyboard-response","196","429318","0.0-13.0-1.0-1.0-0.0-1.18","null","<span style='color:GreenYellow; font-size: 70px;'>正确! </span>","null","","","","","","","","","","","","","","","","","","","","","","","feedback_test"
"","","","","","psychophysics","197","431018","0.0-13.0-1.0-1.0-0.0-0.19","546","","j","","","","","","","","","","","","","key","j","7.703972602739651","960","536","j","true","img/C_ambi40.png","方形","word_first",""
"","","","","","html-keyboard-response","198","431331","0.0-13.0-1.0-1.0-0.0-1.19","null","<span style='color:GreenYellow; font-size: 70px;'>正确! </span>","null","","","","","","","","","","","","","","","","","","","","","","","feedback_test"
"","","","","","psychophysics","199","433067","0.0-13.0-1.0-1.0-0.0-0.20","583","","f","","","","","","","","","","","","","key","f","7.689479820627611","960","536","f","true","img/S_ambi40.png","方形","word_first",""
"","","","","","html-keyboard-response","200","433385","0.0-13.0-1.0-1.0-0.0-1.20","null","<span style='color:GreenYellow; font-size: 70px;'>正确! </span>","null","","","","","","","","","","","","","","","","","","","","","","","feedback_test"
"","","","","","psychophysics","201","435008","0.0-13.0-1.0-1.0-0.0-0.21","468","","f","","","","","","","","","","","","","key","f","7.815135265700519","960","536","f","true","img/S_ambi40.png","方形","word_first",""
"","","","","","html-keyboard-response","202","435328","0.0-13.0-1.0-1.0-0.0-1.21","null","<span style='color:GreenYellow; font-size: 70px;'>正确! </span>","null","","","","","","","","","","","","","","","","","","","","","","","feedback_test"
"","","","","","psychophysics","203","437029","0.0-13.0-1.0-1.0-0.0-0.22","545","","f","","","","","","","","","","","","","key","f","7.843319444444474","960","536","f","true","img/C_ambi40.png","圆形","word_first",""
"","","","","","html-keyboard-response","204","437334","0.0-13.0-1.0-1.0-0.0-1.22","null","<span style='color:GreenYellow; font-size: 70px;'>正确! </span>","null","","","","","","","","","","","","","","","","","","","","","","","feedback_test"
"","","","","","psychophysics","205","439065","0.0-13.0-1.0-1.0-0.0-0.23","580","","j","","","","","","","","","","","","","key","j","7.721739910313788","960","536","j","true","img/T_ambi40.png","方形","word_first",""
"","","","","","html-keyboard-response","206","439372","0.0-13.0-1.0-1.0-0.0-1.23","null","<span style='color:GreenYellow; font-size: 70px;'>正确! </span>","null","","","","","","","","","","","","","","","","","","","","","","","feedback_test"
"","","","","","psychophysics","207","441109","0.0-13.0-1.0-1.0-0.0-0.24","584","","j","","","","","","","","","","","","","key","j","7.751639639639646","960","536","j","true","img/T_ambi40.png","圆形","word_first",""
"","","","","","html-keyboard-response","208","441414","0.0-13.0-1.0-1.0-0.0-1.24","null","<span style='color:GreenYellow; font-size: 70px;'>正确! </span>","null","","","","","","","","","","","","","","","","","","","","","","","feedback_test"
"","","","","","psychophysics","209","443406","0.0-13.0-1.0-1.0-0.0-0.25","839","","j","","","","","","","","","","","","","key","j","7.75991372549039","960","536","j","true","img/S_ambi40.png","圆形","word_first",""
"","","","","","html-keyboard-response","210","443724","0.0-13.0-1.0-1.0-0.0-1.25","null","<span style='color:GreenYellow; font-size: 70px;'>正确! </span>","null","","","","","","","","","","","","","","","","","","","","","","","feedback_test"
"","","","","","psychophysics","211","445321","0.0-13.0-1.0-1.0-0.0-0.26","443","","f","","","","","","","","","","","","","key","f","7.916060301507402","960","536","f","true","img/C_ambi40.png","圆形","word_first",""
"","","","","","html-keyboard-response","212","445636","0.0-13.0-1.0-1.0-0.0-1.26","null","<span style='color:GreenYellow; font-size: 70px;'>正确! </span>","null","","","","","","","","","","","","","","","","","","","","","","","feedback_test"
"","","","","","psychophysics","213","447327","0.0-13.0-1.0-1.0-0.0-0.27","538","","j","","","","","","","","","","","","","key","j","7.963113744075849","960","536","j","true","img/S_ambi40.png","三角","word_first",""
"","","","","","html-keyboard-response","214","447633","0.0-13.0-1.0-1.0-0.0-1.27","null","<span style='color:GreenYellow; font-size: 70px;'>正确! </span>","null","","","","","","","","","","","","","","","","","","","","","","","feedback_test"
"","","","","","psychophysics","215","449792","0.0-13.0-1.0-1.0-0.0-0.28","1004","","j","","","","","","","","","","","","","key","j","7.942357933579393","960","536","f","false","img/C_ambi40.png","圆形","word_first",""
"","","","","","html-keyboard-response","216","450102","0.0-13.0-1.0-1.0-0.0-1.28","null","<span style='color:red; font-size: 70px;'>错误! </span>","null","","","","","","","","","","","","","","","","","","","","","","","feedback_test"
"","","","","","psychophysics","217","451814","0.0-13.0-1.0-1.0-0.0-0.29","555","","f","","","","","","","","","","","","","key","f","7.912227906976816","960","536","f","true","img/T_ambi40.png","三角","word_first",""
"","","","","","html-keyboard-response","218","452125","0.0-13.0-1.0-1.0-0.0-1.29","null","<span style='color:GreenYellow; font-size: 70px;'>正确! </span>","null","","","","","","","","","","","","","","","","","","","","","","","feedback_test"
"","","","","","psychophysics","219","453782","0.0-13.0-1.0-1.0-0.0-0.30","503","","f","","","","","","","","","","","","","key","f","7.7623349056603335","960","536","f","true","img/T_ambi40.png","三角","word_first",""
"","","","","","html-keyboard-response","220","454091","0.0-13.0-1.0-1.0-0.0-1.30","null","<span style='color:GreenYellow; font-size: 70px;'>正确! </span>","null","","","","","","","","","","","","","","","","","","","","","","","feedback_test"
"","","","","","psychophysics","221","455740","0.0-13.0-1.0-1.0-0.0-0.31","495","","f","","","","","","","","","","","","","key","f","7.840100478468926","960","536","f","true","img/S_ambi40.png","方形","word_first",""
"","","","","","html-keyboard-response","222","456047","0.0-13.0-1.0-1.0-0.0-1.31","null","<span style='color:GreenYellow; font-size: 70px;'>正确! </span>","null","","","","","","","","","","","","","","","","","","","","","","","feedback_test"
"","","","","","psychophysics","223","457752","0.0-13.0-1.0-1.0-0.0-0.32","549","","j","","","","","","","","","","","","","key","j","7.731727272727452","960","536","j","true","img/C_ambi40.png","三角","word_first",""
"","","","","","html-keyboard-response","224","458058","0.0-13.0-1.0-1.0-0.0-1.32","null","<span style='color:GreenYellow; font-size: 70px;'>正确! </span>","null","","","","","","","","","","","","","","","","","","","","","","","feedback_test"
"","","","","","psychophysics","225","459774","0.0-13.0-1.0-1.0-0.0-0.33","565","","j","","","","","","","","","","","","","key","j","7.834729357797988","960","536","j","true","img/T_ambi40.png","方形","word_first",""
"","","","","","html-keyboard-response","226","460094","0.0-13.0-1.0-1.0-0.0-1.33","null","<span style='color:GreenYellow; font-size: 70px;'>正确! </span>","null","","","","","","","","","","","","","","","","","","","","","","","feedback_test"
"","","","","","psychophysics","227","461810","0.0-13.0-1.0-1.0-0.0-0.34","560","","j","","","","","","","","","","","","","key","j","7.8713317972348795","960","536","j","true","img/C_ambi40.png","方形","word_first",""
"","","","","","html-keyboard-response","228","462119","0.0-13.0-1.0-1.0-0.0-1.34","null","<span style='color:GreenYellow; font-size: 70px;'>正确! </span>","null","","","","","","","","","","","","","","","","","","","","","","","feedback_test"
"","","","","","psychophysics","229","463862","0.0-13.0-1.0-1.0-0.0-0.35","591","","f","","","","","","","","","","","","","key","f","7.680115044247812","960","536","f","true","img/S_ambi40.png","方形","word_first",""
"","","","","","html-keyboard-response","230","464173","0.0-13.0-1.0-1.0-0.0-1.35","null","<span style='color:GreenYellow; font-size: 70px;'>正确! </span>","null","","","","","","","","","","","","","","","","","","","","","","","feedback_test"
"","","","","","psychophysics","231","465954","0.0-13.0-1.0-1.0-0.0-0.36","629","","f","","","","","","","","","","","","","key","f","7.765412280701863","960","536","f","true","img/S_ambi40.png","方形","word_first",""
"","","","","","html-keyboard-response","232","466272","0.0-13.0-1.0-1.0-0.0-1.36","null","<span style='color:GreenYellow; font-size: 70px;'>正确! </span>","null","","","","","","","","","","","","","","","","","","","","","","","feedback_test"
"","","","","","psychophysics","233","467880","0.0-13.0-1.0-1.0-0.0-0.37","457","","j","","","","","","","","","","","","","key","j","7.984734999999928","960","536","j","true","img/S_ambi40.png","圆形","word_first",""
"","","","","","html-keyboard-response","234","468200","0.0-13.0-1.0-1.0-0.0-1.37","null","<span style='color:GreenYellow; font-size: 70px;'>正确! </span>","null","","","","","","","","","","","","","","","","","","","","","","","feedback_test"
"","","","","","psychophysics","235","469995","0.0-13.0-1.0-1.0-0.0-0.38","642","","j","","","","","","","","","","","","","key","j","7.860797356828249","960","536","j","true","img/S_ambi40.png","三角","word_first",""
"","","","","","html-keyboard-response","236","470313","0.0-13.0-1.0-1.0-0.0-1.38","null","<span style='color:GreenYellow; font-size: 70px;'>正确! </span>","null","","","","","","","","","","","","","","","","","","","","","","","feedback_test"
"","","","","","psychophysics","237","472019","0.0-13.0-1.0-1.0-0.0-0.39","554","","f","","","","","","","","","","","","","key","f","7.916499999999972","960","536","f","true","img/T_ambi40.png","三角","word_first",""
"","","","","","html-keyboard-response","238","472337","0.0-13.0-1.0-1.0-0.0-1.39","null","<span style='color:GreenYellow; font-size: 70px;'>正确! </span>","null","","","","","","","","","","","","","","","","","","","","","","","feedback_test"
"","","","","","psychophysics","239","473962","0.0-13.0-1.0-1.0-0.0-0.40","471","","f","","","","","","","","","","","","","key","f","7.896392156862752","960","536","f","true","img/C_ambi40.png","圆形","word_first",""
"","","","","","html-keyboard-response","240","474266","0.0-13.0-1.0-1.0-0.0-1.40","null","<span style='color:GreenYellow; font-size: 70px;'>正确! </span>","null","","","","","","","","","","","","","","","","","","","","","","","feedback_test"
"","","","","","psychophysics","241","476013","0.0-13.0-1.0-1.0-0.0-0.41","592","","j","","","","","","","","","","","","","key","j","7.677339207048432","960","536","j","true","img/C_ambi40.png","三角","word_first",""
"","","","","","html-keyboard-response","242","476329","0.0-13.0-1.0-1.0-0.0-1.41","null","<span style='color:GreenYellow; font-size: 70px;'>正确! </span>","null","","","","","","","","","","","","","","","","","","","","","","","feedback_test"
"","","","","","psychophysics","243","478109","0.0-13.0-1.0-1.0-0.0-0.42","626","","j","","","","","","","","","","","","","key","j","7.873129464285739","960","536","j","true","img/C_ambi40.png","方形","word_first",""
"","","","","","html-keyboard-response","244","478422","0.0-13.0-1.0-1.0-0.0-1.42","null","<span style='color:GreenYellow; font-size: 70px;'>正确! </span>","null","","","","","","","","","","","","","","","","","","","","","","","feedback_test"
"","","","","","psychophysics","245","480117","0.0-13.0-1.0-1.0-0.0-0.43","543","","f","","","","","","","","","","","","","key","f","7.851901869158746","960","536","f","true","img/T_ambi40.png","三角","word_first",""
"","","","","","html-keyboard-response","246","480430","0.0-13.0-1.0-1.0-0.0-1.43","null","<span style='color:GreenYellow; font-size: 70px;'>正确! </span>","null","","","","","","","","","","","","","","","","","","","","","","","feedback_test"
"","","","","","psychophysics","247","482103","0.0-13.0-1.0-1.0-0.0-0.44","516","","j","","","","","","","","","","","","","key","j","7.897345971564103","960","536","j","true","img/T_ambi40.png","方形","word_first",""
"","","","","","html-keyboard-response","248","482405","0.0-13.0-1.0-1.0-0.0-1.44","null","<span style='color:GreenYellow; font-size: 70px;'>正确! </span>","null","","","","","","","","","","","","","","","","","","","","","","","feedback_test"
"","","","","","psychophysics","249","484048","0.0-13.0-1.0-1.0-0.0-0.45","490","","f","","","","","","","","","","","","","key","f","7.920451456310738","960","536","f","true","img/S_ambi40.png","方形","word_first",""
"","","","","","html-keyboard-response","250","484358","0.0-13.0-1.0-1.0-0.0-1.45","null","<span style='color:GreenYellow; font-size: 70px;'>正确! </span>","null","","","","","","","","","","","","","","","","","","","","","","","feedback_test"
"","","","","","psychophysics","251","486003","0.0-13.0-1.0-1.0-0.0-0.46","494","","f","","","","","","","","","","","","","key","f","7.656827102803677","960","536","f","true","img/C_ambi40.png","圆形","word_first",""
"","","","","","html-keyboard-response","252","486321","0.0-13.0-1.0-1.0-0.0-1.46","null","<span style='color:GreenYellow; font-size: 70px;'>正确! </span>","null","","","","","","","","","","","","","","","","","","","","","","","feedback_test"
"","","","","","psychophysics","253","488020","0.0-13.0-1.0-1.0-0.0-0.47","546","","j","","","","","","","","","","","","","key","j","7.8112314814815935","960","536","j","true","img/T_ambi40.png","圆形","word_first",""
"","","","","","html-keyboard-response","254","488336","0.0-13.0-1.0-1.0-0.0-1.47","null","<span style='color:GreenYellow; font-size: 70px;'>正确! </span>","null","","","","","","","","","","","","","","","","","","","","","","","feedback_test"
"","","","","","psychophysics","255","490005","0.0-13.0-1.0-1.0-0.0-0.48","517","","j","","","","","","","","","","","","","key","j","7.790830985915425","960","536","j","true","img/T_ambi40.png","圆形","word_first",""
"","","","","","html-keyboard-response","256","490321","0.0-13.0-1.0-1.0-0.0-1.48","null","<span style='color:GreenYellow; font-size: 70px;'>正确! </span>","null","","","","","","","","","","","","","","","","","","","","","","","feedback_test"
"","","","","","psychophysics","257","492023","0.0-13.0-1.0-1.0-0.0-0.49","550","","f","","","","","","","","","","","","","key","f","7.771243119266027","960","536","j","false","img/C_ambi40.png","三角","word_first",""
"","","","","","html-keyboard-response","258","492326","0.0-13.0-1.0-1.0-0.0-1.49","null","<span style='color:red; font-size: 70px;'>错误! </span>","null","","","","","","","","","","","","","","","","","","","","","","","feedback_test"
"","","","","","psychophysics","259","494024","0.0-13.0-1.0-1.0-0.0-0.50","544","","f","","","","","","","","","","","","","key","f","7.631836363636434","960","536","f","true","img/C_ambi40.png","圆形","word_first",""
"","","","","","html-keyboard-response","260","494334","0.0-13.0-1.0-1.0-0.0-1.50","null","<span style='color:GreenYellow; font-size: 70px;'>正确! </span>","null","","","","","","","","","","","","","","","","","","","","","","","feedback_test"
"","","","","","psychophysics","261","496068","0.0-13.0-1.0-1.0-0.0-0.51","582","","j","","","","","","","","","","","","","key","j","7.6526977777775995","960","536","j","true","img/S_ambi40.png","圆形","word_first",""
"","","","","","html-keyboard-response","262","496376","0.0-13.0-1.0-1.0-0.0-1.51","null","<span style='color:GreenYellow; font-size: 70px;'>正确! </span>","null","","","","","","","","","","","","","","","","","","","","","","","feedback_test"
"","","","","","psychophysics","263","498359","0.0-13.0-1.0-1.0-0.0-0.52","832","","f","","","","","","","","","","","","","key","f","7.824837301587289","960","536","f","true","img/T_ambi40.png","三角","word_first",""
"","","","","","html-keyboard-response","264","498680","0.0-13.0-1.0-1.0-0.0-1.52","null","<span style='color:GreenYellow; font-size: 70px;'>正确! </span>","null","","","","","","","","","","","","","","","","","","","","","","","feedback_test"
"","","","","","psychophysics","265","500345","0.0-13.0-1.0-1.0-0.0-0.53","512","","f","","","","","","","","","","","","","key","f","7.758272300469427","960","536","f","true","img/S_ambi40.png","方形","word_first",""
"","","","","","html-keyboard-response","266","500659","0.0-13.0-1.0-1.0-0.0-1.53","null","<span style='color:GreenYellow; font-size: 70px;'>正确! </span>","null","","","","","","","","","","","","","","","","","","","","","","","feedback_test"
"","","","","","psychophysics","267","502413","0.0-13.0-1.0-1.0-0.0-0.54","601","","f","","","","","","","","","","","","","key","f","7.8501891891893125","960","536","f","true","img/S_ambi40.png","方形","word_first",""
"","","","","","html-keyboard-response","268","502728","0.0-13.0-1.0-1.0-0.0-1.54","null","<span style='color:GreenYellow; font-size: 70px;'>正确! </span>","null","","","","","","","","","","","","","","","","","","","","","","","feedback_test"
"","","","","","psychophysics","269","504426","0.0-13.0-1.0-1.0-0.0-0.55","545","","j","","","","","","","","","","","","","key","j","7.634280542986324","960","536","j","true","img/T_ambi40.png","方形","word_first",""
"","","","","","html-keyboard-response","270","504744","0.0-13.0-1.0-1.0-0.0-1.55","null","<span style='color:GreenYellow; font-size: 70px;'>正确! </span>","null","","","","","","","","","","","","","","","","","","","","","","","feedback_test"
"","","","","","psychophysics","271","506480","0.0-13.0-1.0-1.0-0.0-0.56","585","","f","","","","","","","","","","","","","key","f","7.822882352940995","960","536","f","true","img/T_ambi40.png","三角","word_first",""
"","","","","","html-keyboard-response","272","506789","0.0-13.0-1.0-1.0-0.0-1.56","null","<span style='color:GreenYellow; font-size: 70px;'>正确! </span>","null","","","","","","","","","","","","","","","","","","","","","","","feedback_test"
"","","","","","psychophysics","273","508501","0.0-13.0-1.0-1.0-0.0-0.57","558","","j","","","","","","","","","","","","","key","j","7.767356164383459","960","536","j","true","img/S_ambi40.png","三角","word_first",""
"","","","","","html-keyboard-response","274","508807","0.0-13.0-1.0-1.0-0.0-1.57","null","<span style='color:GreenYellow; font-size: 70px;'>正确! </span>","null","","","","","","","","","","","","","","","","","","","","","","","feedback_test"
"","","","","","psychophysics","275","510771","0.0-13.0-1.0-1.0-0.0-0.58","808","","j","","","","","","","","","","","","","key","j","7.678262745098247","960","536","j","true","img/C_ambi40.png","方形","word_first",""
"","","","","","html-keyboard-response","276","511081","0.0-13.0-1.0-1.0-0.0-1.58","null","<span style='color:GreenYellow; font-size: 70px;'>正确! </span>","null","","","","","","","","","","","","","","","","","","","","","","","feedback_test"
"","","","","","psychophysics","277","512674","0.0-13.0-1.0-1.0-0.0-0.59","433","","f","","","","","","","","","","","","","key","f","7.8758358208955475","960","536","f","true","img/C_ambi40.png","圆形","word_first",""
"","","","","","html-keyboard-response","278","512979","0.0-13.0-1.0-1.0-0.0-1.59","null","<span style='color:GreenYellow; font-size: 70px;'>正确! </span>","null","","","","","","","","","","","","","","","","","","","","","","","feedback_test"
"","","","","","html-keyboard-response","279","517853","0.0-13.0-1.0-1.0-1.0","4873","<style>.context{color:white; font-size: 35px; line-height:40px}</style>                            <div><p class='context'>您正确回答了93% 的试次。</p><p class='context'>您的平均反应时为585毫秒。</p><p class='context'>请按任意键进入休息</p></div>"," ","","","","","","","","","","","","","","","","","","","","","","",""
"","","","","","html-button-response","280","583365","0.0-13.0-1.0-1.0-2.0","65510","
                    <p>您当前还剩余3组实验</p>
                    <p>现在是休息时间，当您结束休息后，您可以点击 结束休息 按钮 继续</p>
                    <p>建议休息时间还剩余<span id=""iii"">60</span>秒</p>","0","","","","","","","","","","","","","","","","","","","","","","",""
"","","","","","psychophysics","281","585194","0.0-13.0-1.0-1.0-0.1-0.60","676","","f","","","","","","","","","","","","","key","f","7.859610389610168","960","536","f","true","img/C_ambi40.png","圆形","word_first",""
"","","","","","html-keyboard-response","282","585507","0.0-13.0-1.0-1.0-0.1-1.60","null","<span style='color:GreenYellow; font-size: 70px;'>正确! </span>","null","","","","","","","","","","","","","","","","","","","","","","","feedback_test"
"","","","","","psychophysics","283","587204","0.0-13.0-1.0-1.0-0.1-0.61","546","","j","","","","","","","","","","","","","key","j","7.814911627907002","960","536","j","true","img/T_ambi40.png","圆形","word_first",""
"","","","","","html-keyboard-response","284","587514","0.0-13.0-1.0-1.0-0.1-1.61","null","<span style='color:GreenYellow; font-size: 70px;'>正确! </span>","null","","","","","","","","","","","","","","","","","","","","","","","feedback_test"
"","","","","","psychophysics","285","589564","0.0-13.0-1.0-1.0-0.1-0.62","894","","j","","","","","","","","","","","","","key","j","7.881648648648458","960","536","j","true","img/C_ambi40.png","三角","word_first",""
"","","","","","html-keyboard-response","286","589880","0.0-13.0-1.0-1.0-0.1-1.62","null","<span style='color:GreenYellow; font-size: 70px;'>正确! </span>","null","","","","","","","","","","","","","","","","","","","","","","","feedback_test"
"","","","","","psychophysics","287","591575","0.0-13.0-1.0-1.0-0.1-0.63","544","","j","","","","","","","","","","","","","key","j","7.7394541284403715","960","536","j","true","img/T_ambi40.png","方形","word_first",""
"","","","","","html-keyboard-response","288","591884","0.0-13.0-1.0-1.0-0.1-1.63","null","<span style='color:GreenYellow; font-size: 70px;'>正确! </span>","null","","","","","","","","","","","","","","","","","","","","","","","feedback_test"
"","","","","","psychophysics","289","593580","0.0-13.0-1.0-1.0-0.1-0.64","543","","f","","","","","","","","","","","","","key","f","7.811356481481063","960","536","j","false","img/S_ambi40.png","三角","word_first",""
"","","","","","html-keyboard-response","290","593881","0.0-13.0-1.0-1.0-0.1-1.64","null","<span style='color:red; font-size: 70px;'>错误! </span>","null","","","","","","","","","","","","","","","","","","","","","","","feedback_test"
"","","","","","psychophysics","291","595765","0.0-13.0-1.0-1.0-0.1-0.65","728","","j","","","","","","","","","","","","","key","j","7.843489539748639","960","536","j","true","img/S_ambi40.png","圆形","word_first",""
"","","","","","html-keyboard-response","292","596067","0.0-13.0-1.0-1.0-0.1-1.65","null","<span style='color:GreenYellow; font-size: 70px;'>正确! </span>","null","","","","","","","","","","","","","","","","","","","","","","","feedback_test"
"","","","","","psychophysics","293","597975","0.0-13.0-1.0-1.0-0.1-0.66","757","","j","","","","","","","","","","","","","key","j","7.671237903226058","960","536","f","false","img/S_ambi40.png","方形","word_first",""
"","","","","","html-keyboard-response","294","598292","0.0-13.0-1.0-1.0-0.1-1.66","null","<span style='color:red; font-size: 70px;'>错误! </span>","null","","","","","","","","","","","","","","","","","","","","","","","feedback_test"
"","","","","","psychophysics","295","600151","0.0-13.0-1.0-1.0-0.1-0.67","705","","j","","","","","","","","","","","","","key","j","7.860200854700903","960","536","j","true","img/C_ambi40.png","方形","word_first",""
"","","","","","html-keyboard-response","296","600459","0.0-13.0-1.0-1.0-0.1-1.67","null","<span style='color:GreenYellow; font-size: 70px;'>正确! </span>","null","","","","","","","","","","","","","","","","","","","","","","","feedback_test"
"","","","","","psychophysics","297","602113","0.0-13.0-1.0-1.0-0.1-0.68","501","","f","","","","","","","","","","","","","key","f","7.725539906103461","960","536","f","true","img/T_ambi40.png","三角","word_first",""
"","","","","","html-keyboard-response","298","602432","0.0-13.0-1.0-1.0-0.1-1.68","null","<span style='color:GreenYellow; font-size: 70px;'>正确! </span>","null","","","","","","","","","","","","","","","","","","","","","","","feedback_test"
"","","","","","psychophysics","299","604114","0.0-13.0-1.0-1.0-0.1-0.69","530","","f","","","","","","","","","","","","","key","f","7.8646966824644595","960","536","f","true","img/C_ambi40.png","圆形","word_first",""
"","","","","","html-keyboard-response","300","604421","0.0-13.0-1.0-1.0-0.1-1.69","null","<span style='color:GreenYellow; font-size: 70px;'>正确! </span>","null","","","","","","","","","","","","","","","","","","","","","","","feedback_test"
"","","","","","psychophysics","301","606175","0.0-13.0-1.0-1.0-0.1-0.70","599","","f","","","","","","","","","","","","","key","f","7.881734234234213","960","536","f","true","img/T_ambi40.png","三角","word_first",""
"","","","","","html-keyboard-response","302","606497","0.0-13.0-1.0-1.0-0.1-1.70","null","<span style='color:GreenYellow; font-size: 70px;'>正确! </span>","null","","","","","","","","","","","","","","","","","","","","","","","feedback_test"
"","","","","","psychophysics","303","608186","0.0-13.0-1.0-1.0-0.1-0.71","532","","f","","","","","","","","","","","","","key","f","7.851369158878909","960","536","f","true","img/S_ambi40.png","方形","word_first",""
"","","","","","html-keyboard-response","304","608494","0.0-13.0-1.0-1.0-0.1-1.71","null","<span style='color:GreenYellow; font-size: 70px;'>正确! </span>","null","","","","","","","","","","","","","","","","","","","","","","","feedback_test"
"","","","","","psychophysics","305","610203","0.0-13.0-1.0-1.0-0.1-0.72","550","","j","","","","","","","","","","","","","key","j","7.66239639639651","960","536","j","true","img/C_ambi40.png","方形","word_first",""
"","","","","","html-keyboard-response","306","610521","0.0-13.0-1.0-1.0-0.1-1.72","null","<span style='color:GreenYellow; font-size: 70px;'>正确! </span>","null","","","","","","","","","","","","","","","","","","","","","","","feedback_test"
"","","","","","psychophysics","307","612279","0.0-13.0-1.0-1.0-0.1-0.73","606","","j","","","","","","","","","","","","","key","j","7.810794642857218","960","536","j","true","img/T_ambi40.png","圆形","word_first",""
"","","","","","html-keyboard-response","308","612593","0.0-13.0-1.0-1.0-0.1-1.73","null","<span style='color:GreenYellow; font-size: 70px;'>正确! </span>","null","","","","","","","","","","","","","","","","","","","","","","","feedback_test"
"","","","","","psychophysics","309","614286","0.0-13.0-1.0-1.0-0.1-0.74","538","","f","","","","","","","","","","","","","key","f","7.739793577981758","960","536","f","true","img/C_ambi40.png","圆形","word_first",""
"","","","","","html-keyboard-response","310","614600","0.0-13.0-1.0-1.0-0.1-1.74","null","<span style='color:GreenYellow; font-size: 70px;'>正确! </span>","null","","","","","","","","","","","","","","","","","","","","","","","feedback_test"
"","","","","","psychophysics","311","616324","0.0-13.0-1.0-1.0-0.1-0.75","569","","j","","","","","","","","","","","","","key","j","7.835366972477","960","536","j","true","img/S_ambi40.png","圆形","word_first",""
"","","","","","html-keyboard-response","312","616636","0.0-13.0-1.0-1.0-0.1-1.75","null","<span style='color:GreenYellow; font-size: 70px;'>正确! </span>","null","","","","","","","","","","","","","","","","","","","","","","","feedback_test"
"","","","","","psychophysics","313","618348","0.0-13.0-1.0-1.0-0.1-0.76","559","","f","","","","","","","","","","","","","key","f","7.697375565610838","960","536","j","false","img/C_ambi40.png","三角","word_first",""
"","","","","","html-keyboard-response","314","618654","0.0-13.0-1.0-1.0-0.1-1.76","null","<span style='color:red; font-size: 70px;'>错误! </span>","null","","","","","","","","","","","","","","","","","","","","","","","feedback_test"
"","","","","","psychophysics","315","620385","0.0-13.0-1.0-1.0-0.1-0.77","576","","j","","","","","","","","","","","","","key","j","7.622644444444838","960","536","j","true","img/S_ambi40.png","三角","word_first",""
"","","","","","html-keyboard-response","316","620700","0.0-13.0-1.0-1.0-0.1-1.77","null","<span style='color:GreenYellow; font-size: 70px;'>正确! </span>","null","","","","","","","","","","","","","","","","","","","","","","","feedback_test"
"","","","","","psychophysics","317","622461","0.0-13.0-1.0-1.0-0.1-0.78","602","","f","","","","","","","","","","","","","key","f","7.881630630630933","960","536","f","true","img/T_ambi40.png","三角","word_first",""
"","","","","","html-keyboard-response","318","622782","0.0-13.0-1.0-1.0-0.1-1.78","null","<span style='color:GreenYellow; font-size: 70px;'>正确! </span>","null","","","","","","","","","","","","","","","","","","","","","","","feedback_test"
"","","","","","psychophysics","319","624578","0.0-13.0-1.0-1.0-0.1-0.79","644","","f","","","","","","","","","","","","","key","f","7.758591304347932","960","536","f","true","img/T_ambi40.png","三角","word_first",""
"","","","","","html-keyboard-response","320","624883","0.0-13.0-1.0-1.0-0.1-1.79","null","<span style='color:GreenYellow; font-size: 70px;'>正确! </span>","null","","","","","","","","","","","","","","","","","","","","","","","feedback_test"
"","","","","","psychophysics","321","626621","0.0-13.0-1.0-1.0-0.1-0.80","584","","j","","","","","","","","","","","","","key","j","7.894474885844812","960","536","j","true","img/T_ambi40.png","方形","word_first",""
"","","","","","html-keyboard-response","322","626933","0.0-13.0-1.0-1.0-0.1-1.80","null","<span style='color:GreenYellow; font-size: 70px;'>正确! </span>","null","","","","","","","","","","","","","","","","","","","","","","","feedback_test"
"","","","","","psychophysics","323","628664","0.0-13.0-1.0-1.0-0.1-0.81","577","","f","","","","","","","","","","","","","key","f","7.934635944700422","960","536","f","true","img/S_ambi40.png","方形","word_first",""
"","","","","","html-keyboard-response","324","628983","0.0-13.0-1.0-1.0-0.1-1.81","null","<span style='color:GreenYellow; font-size: 70px;'>正确! </span>","null","","","","","","","","","","","","","","","","","","","","","","","feedback_test"
"","","","","","psychophysics","325","630728","0.0-13.0-1.0-1.0-0.1-0.82","594","","f","","","","","","","","","","","","","key","f","7.787887387387224","960","536","f","true","img/C_ambi40.png","圆形","word_first",""
"","","","","","html-keyboard-response","326","631039","0.0-13.0-1.0-1.0-0.1-1.82","null","<span style='color:GreenYellow; font-size: 70px;'>正确! </span>","null","","","","","","","","","","","","","","","","","","","","","","","feedback_test"
"","","","","","psychophysics","327","632635","0.0-13.0-1.0-1.0-0.1-0.83","446","","f","","","","","","","","","","","","","key","f","7.794058823529471","960","536","f","true","img/S_ambi40.png","方形","word_first",""
"","","","","","html-keyboard-response","328","632942","0.0-13.0-1.0-1.0-0.1-1.83","null","<span style='color:GreenYellow; font-size: 70px;'>正确! </span>","null","","","","","","","","","","","","","","","","","","","","","","","feedback_test"
"","","","","","psychophysics","329","634636","0.0-13.0-1.0-1.0-0.1-0.84","537","","j","","","","","","","","","","","","","key","j","7.7043744292238845","960","536","j","true","img/T_ambi40.png","圆形","word_first",""
"","","","","","html-keyboard-response","330","634943","0.0-13.0-1.0-1.0-0.1-1.84","null","<span style='color:GreenYellow; font-size: 70px;'>正确! </span>","null","","","","","","","","","","","","","","","","","","","","","","","feedback_test"
"","","","","","psychophysics","331","637057","0.0-13.0-1.0-1.0-0.1-0.85","959","","f","","","","","","","","","","","","","key","f","7.820583643122545","960","536","f","true","img/T_ambi40.png","三角","word_first",""
"","","","","","html-keyboard-response","332","637374","0.0-13.0-1.0-1.0-0.1-1.85","null","<span style='color:GreenYellow; font-size: 70px;'>正确! </span>","null","","","","","","","","","","","","","","","","","","","","","","","feedback_test"
"","","","","","psychophysics","333","638977","0.0-13.0-1.0-1.0-0.1-0.86","449","","f","","","","","","","","","","","","","key","f","7.790536585366127","960","536","f","true","img/T_ambi40.png","三角","word_first",""
"","","","","","html-keyboard-response","334","639285","0.0-13.0-1.0-1.0-0.1-1.86","null","<span style='color:GreenYellow; font-size: 70px;'>正确! </span>","null","","","","","","","","","","","","","","","","","","","","","","","feedback_test"
"","","","","","psychophysics","335","641369","0.0-13.0-1.0-1.0-0.1-0.87","931","","j","","","","","","","","","","","","","key","j","7.80430451127844","960","536","j","true","img/C_ambi40.png","三角","word_first",""
"","","","","","html-keyboard-response","336","641685","0.0-13.0-1.0-1.0-0.1-1.87","null","<span style='color:GreenYellow; font-size: 70px;'>正确! </span>","null","","","","","","","","","","","","","","","","","","","","","","","feedback_test"
"","","","","","psychophysics","337","643631","0.0-13.0-1.0-1.0-0.1-0.88","791","","f","","","","","","","","","","","","","key","f","7.842951417003706","960","536","f","true","img/S_ambi40.png","方形","word_first",""
"","","","","","html-keyboard-response","338","643951","0.0-13.0-1.0-1.0-0.1-1.88","null","<span style='color:GreenYellow; font-size: 70px;'>正确! </span>","null","","","","","","","","","","","","","","","","","","","","","","","feedback_test"
"","","","","","psychophysics","339","645575","0.0-13.0-1.0-1.0-0.1-0.89","471","","f","","","","","","","","","","","","","key","f","7.59867452830241","960","536","f","true","img/S_ambi40.png","方形","word_first",""
"","","","","","html-keyboard-response","340","645887","0.0-13.0-1.0-1.0-0.1-1.89","null","<span style='color:GreenYellow; font-size: 70px;'>正确! </span>","null","","","","","","","","","","","","","","","","","","","","","","","feedback_test"
"","","","","","psychophysics","341","647547","0.0-13.0-1.0-1.0-0.1-0.90","506","","j","","","","","","","","","","","","","key","j","7.8782163461538195","960","536","j","true","img/S_ambi40.png","三角","word_first",""
"","","","","","html-keyboard-response","342","647863","0.0-13.0-1.0-1.0-0.1-1.90","null","<span style='color:GreenYellow; font-size: 70px;'>正确! </span>","null","","","","","","","","","","","","","","","","","","","","","","","feedback_test"
"","","","","","psychophysics","343","649716","0.0-13.0-1.0-1.0-0.1-0.91","696","","j","","","","","","","","","","","","","key","j","7.82979574468076","960","536","j","true","img/S_ambi40.png","圆形","word_first",""
"","","","","","html-keyboard-response","344","650026","0.0-13.0-1.0-1.0-0.1-1.91","null","<span style='color:GreenYellow; font-size: 70px;'>正确! </span>","null","","","","","","","","","","","","","","","","","","","","","","","feedback_test"
"","","","","","psychophysics","345","651982","0.0-13.0-1.0-1.0-0.1-0.92","803","","j","","","","","","","","","","","","","key","j","7.807787148594243","960","536","j","true","img/C_ambi40.png","方形","word_first",""
"","","","","","html-keyboard-response","346","652298","0.0-13.0-1.0-1.0-0.1-1.92","null","<span style='color:GreenYellow; font-size: 70px;'>正确! </span>","null","","","","","","","","","","","","","","","","","","","","","","","feedback_test"
"","","","","","psychophysics","347","653930","0.0-13.0-1.0-1.0-0.1-0.93","480","","f","","","","","","","","","","","","","key","f","7.810846153845957","960","536","f","true","img/C_ambi40.png","圆形","word_first",""
"","","","","","html-keyboard-response","348","654245","0.0-13.0-1.0-1.0-0.1-1.93","null","<span style='color:GreenYellow; font-size: 70px;'>正确! </span>","null","","","","","","","","","","","","","","","","","","","","","","","feedback_test"
"","","","","","psychophysics","349","655931","0.0-13.0-1.0-1.0-0.1-0.94","531","","j","","","","","","","","","","","","","key","j","7.7071743119265586","960","536","j","true","img/T_ambi40.png","方形","word_first",""
"","","","","","html-keyboard-response","350","656236","0.0-13.0-1.0-1.0-0.1-1.94","null","<span style='color:GreenYellow; font-size: 70px;'>正确! </span>","null","","","","","","","","","","","","","","","","","","","","","","","feedback_test"
"","","","","","psychophysics","351","658488","0.0-13.0-1.0-1.0-0.1-0.95","1094","","f","","","","","","","","","","","","","key","f","7.733179310344737","960","536","f","true","img/C_ambi40.png","圆形","word_first",""
"","","","","","html-keyboard-response","352","658804","0.0-13.0-1.0-1.0-0.1-1.95","null","<span style='color:GreenYellow; font-size: 70px;'>正确! </span>","null","","","","","","","","","","","","","","","","","","","","","","","feedback_test"
"","","","","","psychophysics","353","660775","0.0-13.0-1.0-1.0-0.1-0.96","819","","j","","","","","","","","","","","","","key","j","7.708401574803182","960","536","j","true","img/S_ambi40.png","圆形","word_first",""
"","","","","","html-keyboard-response","354","661091","0.0-13.0-1.0-1.0-0.1-1.96","null","<span style='color:GreenYellow; font-size: 70px;'>正确! </span>","null","","","","","","","","","","","","","","","","","","","","","","","feedback_test"
"","","","","","psychophysics","355","663214","0.0-13.0-1.0-1.0-0.1-0.97","967","","j","","","","","","","","","","","","","key","j","7.672695652173876","960","536","j","true","img/S_ambi40.png","三角","word_first",""
"","","","","","html-keyboard-response","356","663524","0.0-13.0-1.0-1.0-0.1-1.97","null","<span style='color:GreenYellow; font-size: 70px;'>正确! </span>","null","","","","","","","","","","","","","","","","","","","","","","","feedback_test"
"","","","","","psychophysics","357","665407","0.0-13.0-1.0-1.0-0.1-0.98","731","","j","","","","","","","","","","","","","key","j","7.682811475409477","960","536","j","true","img/T_ambi40.png","方形","word_first",""
"","","","","","html-keyboard-response","358","665719","0.0-13.0-1.0-1.0-0.1-1.98","null","<span style='color:GreenYellow; font-size: 70px;'>正确! </span>","null","","","","","","","","","","","","","","","","","","","","","","","feedback_test"
"","","","","","psychophysics","359","667414","0.0-13.0-1.0-1.0-0.1-0.99","544","","f","","","","","","","","","","","","","key","f","7.775198156681998","960","536","f","true","img/T_ambi40.png","三角","word_first",""
"","","","","","html-keyboard-response","360","667732","0.0-13.0-1.0-1.0-0.1-1.99","null","<span style='color:GreenYellow; font-size: 70px;'>正确! </span>","null","","","","","","","","","","","","","","","","","","","","","","","feedback_test"
"","","","","","psychophysics","361","669471","0.0-13.0-1.0-1.0-0.1-0.100","587","","f","","","","","","","","","","","","","key","f","7.9308348623854155","960","536","f","true","img/S_ambi40.png","方形","word_first",""
"","","","","","html-keyboard-response","362","669787","0.0-13.0-1.0-1.0-0.1-1.100","null","<span style='color:GreenYellow; font-size: 70px;'>正确! </span>","null","","","","","","","","","","","","","","","","","","","","","","","feedback_test"
"","","","","","psychophysics","363","671497","0.0-13.0-1.0-1.0-0.1-0.101","558","","j","","","","","","","","","","","","","key","j","7.875393518518346","960","536","f","false","img/T_ambi40.png","三角","word_first",""
"","","","","","html-keyboard-response","364","671817","0.0-13.0-1.0-1.0-0.1-1.101","null","<span style='color:red; font-size: 70px;'>错误! </span>","null","","","","","","","","","","","","","","","","","","","","","","","feedback_test"
"","","","","","psychophysics","365","673464","0.0-13.0-1.0-1.0-0.1-0.102","490","","f","","","","","","","","","","","","","key","f","7.920213592233073","960","536","f","true","img/S_ambi40.png","方形","word_first",""
"","","","","","html-keyboard-response","366","673778","0.0-13.0-1.0-1.0-0.1-1.102","null","<span style='color:GreenYellow; font-size: 70px;'>正确! </span>","null","","","","","","","","","","","","","","","","","","","","","","","feedback_test"
"","","","","","psychophysics","367","675436","0.0-13.0-1.0-1.0-0.1-0.103","505","","j","","","","","","","","","","","","","key","j","7.798720379147052","960","536","j","true","img/C_ambi40.png","三角","word_first",""
"","","","","","html-keyboard-response","368","675748","0.0-13.0-1.0-1.0-0.1-1.103","null","<span style='color:GreenYellow; font-size: 70px;'>正确! </span>","null","","","","","","","","","","","","","","","","","","","","","","","feedback_test"
"","","","","","psychophysics","369","677431","0.0-13.0-1.0-1.0-0.1-0.104","528","","f","","","","","","","","","","","","","key","f","7.675944954128573","960","536","f","true","img/C_ambi40.png","圆形","word_first",""
"","","","","","html-keyboard-response","370","677747","0.0-13.0-1.0-1.0-0.1-1.104","null","<span style='color:GreenYellow; font-size: 70px;'>正确! </span>","null","","","","","","","","","","","","","","","","","","","","","","","feedback_test"
"","","","","","psychophysics","371","679412","0.0-13.0-1.0-1.0-0.1-0.105","509","","f","","","","","","","","","","","","","key","f","7.646732718894078","960","536","f","true","img/C_ambi40.png","圆形","word_first",""
"","","","","","html-keyboard-response","372","679723","0.0-13.0-1.0-1.0-0.1-1.105","null","<span style='color:GreenYellow; font-size: 70px;'>正确! </span>","null","","","","","","","","","","","","","","","","","","","","","","","feedback_test"
"","","","","","psychophysics","373","681860","0.0-13.0-1.0-1.0-0.1-0.106","985","","j","","","","","","","","","","","","","key","j","7.868911111111218","960","536","j","true","img/T_ambi40.png","圆形","word_first",""
"","","","","","html-keyboard-response","374","682169","0.0-13.0-1.0-1.0-0.1-1.106","null","<span style='color:GreenYellow; font-size: 70px;'>正确! </span>","null","","","","","","","","","","","","","","","","","","","","","","","feedback_test"
"","","","","","psychophysics","375","684253","0.0-13.0-1.0-1.0-0.1-0.107","930","","j","","","","","","","","","","","","","key","j","7.867292775665392","960","536","j","true","img/C_ambi40.png","方形","word_first",""
"","","","","","html-keyboard-response","376","684567","0.0-13.0-1.0-1.0-0.1-1.107","null","<span style='color:GreenYellow; font-size: 70px;'>正确! </span>","null","","","","","","","","","","","","","","","","","","","","","","","feedback_test"
"","","","","","psychophysics","377","686446","0.0-13.0-1.0-1.0-0.1-0.108","725","","f","","","","","","","","","","","","","key","f","7.748220833333714","960","536","f","true","img/C_ambi40.png","圆形","word_first",""
"","","","","","html-keyboard-response","378","686762","0.0-13.0-1.0-1.0-0.1-1.108","null","<span style='color:GreenYellow; font-size: 70px;'>正确! </span>","null","","","","","","","","","","","","","","","","","","","","","","","feedback_test"
"","","","","","psychophysics","379","688523","0.0-13.0-1.0-1.0-0.1-0.109","608","","f","","","","","","","","","","","","","key","f","7.776168888889046","960","536","f","true","img/T_ambi40.png","三角","word_first",""
"","","","","","html-keyboard-response","380","688838","0.0-13.0-1.0-1.0-0.1-1.109","null","<span style='color:GreenYellow; font-size: 70px;'>正确! </span>","null","","","","","","","","","","","","","","","","","","","","","","","feedback_test"
"","","","","","psychophysics","381","690557","0.0-13.0-1.0-1.0-0.1-0.110","566","","j","","","","","","","","","","","","","key","j","7.87117511520703","960","536","j","true","img/T_ambi40.png","圆形","word_first",""
"","","","","","html-keyboard-response","382","690867","0.0-13.0-1.0-1.0-0.1-1.110","null","<span style='color:GreenYellow; font-size: 70px;'>正确! </span>","null","","","","","","","","","","","","","","","","","","","","","","","feedback_test"
"","","","","","psychophysics","383","692549","0.0-13.0-1.0-1.0-0.1-0.111","531","","j","","","","","","","","","","","","","key","j","7.503641255605536","960","536","j","true","img/T_ambi40.png","方形","word_first",""
"","","","","","html-keyboard-response","384","692852","0.0-13.0-1.0-1.0-0.1-1.111","null","<span style='color:GreenYellow; font-size: 70px;'>正确! </span>","null","","","","","","","","","","","","","","","","","","","","","","","feedback_test"
"","","","","","psychophysics","385","694613","0.0-13.0-1.0-1.0-0.1-0.112","609","","f","","","","","","","","","","","","","key","f","7.640152838427825","960","536","f","true","img/C_ambi40.png","圆形","word_first",""
"","","","","","html-keyboard-response","386","694921","0.0-13.0-1.0-1.0-0.1-1.112","null","<span style='color:GreenYellow; font-size: 70px;'>正确! </span>","null","","","","","","","","","","","","","","","","","","","","","","","feedback_test"
"","","","","","psychophysics","387","696569","0.0-13.0-1.0-1.0-0.1-0.113","496","","f","","","","","","","","","","","","","key","f","7.765909952606445","960","536","f","true","img/T_ambi40.png","三角","word_first",""
"","","","","","html-keyboard-response","388","696888","0.0-13.0-1.0-1.0-0.1-1.113","null","<span style='color:GreenYellow; font-size: 70px;'>正确! </span>","null","","","","","","","","","","","","","","","","","","","","","","","feedback_test"
"","","","","","psychophysics","389","698627","0.0-13.0-1.0-1.0-0.1-0.114","589","","j","","","","","","","","","","","","","key","j","7.718245535714232","960","536","j","true","img/S_ambi40.png","三角","word_first",""
"","","","","","html-keyboard-response","390","698937","0.0-13.0-1.0-1.0-0.1-1.114","null","<span style='color:GreenYellow; font-size: 70px;'>正确! </span>","null","","","","","","","","","","","","","","","","","","","","","","","feedback_test"
"","","","","","psychophysics","391","700750","0.0-13.0-1.0-1.0-0.1-0.115","657","","j","","","","","","","","","","","","","key","j","7.814865800865535","960","536","j","true","img/C_ambi40.png","方形","word_first",""
"","","","","","html-keyboard-response","392","701063","0.0-13.0-1.0-1.0-0.1-1.115","null","<span style='color:GreenYellow; font-size: 70px;'>正确! </span>","null","","","","","","","","","","","","","","","","","","","","","","","feedback_test"
"","","","","","psychophysics","393","702793","0.0-13.0-1.0-1.0-0.1-0.116","576","","j","","","","","","","","","","","","","key","j","7.971620370370349","960","536","j","true","img/S_ambi40.png","圆形","word_first",""
"","","","","","html-keyboard-response","394","703106","0.0-13.0-1.0-1.0-0.1-1.116","null","<span style='color:GreenYellow; font-size: 70px;'>正确! </span>","null","","","","","","","","","","","","","","","","","","","","","","","feedback_test"
"","","","","","psychophysics","395","704733","0.0-13.0-1.0-1.0-0.1-0.117","474","","j","","","","","","","","","","","","","key","j","7.853475728155299","960","536","j","true","img/C_ambi40.png","三角","word_first",""
"","","","","","html-keyboard-response","396","705043","0.0-13.0-1.0-1.0-0.1-1.117","null","<span style='color:GreenYellow; font-size: 70px;'>正确! </span>","null","","","","","","","","","","","","","","","","","","","","","","","feedback_test"
"","","","","","psychophysics","397","706661","0.0-13.0-1.0-1.0-0.1-0.118","465","","f","","","","","","","","","","","","","key","f","7.785533980582276","960","536","f","true","img/S_ambi40.png","方形","word_first",""
"","","","","","html-keyboard-response","398","706965","0.0-13.0-1.0-1.0-0.1-1.118","null","<span style='color:GreenYellow; font-size: 70px;'>正确! </span>","null","","","","","","","","","","","","","","","","","","","","","","","feedback_test"
"","","","","","psychophysics","399","708555","0.0-13.0-1.0-1.0-0.1-0.119","435","","f","","","","","","","","","","","","","key","f","7.925454545454499","960","536","f","true","img/S_ambi40.png","方形","word_first",""
"","","","","","html-keyboard-response","400","708865","0.0-13.0-1.0-1.0-0.1-1.119","null","<span style='color:GreenYellow; font-size: 70px;'>正确! </span>","null","","","","","","","","","","","","","","","","","","","","","","","feedback_test"
"","","","","","html-keyboard-response","401","710613","0.0-13.0-1.0-1.0-1.1","1747","<style>.context{color:white; font-size: 35px; line-height:40px}</style>                            <div><p class='context'>您正确回答了93% 的试次。</p><p class='context'>您的平均反应时为627毫秒。</p><p class='context'>请按任意键进入休息</p></div>"," ","","","","","","","","","","","","","","","","","","","","","","",""
"","","","","","html-button-response","402","771710","0.0-13.0-1.0-1.0-2.1","61095","
                    <p>您当前还剩余2组实验</p>
                    <p>现在是休息时间，当您结束休息后，您可以点击 结束休息 按钮 继续</p>
                    <p>建议休息时间还剩余<span id=""iii"">60</span>秒</p>","0","","","","","","","","","","","","","","","","","","","","","","",""
"","","","","","psychophysics","403","773466","0.0-13.0-1.0-1.0-0.2-0.120","603","","f","","","","","","","","","","","","","key","f","7.712660714285968","960","536","f","true","img/S_ambi40.png","方形","word_first",""
"","","","","","html-keyboard-response","404","773771","0.0-13.0-1.0-1.0-0.2-1.120","null","<span style='color:GreenYellow; font-size: 70px;'>正确! </span>","null","","","","","","","","","","","","","","","","","","","","","","","feedback_test"
"","","","","","psychophysics","405","775419","0.0-13.0-1.0-1.0-0.2-0.121","493","","j","","","","","","","","","","","","","key","j","7.798644549762875","960","536","j","true","img/T_ambi40.png","方形","word_first",""
"","","","","","html-keyboard-response","406","775731","0.0-13.0-1.0-1.0-0.2-1.121","null","<span style='color:GreenYellow; font-size: 70px;'>正确! </span>","null","","","","","","","","","","","","","","","","","","","","","","","feedback_test"
"","","","","","psychophysics","407","777532","0.0-13.0-1.0-1.0-0.2-0.122","649","","j","","","","","","","","","","","","","key","j","7.822139737991348","960","536","j","true","img/C_ambi40.png","三角","word_first",""
"","","","","","html-keyboard-response","408","777843","0.0-13.0-1.0-1.0-0.2-1.122","null","<span style='color:GreenYellow; font-size: 70px;'>正确! </span>","null","","","","","","","","","","","","","","","","","","","","","","","feedback_test"
"","","","","","psychophysics","409","779580","0.0-13.0-1.0-1.0-0.2-0.123","586","","f","","","","","","","","","","","","","key","f","7.549930131004404","960","536","j","false","img/S_ambi40.png","三角","word_first",""
"","","","","","html-keyboard-response","410","779885","0.0-13.0-1.0-1.0-0.2-1.123","null","<span style='color:red; font-size: 70px;'>错误! </span>","null","","","","","","","","","","","","","","","","","","","","","","","feedback_test"
"","","","","","psychophysics","411","781494","0.0-13.0-1.0-1.0-0.2-0.124","458","","f","","","","","","","","","","","","","key","f","7.604323809524066","960","536","f","true","img/T_ambi40.png","三角","word_first",""
"","","","","","html-keyboard-response","412","781807","0.0-13.0-1.0-1.0-0.2-1.124","null","<span style='color:GreenYellow; font-size: 70px;'>正确! </span>","null","","","","","","","","","","","","","","","","","","","","","","","feedback_test"
"","","","","","psychophysics","413","783448","0.0-13.0-1.0-1.0-0.2-0.125","489","","j","","","","","","","","","","","","","key","j","7.770119047618937","960","536","j","true","img/C_ambi40.png","方形","word_first",""
"","","","","","html-keyboard-response","414","783765","0.0-13.0-1.0-1.0-0.2-1.125","null","<span style='color:GreenYellow; font-size: 70px;'>正确! </span>","null","","","","","","","","","","","","","","","","","","","","","","","feedback_test"
"","","","","","psychophysics","415","785971","0.0-13.0-1.0-1.0-0.2-0.126","1054","","j","","","","","","","","","","","","","key","j","7.698410526315861","960","536","j","true","img/T_ambi40.png","圆形","word_first",""
"","","","","","html-keyboard-response","416","786286","0.0-13.0-1.0-1.0-0.2-1.126","null","<span style='color:GreenYellow; font-size: 70px;'>正确! </span>","null","","","","","","","","","","","","","","","","","","","","","","","feedback_test"
"","","","","","psychophysics","417","788183","0.0-13.0-1.0-1.0-0.2-0.127","746","","f","","","","","","","","","","","","","key","f","7.868895833332984","960","536","f","true","img/C_ambi40.png","圆形","word_first",""
"","","","","","html-keyboard-response","418","788498","0.0-13.0-1.0-1.0-0.2-1.127","null","<span style='color:GreenYellow; font-size: 70px;'>正确! </span>","null","","","","","","","","","","","","","","","","","","","","","","","feedback_test"
"","","","","","psychophysics","419","790349","0.0-13.0-1.0-1.0-0.2-0.128","700","","j","","","","","","","","","","","","","key","j","7.831628205128308","960","536","j","true","img/S_ambi40.png","圆形","word_first",""
"","","","","","html-keyboard-response","420","790665","0.0-13.0-1.0-1.0-0.2-1.128","null","<span style='color:GreenYellow; font-size: 70px;'>正确! </span>","null","","","","","","","","","","","","","","","","","","","","","","","feedback_test"
"","","","","","psychophysics","421","792665","0.0-13.0-1.0-1.0-0.2-0.129","846","","j","","","","","","","","","","","","","key","j","7.726692607003927","960","536","f","false","img/C_ambi40.png","圆形","word_first",""
"","","","","","html-keyboard-response","422","792977","0.0-13.0-1.0-1.0-0.2-1.129","null","<span style='color:red; font-size: 70px;'>错误! </span>","null","","","","","","","","","","","","","","","","","","","","","","","feedback_test"
"","","","","","psychophysics","423","794653","0.0-13.0-1.0-1.0-0.2-0.130","522","","j","","","","","","","","","","","","","key","j","7.791206572769962","960","536","f","false","img/T_ambi40.png","三角","word_first",""
"","","","","","html-keyboard-response","424","794957","0.0-13.0-1.0-1.0-0.2-1.130","null","<span style='color:red; font-size: 70px;'>错误! </span>","null","","","","","","","","","","","","","","","","","","","","","","","feedback_test"
"","","","","","psychophysics","425","796614","0.0-13.0-1.0-1.0-0.2-0.131","505","","f","","","","","","","","","","","","","key","f","7.835942857143181","960","536","f","true","img/S_ambi40.png","方形","word_first",""
"","","","","","html-keyboard-response","426","796920","0.0-13.0-1.0-1.0-0.2-1.131","null","<span style='color:GreenYellow; font-size: 70px;'>正确! </span>","null","","","","","","","","","","","","","","","","","","","","","","","feedback_test"
"","","","","","psychophysics","427","798537","0.0-13.0-1.0-1.0-0.2-0.132","464","","f","","","","","","","","","","","","","key","f","7.9405472636818235","960","536","f","true","img/T_ambi40.png","三角","word_first",""
"","","","","","html-keyboard-response","428","798855","0.0-13.0-1.0-1.0-0.2-1.132","null","<span style='color:GreenYellow; font-size: 70px;'>正确! </span>","null","","","","","","","","","","","","","","","","","","","","","","","feedback_test"
"","","","","","psychophysics","429","800595","0.0-13.0-1.0-1.0-0.2-0.133","584","","j","","","","","","","","","","","","","key","j","7.718075892857347","960","536","f","false","img/C_ambi40.png","圆形","word_first",""
"","","","","","html-keyboard-response","430","800902","0.0-13.0-1.0-1.0-0.2-1.133","null","<span style='color:red; font-size: 70px;'>错误! </span>","null","","","","","","","","","","","","","","","","","","","","","","","feedback_test"
"","","","","","psychophysics","431","802688","0.0-13.0-1.0-1.0-0.2-0.134","635","","j","","","","","","","","","","","","","key","j","7.7957324561404615","960","536","j","true","img/C_ambi40.png","三角","word_first",""
"","","","","","html-keyboard-response","432","803006","0.0-13.0-1.0-1.0-0.2-1.134","null","<span style='color:GreenYellow; font-size: 70px;'>正确! </span>","null","","","","","","","","","","","","","","","","","","","","","","","feedback_test"
