"success","timeout","failed_images","failed_audio","failed_video","trial_type","trial_index","time_elapsed","internal_node_id","rt","stimulus","response","value","item_width_mm","item_height_mm","item_width_px","px2mm","view_dist_mm","item_width_deg","px2deg","scale_factor","win_width_deg","win_height_deg","view_history","response_type","key_press","avg_frame_time","center_x","center_y","correct_response","correct","Image","word","condition","screen_id"
"true","false","[]","[]","[]","preload","0","18","0.0-0.0","","","","","","","","","","","","","","","","","","","","","","","","","",""
"","","","","","html-keyboard-response","1","54849","0.0-1.0","54812","
   <p>您好，欢迎参加本次实验。</p>
   <p>为充分保障您的权利，请确保您已经知晓并同意《参与实验同意书》以及《数据公开知情同意书》。</p>
   <p>如果您未见过上述内容，请咨询实验员。</p>
   <p>如果您选择继续实验，则表示您已经清楚两份知情同意书的内容并同意。</p>
   <p> <div style = ""color: green""><按任意键至下页></div> </p>
   "," ","","","","","","","","","","","","","","","","","","","","","","",""
"","","","","","html-keyboard-response","2","56741","0.0-2.0","1892","
   <p>本实验首先需要您填写一些基本个人信息。</p>
   <p> <div style = ""color: green""><按任意键至下页></div></p>
   "," ","","","","","","","","","","","","","","","","","","","","","","",""
"","","","","","call-function","3","56743","0.0-3.0-0.0","","","","","","","","","","","","","","","","","","","","","","","","","",""
"","","","","","survey-html-form","4","62529","0.0-3.0-1.0","5781","","{""Q0"":""10""}","","","","","","","","","","","","","","","","","","","","","","",""
"","","","","","html-button-response","5","63858","0.0-3.0-2.0","1326","<p style = 'color : white'>您的性别</p>","1","","","","","","","","","","","","","","","","","","","","","","",""
"","","","","","survey-html-form","6","69596","0.0-3.0-3.0","5737","","{""Q0"":""2000""}","","","","","","","","","","","","","","","","","","","","","","",""
"","","","","","survey-html-form","7","73160","0.0-3.0-4.0","3561","","{""Q0"":""5""}","","","","","","","","","","","","","","","","","","","","","","",""
"","","","","","virtual-chinrest","8","327110","0.0-4.0","253946","","","","85.6","53.98","385.7447135626509","4.503774714202226","634.76","7.714894271253017","50","0.9747379206505492","25.6","13.78","","","","","","","","","","","",""
"true","","","","","fullscreen","9","332338","0.0-5.0","","","","","","","","","","","","","","","","","","","","","","","","","",""
"","","","","","instructions","10","393364","0.0-6.0","61002","","","","","","","","","","","","","","[{""page_index"":0,""viewing_time"":4208},{""page_index"":1,""viewing_time"":33002},{""page_index"":2,""viewing_time"":17738},{""page_index"":3,""viewing_time"":6054}]","","","","","","","","","","",""
"","","","","","psychophysics","11","396034","0.0-7.0-0.0-0.0","null","","null","","","","","","","","","","","","","key","null","16.674810126582248","640","396","f","false","img/T_ambi40.png","三角","prac_image_first",""
"","","","","","html-keyboard-response","12","396345","0.0-7.0-0.0-1.0","null","<span class='add_' style='color:yellow; font-size: 70px;'> 太慢! </span>","null","","","","","","","","","","","","","","","","","","","","","","","feedback_test"
"","","","","","psychophysics","13","398130","0.0-7.0-0.0-0.1","633","","f","","","","","","","","","","","","","key","f","16.675066037735583","640","396","f","true","img/C_ambi40.png","圆形","prac_image_first",""
"","","","","","html-keyboard-response","14","398440","0.0-7.0-0.0-1.1","null","<span style='color:GreenYellow; font-size: 70px;'>正确! </span>","null","","","","","","","","","","","","","","","","","","","","","","","feedback_test"
"","","","","","psychophysics","15","400485","0.0-7.0-0.0-0.2","892","","j","","","","","","","","","","","","","key","j","16.674024793388675","640","396","j","true","img/T_ambi40.png","圆形","prac_image_first",""
"","","","","","html-keyboard-response","16","400800","0.0-7.0-0.0-1.2","null","<span style='color:GreenYellow; font-size: 70px;'>正确! </span>","null","","","","","","","","","","","","","","","","","","","","","","","feedback_test"
"","","","","","psychophysics","17","402747","0.0-7.0-0.0-0.3","794","","f","","","","","","","","","","","","","key","f","16.674258620689468","640","396","f","true","img/C_ambi40.png","圆形","prac_image_first",""
"","","","","","html-keyboard-response","18","403060","0.0-7.0-0.0-1.3","null","<span style='color:GreenYellow; font-size: 70px;'>正确! </span>","null","","","","","","","","","","","","","","","","","","","","","","","feedback_test"
"","","","","","psychophysics","19","404920","0.0-7.0-0.0-0.4","694","","f","","","","","","","","","","","","","key","f","16.67330909090921","640","396","f","true","img/T_ambi40.png","三角","prac_image_first",""
"","","","","","html-keyboard-response","20","405234","0.0-7.0-0.0-1.4","null","<span style='color:GreenYellow; font-size: 70px;'>正确! </span>","null","","","","","","","","","","","","","","","","","","","","","","","feedback_test"
"","","","","","psychophysics","21","407055","0.0-7.0-0.0-0.5","663","","j","","","","","","","","","","","","","key","j","16.67465740740698","640","396","j","true","img/S_ambi40.png","三角","prac_image_first",""
"","","","","","html-keyboard-response","22","407361","0.0-7.0-0.0-1.5","null","<span style='color:GreenYellow; font-size: 70px;'>正确! </span>","null","","","","","","","","","","","","","","","","","","","","","","","feedback_test"
"","","","","","psychophysics","23","409222","0.0-7.0-0.0-0.6","700","","j","","","","","","","","","","","","","key","j","16.675036363636504","640","396","j","true","img/S_ambi40.png","圆形","prac_image_first",""
"","","","","","html-keyboard-response","24","409537","0.0-7.0-0.0-1.6","null","<span style='color:GreenYellow; font-size: 70px;'>正确! </span>","null","","","","","","","","","","","","","","","","","","","","","","","feedback_test"
"","","","","","psychophysics","25","411373","0.0-7.0-0.0-0.7","676","","j","","","","","","","","","","","","","key","j","16.675376146788807","640","396","j","true","img/C_ambi40.png","三角","prac_image_first",""
"","","","","","html-keyboard-response","26","411683","0.0-7.0-0.0-1.7","null","<span style='color:GreenYellow; font-size: 70px;'>正确! </span>","null","","","","","","","","","","","","","","","","","","","","","","","feedback_test"
"","","","","","psychophysics","27","413615","0.0-7.0-0.0-0.8","774","","j","","","","","","","","","","","","","key","j","16.674286956521783","640","396","j","true","img/T_ambi40.png","方形","prac_image_first",""
"","","","","","html-keyboard-response","28","413925","0.0-7.0-0.0-1.8","null","<span style='color:GreenYellow; font-size: 70px;'>正确! </span>","null","","","","","","","","","","","","","","","","","","","","","","","feedback_test"
"","","","","","psychophysics","29","415900","0.0-7.0-0.0-0.9","820","","f","","","","","","","","","","","","","key","f","16.67486440677934","640","396","f","true","img/S_ambi40.png","方形","prac_image_first",""
"","","","","","html-keyboard-response","30","416216","0.0-7.0-0.0-1.9","null","<span style='color:GreenYellow; font-size: 70px;'>正确! </span>","null","","","","","","","","","","","","","","","","","","","","","","","feedback_test"
"","","","","","psychophysics","31","418395","0.0-7.0-0.0-0.10","1026","","j","","","","","","","","","","","","","key","j","16.67486046511651","640","396","j","true","img/C_ambi40.png","方形","prac_image_first",""
"","","","","","html-keyboard-response","32","418706","0.0-7.0-0.0-1.10","null","<span style='color:GreenYellow; font-size: 70px;'>正确! </span>","null","","","","","","","","","","","","","","","","","","","","","","","feedback_test"
"","","","","","psychophysics","33","420643","0.0-7.0-0.0-0.11","778","","f","","","","","","","","","","","","","key","f","16.675208695651964","640","396","f","true","img/S_ambi40.png","方形","prac_image_first",""
"","","","","","html-keyboard-response","34","420949","0.0-7.0-0.0-1.11","null","<span style='color:GreenYellow; font-size: 70px;'>正确! </span>","null","","","","","","","","","","","","","","","","","","","","","","","feedback_test"
"","","","","","psychophysics","35","422944","0.0-7.0-0.0-0.12","831","","f","","","","","","","","","","","","","key","f","16.673499999999983","640","396","f","true","img/S_ambi40.png","方形","prac_image_first",""
"","","","","","html-keyboard-response","36","423260","0.0-7.0-0.0-1.12","null","<span style='color:GreenYellow; font-size: 70px;'>正确! </span>","null","","","","","","","","","","","","","","","","","","","","","","","feedback_test"
"","","","","","psychophysics","37","425047","0.0-7.0-0.0-0.13","629","","f","","","","","","","","","","","","","key","f","16.675490566037315","640","396","f","true","img/C_ambi40.png","圆形","prac_image_first",""
"","","","","","html-keyboard-response","38","425366","0.0-7.0-0.0-1.13","null","<span style='color:GreenYellow; font-size: 70px;'>正确! </span>","null","","","","","","","","","","","","","","","","","","","","","","","feedback_test"
"","","","","","psychophysics","39","427195","0.0-7.0-0.0-0.14","676","","f","","","","","","","","","","","","","key","f","16.560212962962666","640","396","f","true","img/T_ambi40.png","三角","prac_image_first",""
"","","","","","html-keyboard-response","40","427508","0.0-7.0-0.0-1.14","null","<span style='color:GreenYellow; font-size: 70px;'>正确! </span>","null","","","","","","","","","","","","","","","","","","","","","","","feedback_test"
"","","","","","psychophysics","41","429252","0.0-7.0-0.0-0.15","588","","f","","","","","","","","","","","","","key","f","16.673990291261873","640","396","f","true","img/S_ambi40.png","方形","prac_image_first",""
"","","","","","html-keyboard-response","42","429568","0.0-7.0-0.0-1.15","null","<span style='color:GreenYellow; font-size: 70px;'>正确! </span>","null","","","","","","","","","","","","","","","","","","","","","","","feedback_test"
"","","","","","psychophysics","43","431419","0.0-7.0-0.0-0.16","696","","j","","","","","","","","","","","","","key","j","16.67360909090917","640","396","j","true","img/T_ambi40.png","圆形","prac_image_first",""
"","","","","","html-keyboard-response","44","431731","0.0-7.0-0.0-1.16","null","<span style='color:GreenYellow; font-size: 70px;'>正确! </span>","null","","","","","","","","","","","","","","","","","","","","","","","feedback_test"
"","","","","","psychophysics","45","433679","0.0-7.0-0.0-0.17","790","","f","","","","","","","","","","","","","key","f","16.674327586206974","640","396","j","false","img/C_ambi40.png","方形","prac_image_first",""
"","","","","","html-keyboard-response","46","433995","0.0-7.0-0.0-1.17","null","<span style='color:red; font-size: 70px;'>错误! </span>","null","","","","","","","","","","","","","","","","","","","","","","","feedback_test"
"","","","","","psychophysics","47","436214","0.0-7.0-0.0-0.18","1062","","j","","","","","","","","","","","","","key","j","16.675439393939364","640","396","j","true","img/C_ambi40.png","三角","prac_image_first",""
"","","","","","html-keyboard-response","48","436529","0.0-7.0-0.0-1.18","null","<span style='color:GreenYellow; font-size: 70px;'>正确! </span>","null","","","","","","","","","","","","","","","","","","","","","","","feedback_test"
"","","","","","psychophysics","49","438582","0.0-7.0-0.0-0.19","901","","j","","","","","","","","","","","","","key","j","16.675122950819596","640","396","j","true","img/S_ambi40.png","圆形","prac_image_first",""
"","","","","","html-keyboard-response","50","438900","0.0-7.0-0.0-1.19","null","<span style='color:GreenYellow; font-size: 70px;'>正确! </span>","null","","","","","","","","","","","","","","","","","","","","","","","feedback_test"
"","","","","","psychophysics","51","441006","0.0-7.0-0.0-0.20","950","","f","","","","","","","","","","","","","key","f","16.67360800000001","640","396","f","true","img/C_ambi40.png","圆形","prac_image_first",""
"","","","","","html-keyboard-response","52","441317","0.0-7.0-0.0-1.20","null","<span style='color:GreenYellow; font-size: 70px;'>正确! </span>","null","","","","","","","","","","","","","","","","","","","","","","","feedback_test"
"","","","","","psychophysics","53","443235","0.0-7.0-0.0-0.21","763","","j","","","","","","","","","","","","","key","j","16.67474561403485","640","396","j","true","img/T_ambi40.png","方形","prac_image_first",""
"","","","","","html-keyboard-response","54","443551","0.0-7.0-0.0-1.21","null","<span style='color:GreenYellow; font-size: 70px;'>正确! </span>","null","","","","","","","","","","","","","","","","","","","","","","","feedback_test"
"","","","","","psychophysics","55","445970","0.0-7.0-0.0-0.22","1264","","f","","","","","","","","","","","","","key","f","16.67443055555527","640","396","f","true","img/T_ambi40.png","三角","prac_image_first",""
"","","","","","html-keyboard-response","56","446279","0.0-7.0-0.0-1.22","null","<span style='color:GreenYellow; font-size: 70px;'>正确! </span>","null","","","","","","","","","","","","","","","","","","","","","","","feedback_test"
"","","","","","psychophysics","57","448306","0.0-7.0-0.0-0.23","875","","j","","","","","","","","","","","","","key","j","16.674725000000034","640","396","j","true","img/S_ambi40.png","三角","prac_image_first",""
"","","","","","html-keyboard-response","58","448622","0.0-7.0-0.0-1.23","null","<span style='color:GreenYellow; font-size: 70px;'>正确! </span>","null","","","","","","","","","","","","","","","","","","","","","","","feedback_test"
"","","","","","html-keyboard-response","59","457609","0.0-8.0","8985","<style>.context{color:white; font-size: 35px; line-height:40px}</style>                            <div><p class='context'>您正确回答了92% 的试次。</p><p class='context'>您的平均反应时为804毫秒。</p><p class='context'>恭喜您完成这一阶段的练习。按任意键进入<span style='color: yellow;'>先文字后图形条件</span>的练习。</p></div>"," ","","","","","","","","","","","","","","","","","","","","","","",""
"","","","","","psychophysics","60","459737","0.0-9.0-0.0-0.0","970","","f","","","","","","","","","","","","","key","f","16.674393700787295","640","396","f","true","img/C_ambi40.png","圆形","prac_word_first",""
"","","","","","html-keyboard-response","61","460043","0.0-9.0-0.0-1.0","null","<span style='color:GreenYellow; font-size: 70px;'>正确! </span>","null","","","","","","","","","","","","","","","","","","","","","","","feedback_test"
"","","","","","psychophysics","62","461856","0.0-9.0-0.0-0.1","655","","f","","","","","","","","","","","","","key","f","16.67450925925934","640","396","f","true","img/T_ambi40.png","三角","prac_word_first",""
"","","","","","html-keyboard-response","63","462165","0.0-9.0-0.0-1.1","null","<span style='color:GreenYellow; font-size: 70px;'>正确! </span>","null","","","","","","","","","","","","","","","","","","","","","","","feedback_test"
"","","","","","psychophysics","64","464001","0.0-9.0-0.0-0.2","680","","j","","","","","","","","","","","","","key","j","16.675853211009223","640","396","j","true","img/S_ambi40.png","圆形","prac_word_first",""
"","","","","","html-keyboard-response","65","464310","0.0-9.0-0.0-1.2","null","<span style='color:GreenYellow; font-size: 70px;'>正确! </span>","null","","","","","","","","","","","","","","","","","","","","","","","feedback_test"
"","","","","","psychophysics","66","466343","0.0-9.0-0.0-0.3","873","","f","","","","","","","","","","","","","key","f","16.674280991735444","640","396","f","true","img/S_ambi40.png","方形","prac_word_first",""
"","","","","","html-keyboard-response","67","466655","0.0-9.0-0.0-1.3","null","<span style='color:GreenYellow; font-size: 70px;'>正确! </span>","null","","","","","","","","","","","","","","","","","","","","","","","feedback_test"
"","","","","","psychophysics","68","468544","0.0-9.0-0.0-0.4","738","","j","","","","","","","","","","","","","key","j","16.674321428571734","640","396","j","true","img/C_ambi40.png","方形","prac_word_first",""
"","","","","","html-keyboard-response","69","468863","0.0-9.0-0.0-1.4","null","<span style='color:GreenYellow; font-size: 70px;'>正确! </span>","null","","","","","","","","","","","","","","","","","","","","","","","feedback_test"
"","","","","","psychophysics","70","470737","0.0-9.0-0.0-0.5","720","","j","","","","","","","","","","","","","key","j","16.67454954954955","640","396","j","true","img/C_ambi40.png","三角","prac_word_first",""
"","","","","","html-keyboard-response","71","471055","0.0-9.0-0.0-1.5","null","<span style='color:GreenYellow; font-size: 70px;'>正确! </span>","null","","","","","","","","","","","","","","","","","","","","","","","feedback_test"
"","","","","","psychophysics","72","473027","0.0-9.0-0.0-0.6","820","","j","","","","","","","","","","","","","key","j","16.674538461538727","640","396","j","true","img/T_ambi40.png","圆形","prac_word_first",""
"","","","","","html-keyboard-response","73","473331","0.0-9.0-0.0-1.6","null","<span style='color:GreenYellow; font-size: 70px;'>正确! </span>","null","","","","","","","","","","","","","","","","","","","","","","","feedback_test"
"","","","","","psychophysics","74","475348","0.0-9.0-0.0-0.7","859","","f","","","","","","","","","","","","","key","f","16.67397499999982","640","396","f","true","img/S_ambi40.png","方形","prac_word_first",""
"","","","","","html-keyboard-response","75","475657","0.0-9.0-0.0-1.7","null","<span style='color:GreenYellow; font-size: 70px;'>正确! </span>","null","","","","","","","","","","","","","","","","","","","","","","","feedback_test"
"","","","","","psychophysics","76","477638","0.0-9.0-0.0-0.8","828","","f","","","","","","","","","","","","","key","f","16.566615384615336","640","396","f","true","img/T_ambi40.png","三角","prac_word_first",""
"","","","","","html-keyboard-response","77","477956","0.0-9.0-0.0-1.8","null","<span style='color:GreenYellow; font-size: 70px;'>正确! </span>","null","","","","","","","","","","","","","","","","","","","","","","","feedback_test"
"","","","","","psychophysics","78","479748","0.0-9.0-0.0-0.9","637","","f","","","","","","","","","","","","","key","f","16.674953271027775","640","396","f","true","img/C_ambi40.png","圆形","prac_word_first",""
"","","","","","html-keyboard-response","79","480057","0.0-9.0-0.0-1.9","null","<span style='color:GreenYellow; font-size: 70px;'>正确! </span>","null","","","","","","","","","","","","","","","","","","","","","","","feedback_test"
"","","","","","psychophysics","80","481889","0.0-9.0-0.0-0.10","678","","j","","","","","","","","","","","","","key","j","16.568324074074216","640","396","j","true","img/S_ambi40.png","三角","prac_word_first",""
"","","","","","html-keyboard-response","81","482198","0.0-9.0-0.0-1.10","null","<span style='color:GreenYellow; font-size: 70px;'>正确! </span>","null","","","","","","","","","","","","","","","","","","","","","","","feedback_test"
"","","","","","psychophysics","82","484443","0.0-9.0-0.0-0.11","1091","","f","","","","","","","","","","","","","key","f","16.675330827067803","640","396","j","false","img/T_ambi40.png","方形","prac_word_first",""
"","","","","","html-keyboard-response","83","484753","0.0-9.0-0.0-1.11","null","<span style='color:red; font-size: 70px;'>错误! </span>","null","","","","","","","","","","","","","","","","","","","","","","","feedback_test"
"","","","","","psychophysics","84","486903","0.0-9.0-0.0-0.12","998","","f","","","","","","","","","","","","","key","f","16.674296874999982","640","396","f","true","img/C_ambi40.png","圆形","prac_word_first",""
"","","","","","html-keyboard-response","85","487217","0.0-9.0-0.0-1.12","null","<span style='color:GreenYellow; font-size: 70px;'>正确! </span>","null","","","","","","","","","","","","","","","","","","","","","","","feedback_test"
"","","","","","psychophysics","86","489497","0.0-9.0-0.0-0.13","1116","","j","","","","","","","","","","","","","key","j","16.60208148148161","640","396","j","true","img/C_ambi40.png","方形","prac_word_first",""
"","","","","","html-keyboard-response","87","489806","0.0-9.0-0.0-1.13","null","<span style='color:GreenYellow; font-size: 70px;'>正确! </span>","null","","","","","","","","","","","","","","","","","","","","","","","feedback_test"
"","","","","","psychophysics","88","491688","0.0-9.0-0.0-0.14","727","","j","","","","","","","","","","","","","key","j","16.674857142857427","640","396","j","true","img/S_ambi40.png","圆形","prac_word_first",""
"","","","","","html-keyboard-response","89","491995","0.0-9.0-0.0-1.14","null","<span style='color:GreenYellow; font-size: 70px;'>正确! </span>","null","","","","","","","","","","","","","","","","","","","","","","","feedback_test"
"","","","","","psychophysics","90","494447","0.0-9.0-0.0-0.15","1297","","j","","","","","","","","","","","","","key","j","16.67352739726042","640","396","j","true","img/C_ambi40.png","三角","prac_word_first",""
"","","","","","html-keyboard-response","91","494765","0.0-9.0-0.0-1.15","null","<span style='color:GreenYellow; font-size: 70px;'>正确! </span>","null","","","","","","","","","","","","","","","","","","","","","","","feedback_test"
"","","","","","psychophysics","92","497113","0.0-9.0-0.0-0.16","1195","","f","","","","","","","","","","","","","key","f","16.674699999999888","640","396","f","true","img/T_ambi40.png","三角","prac_word_first",""
"","","","","","html-keyboard-response","93","497421","0.0-9.0-0.0-1.16","null","<span style='color:GreenYellow; font-size: 70px;'>正确! </span>","null","","","","","","","","","","","","","","","","","","","","","","","feedback_test"
"","","","","","psychophysics","94","499246","0.0-9.0-0.0-0.17","669","","j","","","","","","","","","","","","","key","j","16.67454629629652","640","396","j","true","img/S_ambi40.png","三角","prac_word_first",""
"","","","","","html-keyboard-response","95","499561","0.0-9.0-0.0-1.17","null","<span style='color:GreenYellow; font-size: 70px;'>正确! </span>","null","","","","","","","","","","","","","","","","","","","","","","","feedback_test"
"","","","","","psychophysics","96","501367","0.0-9.0-0.0-0.18","647","","j","","","","","","","","","","","","","key","j","16.674831775700888","640","396","j","true","img/T_ambi40.png","圆形","prac_word_first",""
"","","","","","html-keyboard-response","97","501692","0.0-9.0-0.0-1.18","null","<span style='color:GreenYellow; font-size: 70px;'>正确! </span>","null","","","","","","","","","","","","","","","","","","","","","","","feedback_test"
"","","","","","psychophysics","98","503679","0.0-9.0-0.0-0.19","831","","f","","","","","","","","","","","","","key","f","16.66311864406798","640","396","f","true","img/C_ambi40.png","圆形","prac_word_first",""
"","","","","","html-keyboard-response","99","503987","0.0-9.0-0.0-1.19","null","<span style='color:GreenYellow; font-size: 70px;'>正确! </span>","null","","","","","","","","","","","","","","","","","","","","","","","feedback_test"
"","","","","","psychophysics","100","506029","0.0-9.0-0.0-0.20","890","","f","","","","","","","","","","","","","key","f","16.67493388429717","640","396","f","true","img/S_ambi40.png","方形","prac_word_first",""
"","","","","","html-keyboard-response","101","506346","0.0-9.0-0.0-1.20","null","<span style='color:GreenYellow; font-size: 70px;'>正确! </span>","null","","","","","","","","","","","","","","","","","","","","","","","feedback_test"
"","","","","","psychophysics","102","508260","0.0-9.0-0.0-0.21","751","","j","","","","","","","","","","","","","key","j","16.674298245614505","640","396","j","true","img/T_ambi40.png","方形","prac_word_first",""
"","","","","","html-keyboard-response","103","508569","0.0-9.0-0.0-1.21","null","<span style='color:GreenYellow; font-size: 70px;'>正确! </span>","null","","","","","","","","","","","","","","","","","","","","","","","feedback_test"
"","","","","","psychophysics","104","510519","0.0-9.0-0.0-0.22","791","","f","","","","","","","","","","","","","key","f","16.674267241379532","640","396","f","true","img/T_ambi40.png","三角","prac_word_first",""
"","","","","","html-keyboard-response","105","510838","0.0-9.0-0.0-1.22","null","<span style='color:GreenYellow; font-size: 70px;'>正确! </span>","null","","","","","","","","","","","","","","","","","","","","","","","feedback_test"
"","","","","","psychophysics","106","512829","0.0-9.0-0.0-0.23","835","","f","","","","","","","","","","","","","key","f","16.675151260504634","640","396","f","true","img/S_ambi40.png","方形","prac_word_first",""
"","","","","","html-keyboard-response","107","513140","0.0-9.0-0.0-1.23","null","<span style='color:GreenYellow; font-size: 70px;'>正确! </span>","null","","","","","","","","","","","","","","","","","","","","","","","feedback_test"
"","","","","","html-keyboard-response","108","516195","0.0-10.0","3052","<style>.context{color:white; font-size: 35px; line-height:40px}</style>                            <div><p class='context'>您正确回答了96% 的试次。</p><p class='context'>您的平均反应时为835毫秒。</p><p class='context'>恭喜您完成练习。按任意键进入<span style='color: yellow;'>图形和文字同时呈现条件</span>的练习。</p></div>"," ","","","","","","","","","","","","","","","","","","","","","","",""
"","","","","","psychophysics","109","518481","0.0-11.0-0.0-0.0","1270","","j","","","","","","","","","","","","","key","j","16.674183823529507","640","396","j","true","img/T_ambi40.png","方形","prac_simultaneous",""
"","","","","","html-keyboard-response","110","518793","0.0-11.0-0.0-1.0","null","<span style='color:GreenYellow; font-size: 70px;'>正确! </span>","null","","","","","","","","","","","","","","","","","","","","","","","feedback_test"
"","","","","","psychophysics","111","520821","0.0-11.0-0.0-0.1","1025","","f","","","","","","","","","","","","","key","f","16.57798333333291","640","396","f","true","img/C_ambi40.png","圆形","prac_simultaneous",""
"","","","","","html-keyboard-response","112","521149","0.0-11.0-0.0-1.1","null","<span style='color:GreenYellow; font-size: 70px;'>正确! </span>","null","","","","","","","","","","","","","","","","","","","","","","","feedback_test"
"","","","","","psychophysics","113","523250","0.0-11.0-0.0-0.2","1085","","f","","","","","","","","","","","","","key","f","16.673571428571393","640","396","f","true","img/S_ambi40.png","方形","prac_simultaneous",""
"","","","","","html-keyboard-response","114","523554","0.0-11.0-0.0-1.2","null","<span style='color:GreenYellow; font-size: 70px;'>正确! </span>","null","","","","","","","","","","","","","","","","","","","","","","","feedback_test"
"","","","","","psychophysics","115","525250","0.0-11.0-0.0-0.3","689","","f","","","","","","","","","","","","","key","f","16.67480198019772","640","396","f","true","img/T_ambi40.png","三角","prac_simultaneous",""
"","","","","","html-keyboard-response","116","525559","0.0-11.0-0.0-1.3","null","<span style='color:GreenYellow; font-size: 70px;'>正确! </span>","null","","","","","","","","","","","","","","","","","","","","","","","feedback_test"
"","","","","","psychophysics","117","527365","0.0-11.0-0.0-0.4","799","","j","","","","","","","","","","","","","key","j","16.675308411214154","640","396","j","true","img/T_ambi40.png","圆形","prac_simultaneous",""
"","","","","","html-keyboard-response","118","527687","0.0-11.0-0.0-1.4","null","<span style='color:GreenYellow; font-size: 70px;'>正确! </span>","null","","","","","","","","","","","","","","","","","","","","","","","feedback_test"
"","","","","","psychophysics","119","529782","0.0-11.0-0.0-0.5","1092","","j","","","","","","","","","","","","","key","j","16.674491935483772","640","396","j","true","img/S_ambi40.png","圆形","prac_simultaneous",""
"","","","","","html-keyboard-response","120","530099","0.0-11.0-0.0-1.5","null","<span style='color:GreenYellow; font-size: 70px;'>正确! </span>","null","","","","","","","","","","","","","","","","","","","","","","","feedback_test"
"","","","","","psychophysics","121","532137","0.0-11.0-0.0-0.6","1035","","f","","","","","","","","","","","","","key","f","16.67544628099119","640","396","f","true","img/S_ambi40.png","方形","prac_simultaneous",""
"","","","","","html-keyboard-response","122","532447","0.0-11.0-0.0-1.6","null","<span style='color:GreenYellow; font-size: 70px;'>正确! </span>","null","","","","","","","","","","","","","","","","","","","","","","","feedback_test"
"","","","","","psychophysics","123","534534","0.0-11.0-0.0-0.7","1085","","f","","","","","","","","","","","","","key","f","16.67401612903303","640","396","f","true","img/C_ambi40.png","圆形","prac_simultaneous",""
"","","","","","html-keyboard-response","124","534855","0.0-11.0-0.0-1.7","null","<span style='color:GreenYellow; font-size: 70px;'>正确! </span>","null","","","","","","","","","","","","","","","","","","","","","","","feedback_test"
"","","","","","psychophysics","125","536725","0.0-11.0-0.0-0.8","856","","j","","","","","","","","","","","","","key","j","16.674450450450987","640","396","j","true","img/S_ambi40.png","三角","prac_simultaneous",""
"","","","","","html-keyboard-response","126","537033","0.0-11.0-0.0-1.8","null","<span style='color:GreenYellow; font-size: 70px;'>正确! </span>","null","","","","","","","","","","","","","","","","","","","","","","","feedback_test"
"","","","","","psychophysics","127","538982","0.0-11.0-0.0-0.9","944","","f","","","","","","","","","","","","","key","f","16.674465517241483","640","396","f","true","img/T_ambi40.png","三角","prac_simultaneous",""
"","","","","","html-keyboard-response","128","539298","0.0-11.0-0.0-1.9","null","<span style='color:GreenYellow; font-size: 70px;'>正确! </span>","null","","","","","","","","","","","","","","","","","","","","","","","feedback_test"
"","","","","","psychophysics","129","541669","0.0-11.0-0.0-0.10","1363","","j","","","","","","","","","","","","","key","j","16.674326241134455","640","396","j","true","img/C_ambi40.png","方形","prac_simultaneous",""
"","","","","","html-keyboard-response","130","541989","0.0-11.0-0.0-1.10","null","<span style='color:GreenYellow; font-size: 70px;'>正确! </span>","null","","","","","","","","","","","","","","","","","","","","","","","feedback_test"
"","","","","","psychophysics","131","544000","0.0-11.0-0.0-0.11","1009","","f","","","","","","","","","","","","","key","f","16.560663865545585","640","396","j","false","img/C_ambi40.png","三角","prac_simultaneous",""
"","","","","","html-keyboard-response","132","544310","0.0-11.0-0.0-1.11","null","<span style='color:red; font-size: 70px;'>错误! </span>","null","","","","","","","","","","","","","","","","","","","","","","","feedback_test"
"","","","","","psychophysics","133","546196","0.0-11.0-0.0-0.12","875","","f","","","","","","","","","","","","","key","f","16.674348214285732","640","396","f","true","img/S_ambi40.png","方形","prac_simultaneous",""
"","","","","","html-keyboard-response","134","546507","0.0-11.0-0.0-1.12","null","<span style='color:GreenYellow; font-size: 70px;'>正确! </span>","null","","","","","","","","","","","","","","","","","","","","","","","feedback_test"
"","","","","","psychophysics","135","548613","0.0-11.0-0.0-0.13","1104","","f","","","","","","","","","","","","","key","f","16.67455555555514","640","396","f","true","img/T_ambi40.png","三角","prac_simultaneous",""
"","","","","","html-keyboard-response","136","548936","0.0-11.0-0.0-1.13","null","<span style='color:GreenYellow; font-size: 70px;'>正确! </span>","null","","","","","","","","","","","","","","","","","","","","","","","feedback_test"
"","","","","","psychophysics","137","551441","0.0-11.0-0.0-0.14","null","","null","","","","","","","","","","","","","key","null","16.674516778523664","640","396","f","false","img/C_ambi40.png","圆形","prac_simultaneous",""
"","","","","","html-keyboard-response","138","551756","0.0-11.0-0.0-1.14","null","<span class='add_' style='color:yellow; font-size: 70px;'> 太慢! </span>","null","","","","","","","","","","","","","","","","","","","","","","","feedback_test"
"","","","","","psychophysics","139","553593","0.0-11.0-0.0-0.15","832","","j","","","","","","","","","","","","","key","j","16.67377064220176","640","396","j","true","img/C_ambi40.png","三角","prac_simultaneous",""
"","","","","","html-keyboard-response","140","553901","0.0-11.0-0.0-1.15","null","<span style='color:GreenYellow; font-size: 70px;'>正确! </span>","null","","","","","","","","","","","","","","","","","","","","","","","feedback_test"
"","","","","","psychophysics","141","556037","0.0-11.0-0.0-0.16","1131","","j","","","","","","","","","","","","","key","j","16.67554330708657","640","396","j","true","img/T_ambi40.png","圆形","prac_simultaneous",""
"","","","","","html-keyboard-response","142","556359","0.0-11.0-0.0-1.16","null","<span style='color:GreenYellow; font-size: 70px;'>正确! </span>","null","","","","","","","","","","","","","","","","","","","","","","","feedback_test"
"","","","","","psychophysics","143","558179","0.0-11.0-0.0-0.17","813","","f","","","","","","","","","","","","","key","f","16.67464814814782","640","396","f","true","img/T_ambi40.png","三角","prac_simultaneous",""
"","","","","","html-keyboard-response","144","558491","0.0-11.0-0.0-1.17","null","<span style='color:GreenYellow; font-size: 70px;'>正确! </span>","null","","","","","","","","","","","","","","","","","","","","","","","feedback_test"
"","","","","","psychophysics","145","560411","0.0-11.0-0.0-0.18","914","","j","","","","","","","","","","","","","key","j","16.67400877192931","640","396","j","true","img/C_ambi40.png","方形","prac_simultaneous",""
"","","","","","html-keyboard-response","146","560722","0.0-11.0-0.0-1.18","null","<span style='color:GreenYellow; font-size: 70px;'>正确! </span>","null","","","","","","","","","","","","","","","","","","","","","","","feedback_test"
"","","","","","psychophysics","147","563171","0.0-11.0-0.0-0.19","1441","","j","","","","","","","","","","","","","key","j","16.674239726027487","640","396","j","true","img/S_ambi40.png","圆形","prac_simultaneous",""
"","","","","","html-keyboard-response","148","563484","0.0-11.0-0.0-1.19","null","<span style='color:GreenYellow; font-size: 70px;'>正确! </span>","null","","","","","","","","","","","","","","","","","","","","","","","feedback_test"
"","","","","","psychophysics","149","565995","0.0-11.0-0.0-0.20","null","","null","","","","","","","","","","","","","key","null","16.674295302014016","640","396","j","false","img/T_ambi40.png","方形","prac_simultaneous",""
"","","","","","html-keyboard-response","150","566302","0.0-11.0-0.0-1.20","null","<span class='add_' style='color:yellow; font-size: 70px;'> 太慢! </span>","null","","","","","","","","","","","","","","","","","","","","","","","feedback_test"
"","","","","","psychophysics","151","568809","0.0-11.0-0.0-0.21","null","","null","","","","","","","","","","","","","key","null","16.67468456375872","640","396","j","false","img/S_ambi40.png","三角","prac_simultaneous",""
"","","","","","html-keyboard-response","152","569125","0.0-11.0-0.0-1.21","null","<span class='add_' style='color:yellow; font-size: 70px;'> 太慢! </span>","null","","","","","","","","","","","","","","","","","","","","","","","feedback_test"
"","","","","","psychophysics","153","571106","0.0-11.0-0.0-0.22","977","","f","","","","","","","","","","","","","key","f","16.674649572649646","640","396","f","true","img/S_ambi40.png","方形","prac_simultaneous",""
"","","","","","html-keyboard-response","154","571417","0.0-11.0-0.0-1.22","null","<span style='color:GreenYellow; font-size: 70px;'>正确! </span>","null","","","","","","","","","","","","","","","","","","","","","","","feedback_test"
"","","","","","psychophysics","155","573183","0.0-11.0-0.0-0.23","761","","f","","","","","","","","","","","","","key","f","16.674666666667466","640","396","f","true","img/C_ambi40.png","圆形","prac_simultaneous",""
"","","","","","html-keyboard-response","156","573498","0.0-11.0-0.0-1.23","null","<span style='color:GreenYellow; font-size: 70px;'>正确! </span>","null","","","","","","","","","","","","","","","","","","","","","","","feedback_test"
"","","","","","html-keyboard-response","157","576443","0.0-12.0","2942","<style>.context{color:white; font-size: 35px; line-height:40px}</style>                            <div><p class='context'>您正确回答了83% 的试次。</p><p class='context'>您的平均反应时为1005毫秒。</p><p class='context'>恭喜您完成练习。按任意键进入正式实验。</p><p class='footer' style='font-size: 35px; line-height:40px;'>请在进入正式实验实验之前将您的<span style='color: lightgreen;'>食指</span>放在电脑键盘的相应键位上进行按键。</p>"," ","","","","","","","","","","","","","","","","","","","","","","",""
"","","","","","html-keyboard-response","158","580346","0.0-13.0-1.0-0.0","3897","
    <p>请您将手指放在按键上，准备进入呈现顺序为<span style='color: yellow;'>先文字后图形条件</span>的正式匹配任务</p>
    <p> <div style = ""color: green""><按任意键进入下一阶段的匹配任务></div></p>
    "," ","","","","","","","","","","","","","","","","","","","","","","",""
"","","","","","psychophysics","159","583002","0.0-13.0-1.0-1.0-0.0-0.0","null","","null","","","","","","","","","","","","","key","null","16.675189873418045","640","396","j","false","img/S_ambi40.png","圆形","word_first",""
"","","","","","html-keyboard-response","160","583317","0.0-13.0-1.0-1.0-0.0-1.0","null","<span class='add_' style='color:yellow; font-size: 70px;'> 太慢! </span>","null","","","","","","","","","","","","","","","","","","","","","","","feedback_test"
"","","","","","psychophysics","161","585977","0.0-13.0-1.0-1.0-0.0-0.1","null","","null","","","","","","","","","","","","","key","null","16.673905063290857","640","396","j","false","img/S_ambi40.png","三角","word_first",""
"","","","","","html-keyboard-response","162","586286","0.0-13.0-1.0-1.0-0.0-1.1","null","<span class='add_' style='color:yellow; font-size: 70px;'> 太慢! </span>","null","","","","","","","","","","","","","","","","","","","","","","","feedback_test"
"","","","","","psychophysics","163","588303","0.0-13.0-1.0-1.0-0.0-0.2","856","","f","","","","","","","","","","","","","key","f","16.674258333333032","640","396","f","true","img/S_ambi40.png","方形","word_first",""
"","","","","","html-keyboard-response","164","588620","0.0-13.0-1.0-1.0-0.0-1.2","null","<span style='color:GreenYellow; font-size: 70px;'>正确! </span>","null","","","","","","","","","","","","","","","","","","","","","","","feedback_test"
"","","","","","psychophysics","165","590520","0.0-13.0-1.0-1.0-0.0-0.3","742","","j","","","","","","","","","","","","","key","j","16.675631578947343","640","396","j","true","img/C_ambi40.png","三角","word_first",""
"","","","","","html-keyboard-response","166","590831","0.0-13.0-1.0-1.0-0.0-1.3","null","<span style='color:GreenYellow; font-size: 70px;'>正确! </span>","null","","","","","","","","","","","","","","","","","","","","","","","feedback_test"
"","","","","","psychophysics","167","592704","0.0-13.0-1.0-1.0-0.0-0.4","719","","j","","","","","","","","","","","","","key","j","16.673729729729594","640","396","j","true","img/T_ambi40.png","圆形","word_first",""
"","","","","","html-keyboard-response","168","593022","0.0-13.0-1.0-1.0-0.0-1.4","null","<span style='color:GreenYellow; font-size: 70px;'>正确! </span>","null","","","","","","","","","","","","","","","","","","","","","","","feedback_test"
"","","","","","psychophysics","169","595104","0.0-13.0-1.0-1.0-0.0-0.5","923","","f","","","","","","","","","","","","","key","f","16.674500000000286","640","396","f","true","img/C_ambi40.png","圆形","word_first",""
"","","","","","html-keyboard-response","170","595422","0.0-13.0-1.0-1.0-0.0-1.5","null","<span style='color:GreenYellow; font-size: 70px;'>正确! </span>","null","","","","","","","","","","","","","","","","","","","","","","","feedback_test"
"","","","","","psychophysics","171","597306","0.0-13.0-1.0-1.0-0.0-0.6","728","","f","","","","","","","","","","","","","key","f","16.675482142856968","640","396","f","true","img/T_ambi40.png","三角","word_first",""
"","","","","","html-keyboard-response","172","597622","0.0-13.0-1.0-1.0-0.0-1.6","null","<span style='color:GreenYellow; font-size: 70px;'>正确! </span>","null","","","","","","","","","","","","","","","","","","","","","","","feedback_test"
"","","","","","psychophysics","173","599614","0.0-13.0-1.0-1.0-0.0-0.7","836","","f","","","","","","","","","","","","","key","f","16.674296610169822","640","396","f","true","img/S_ambi40.png","方形","word_first",""
"","","","","","html-keyboard-response","174","599931","0.0-13.0-1.0-1.0-0.0-1.7","null","<span style='color:GreenYellow; font-size: 70px;'>正确! </span>","null","","","","","","","","","","","","","","","","","","","","","","","feedback_test"
"","","","","","psychophysics","175","601642","0.0-13.0-1.0-1.0-0.0-0.8","548","","f","","","","","","","","","","","","","key","f","16.670039215686675","640","396","f","true","img/T_ambi40.png","三角","word_first",""
"","","","","","html-keyboard-response","176","601960","0.0-13.0-1.0-1.0-0.0-1.8","null","<span style='color:GreenYellow; font-size: 70px;'>正确! </span>","null","","","","","","","","","","","","","","","","","","","","","","","feedback_test"
"","","","","","psychophysics","177","603652","0.0-13.0-1.0-1.0-0.0-0.9","539","","f","","","","","","","","","","","","","key","f","16.67423999999999","640","396","f","true","img/C_ambi40.png","圆形","word_first",""
"","","","","","html-keyboard-response","178","603959","0.0-13.0-1.0-1.0-0.0-1.9","null","<span style='color:GreenYellow; font-size: 70px;'>正确! </span>","null","","","","","","","","","","","","","","","","","","","","","","","feedback_test"
"","","","","","psychophysics","179","605768","0.0-13.0-1.0-1.0-0.0-0.10","655","","j","","","","","","","","","","","","","key","j","16.67242990654271","640","396","j","true","img/C_ambi40.png","方形","word_first",""
"","","","","","html-keyboard-response","180","606081","0.0-13.0-1.0-1.0-0.0-1.10","null","<span style='color:GreenYellow; font-size: 70px;'>正确! </span>","null","","","","","","","","","","","","","","","","","","","","","","","feedback_test"
"","","","","","psychophysics","181","608262","0.0-13.0-1.0-1.0-0.0-0.11","1023","","j","","","","","","","","","","","","","key","j","16.67512307692355","640","396","j","true","img/T_ambi40.png","方形","word_first",""
"","","","","","html-keyboard-response","182","608571","0.0-13.0-1.0-1.0-0.0-1.11","null","<span style='color:GreenYellow; font-size: 70px;'>正确! </span>","null","","","","","","","","","","","","","","","","","","","","","","","feedback_test"
"","","","","","psychophysics","183","610459","0.0-13.0-1.0-1.0-0.0-0.12","736","","j","","","","","","","","","","","","","key","j","16.55616964285686","640","396","j","true","img/S_ambi40.png","圆形","word_first",""
"","","","","","html-keyboard-response","184","610771","0.0-13.0-1.0-1.0-0.0-1.12","null","<span style='color:GreenYellow; font-size: 70px;'>正确! </span>","null","","","","","","","","","","","","","","","","","","","","","","","feedback_test"
"","","","","","psychophysics","185","612623","0.0-13.0-1.0-1.0-0.0-0.13","700","","j","","","","","","","","","","","","","key","j","16.562844036697033","640","396","j","true","img/C_ambi40.png","三角","word_first",""
"","","","","","html-keyboard-response","186","612933","0.0-13.0-1.0-1.0-0.0-1.13","null","<span style='color:GreenYellow; font-size: 70px;'>正确! </span>","null","","","","","","","","","","","","","","","","","","","","","","","feedback_test"
"","","","","","psychophysics","187","614695","0.0-13.0-1.0-1.0-0.0-0.14","606","","j","","","","","","","","","","","","","key","j","16.67548571428661","640","396","j","true","img/T_ambi40.png","方形","word_first",""
"","","","","","html-keyboard-response","188","615014","0.0-13.0-1.0-1.0-0.0-1.14","null","<span style='color:GreenYellow; font-size: 70px;'>正确! </span>","null","","","","","","","","","","","","","","","","","","","","","","","feedback_test"
"","","","","","psychophysics","189","616880","0.0-13.0-1.0-1.0-0.0-0.15","711","","f","","","","","","","","","","","","","key","f","16.67440540540485","640","396","f","true","img/C_ambi40.png","圆形","word_first",""
"","","","","","html-keyboard-response","190","617188","0.0-13.0-1.0-1.0-0.0-1.15","null","<span style='color:GreenYellow; font-size: 70px;'>正确! </span>","null","","","","","","","","","","","","","","","","","","","","","","","feedback_test"
"","","","","","psychophysics","191","619001","0.0-13.0-1.0-1.0-0.0-0.16","658","","j","","","","","","","","","","","","","key","j","16.674388888888103","640","396","f","false","img/S_ambi40.png","方形","word_first",""
"","","","","","html-keyboard-response","192","619308","0.0-13.0-1.0-1.0-0.0-1.16","null","<span style='color:red; font-size: 70px;'>错误! </span>","null","","","","","","","","","","","","","","","","","","","","","","","feedback_test"
"","","","","","psychophysics","193","621659","0.0-13.0-1.0-1.0-0.0-0.17","1199","","j","","","","","","","","","","","","","key","j","16.673784172661577","640","396","f","false","img/S_ambi40.png","方形","word_first",""
"","","","","","html-keyboard-response","194","621967","0.0-13.0-1.0-1.0-0.0-1.17","null","<span style='color:red; font-size: 70px;'>错误! </span>","null","","","","","","","","","","","","","","","","","","","","","","","feedback_test"
"","","","","","psychophysics","195","624111","0.0-13.0-1.0-1.0-0.0-0.18","990","","j","","","","","","","","","","","","","key","j","16.67457480315031","640","396","j","true","img/C_ambi40.png","方形","word_first",""
"","","","","","html-keyboard-response","196","624418","0.0-13.0-1.0-1.0-0.0-1.18","null","<span style='color:GreenYellow; font-size: 70px;'>正确! </span>","null","","","","","","","","","","","","","","","","","","","","","","","feedback_test"
"","","","","","psychophysics","197","626303","0.0-13.0-1.0-1.0-0.0-0.19","726","","j","","","","","","","","","","","","","key","j","16.675133928571345","640","396","j","true","img/S_ambi40.png","三角","word_first",""
"","","","","","html-keyboard-response","198","626610","0.0-13.0-1.0-1.0-0.0-1.19","null","<span style='color:GreenYellow; font-size: 70px;'>正确! </span>","null","","","","","","","","","","","","","","","","","","","","","","","feedback_test"
"","","","","","psychophysics","199","628513","0.0-13.0-1.0-1.0-0.0-0.20","747","","f","","","","","","","","","","","","","key","f","16.675336283186567","640","396","f","true","img/T_ambi40.png","三角","word_first",""
"","","","","","html-keyboard-response","200","628822","0.0-13.0-1.0-1.0-0.0-1.20","null","<span style='color:GreenYellow; font-size: 70px;'>正确! </span>","null","","","","","","","","","","","","","","","","","","","","","","","feedback_test"
"","","","","","psychophysics","201","630731","0.0-13.0-1.0-1.0-0.0-0.21","749","","f","","","","","","","","","","","","","key","f","16.674256637168067","640","396","f","true","img/C_ambi40.png","圆形","word_first",""
"","","","","","html-keyboard-response","202","631042","0.0-13.0-1.0-1.0-0.0-1.21","null","<span style='color:GreenYellow; font-size: 70px;'>正确! </span>","null","","","","","","","","","","","","","","","","","","","","","","","feedback_test"
"","","","","","psychophysics","203","633381","0.0-13.0-1.0-1.0-0.0-0.22","1182","","j","","","","","","","","","","","","","key","j","16.67350359712292","640","396","j","true","img/T_ambi40.png","圆形","word_first",""
"","","","","","html-keyboard-response","204","633704","0.0-13.0-1.0-1.0-0.0-1.22","null","<span style='color:GreenYellow; font-size: 70px;'>正确! </span>","null","","","","","","","","","","","","","","","","","","","","","","","feedback_test"
"","","","","","psychophysics","205","635654","0.0-13.0-1.0-1.0-0.0-0.23","796","","f","","","","","","","","","","","","","key","f","16.67424137930984","640","396","f","true","img/T_ambi40.png","三角","word_first",""
"","","","","","html-keyboard-response","206","635974","0.0-13.0-1.0-1.0-0.0-1.23","null","<span style='color:GreenYellow; font-size: 70px;'>正确! </span>","null","","","","","","","","","","","","","","","","","","","","","","","feedback_test"
"","","","","","psychophysics","207","638117","0.0-13.0-1.0-1.0-0.0-0.24","988","","j","","","","","","","","","","","","","key","j","16.674842519685626","640","396","j","true","img/T_ambi40.png","圆形","word_first",""
"","","","","","html-keyboard-response","208","638428","0.0-13.0-1.0-1.0-0.0-1.24","null","<span style='color:GreenYellow; font-size: 70px;'>正确! </span>","null","","","","","","","","","","","","","","","","","","","","","","","feedback_test"
"","","","","","psychophysics","209","640392","0.0-13.0-1.0-1.0-0.0-0.25","805","","j","","","","","","","","","","","","","key","j","16.673581196581267","640","396","j","true","img/S_ambi40.png","圆形","word_first",""
"","","","","","html-keyboard-response","210","640704","0.0-13.0-1.0-1.0-0.0-1.25","null","<span style='color:GreenYellow; font-size: 70px;'>正确! </span>","null","","","","","","","","","","","","","","","","","","","","","","","feedback_test"
"","","","","","psychophysics","211","642657","0.0-13.0-1.0-1.0-0.0-0.26","800","","f","","","","","","","","","","","","","key","f","16.674741379310504","640","396","f","true","img/S_ambi40.png","方形","word_first",""
"","","","","","html-keyboard-response","212","642962","0.0-13.0-1.0-1.0-0.0-1.26","null","<span style='color:GreenYellow; font-size: 70px;'>正确! </span>","null","","","","","","","","","","","","","","","","","","","","","","","feedback_test"
"","","","","","psychophysics","213","645042","0.0-13.0-1.0-1.0-0.0-0.27","921","","j","","","","","","","","","","","","","key","j","16.67274193548327","640","396","j","true","img/C_ambi40.png","三角","word_first",""
"","","","","","html-keyboard-response","214","645355","0.0-13.0-1.0-1.0-0.0-1.27","null","<span style='color:GreenYellow; font-size: 70px;'>正确! </span>","null","","","","","","","","","","","","","","","","","","","","","","","feedback_test"
"","","","","","psychophysics","215","647497","0.0-13.0-1.0-1.0-0.0-0.28","991","","f","","","","","","","","","","","","","key","f","16.67456692913327","640","396","f","true","img/T_ambi40.png","三角","word_first",""
"","","","","","html-keyboard-response","216","647809","0.0-13.0-1.0-1.0-0.0-1.28","null","<span style='color:GreenYellow; font-size: 70px;'>正确! </span>","null","","","","","","","","","","","","","","","","","","","","","","","feedback_test"
"","","","","","psychophysics","217","649693","0.0-13.0-1.0-1.0-0.0-0.29","724","","j","","","","","","","","","","","","","key","j","16.673651785714487","640","396","j","true","img/C_ambi40.png","方形","word_first",""
"","","","","","html-keyboard-response","218","650017","0.0-13.0-1.0-1.0-0.0-1.29","null","<span style='color:GreenYellow; font-size: 70px;'>正确! </span>","null","","","","","","","","","","","","","","","","","","","","","","","feedback_test"
"","","","","","psychophysics","219","652097","0.0-13.0-1.0-1.0-0.0-0.30","921","","f","","","","","","","","","","","","","key","f","16.674862903225492","640","396","f","true","img/C_ambi40.png","圆形","word_first",""
"","","","","","html-keyboard-response","220","652406","0.0-13.0-1.0-1.0-0.0-1.30","null","<span style='color:GreenYellow; font-size: 70px;'>正确! </span>","null","","","","","","","","","","","","","","","","","","","","","","","feedback_test"
"","","","","","psychophysics","221","654637","0.0-13.0-1.0-1.0-0.0-0.31","1078","","j","","","","","","","","","","","","","key","j","16.67499242424189","640","396","f","false","img/S_ambi40.png","方形","word_first",""
"","","","","","html-keyboard-response","222","654957","0.0-13.0-1.0-1.0-0.0-1.31","null","<span style='color:red; font-size: 70px;'>错误! </span>","null","","","","","","","","","","","","","","","","","","","","","","","feedback_test"
"","","","","","psychophysics","223","657225","0.0-13.0-1.0-1.0-0.0-0.32","1114","","f","","","","","","","","","","","","","key","f","16.675251851852604","640","396","f","true","img/T_ambi40.png","三角","word_first",""
"","","","","","html-keyboard-response","224","657540","0.0-13.0-1.0-1.0-0.0-1.32","null","<span style='color:GreenYellow; font-size: 70px;'>正确! </span>","null","","","","","","","","","","","","","","","","","","","","","","","feedback_test"
"","","","","","psychophysics","225","659315","0.0-13.0-1.0-1.0-0.0-0.33","619","","f","","","","","","","","","","","","","key","f","16.675820754716867","640","396","f","true","img/C_ambi40.png","圆形","word_first",""
"","","","","","html-keyboard-response","226","659621","0.0-13.0-1.0-1.0-0.0-1.33","null","<span style='color:GreenYellow; font-size: 70px;'>正确! </span>","null","","","","","","","","","","","","","","","","","","","","","","","feedback_test"
"","","","","","psychophysics","227","661552","0.0-13.0-1.0-1.0-0.0-0.34","775","","j","","","","","","","","","","","","","key","j","16.674495652174254","640","396","j","true","img/S_ambi40.png","三角","word_first",""
"","","","","","html-keyboard-response","228","661860","0.0-13.0-1.0-1.0-0.0-1.34","null","<span style='color:GreenYellow; font-size: 70px;'>正确! </span>","null","","","","","","","","","","","","","","","","","","","","","","","feedback_test"
"","","","","","psychophysics","229","663942","0.0-13.0-1.0-1.0-0.0-0.35","928","","j","","","","","","","","","","","","","key","j","16.67473387096787","640","396","j","true","img/T_ambi40.png","方形","word_first",""
"","","","","","html-keyboard-response","230","664257","0.0-13.0-1.0-1.0-0.0-1.35","null","<span style='color:GreenYellow; font-size: 70px;'>正确! </span>","null","","","","","","","","","","","","","","","","","","","","","","","feedback_test"
"","","","","","psychophysics","231","666133","0.0-13.0-1.0-1.0-0.0-0.36","723","","f","","","","","","","","","","","","","key","f","16.67453571428632","640","396","f","true","img/T_ambi40.png","三角","word_first",""
"","","","","","html-keyboard-response","232","666455","0.0-13.0-1.0-1.0-0.0-1.36","null","<span style='color:GreenYellow; font-size: 70px;'>正确! </span>","null","","","","","","","","","","","","","","","","","","","","","","","feedback_test"
"","","","","","psychophysics","233","668357","0.0-13.0-1.0-1.0-0.0-0.37","748","","j","","","","","","","","","","","","","key","j","16.674433628318674","640","396","j","true","img/T_ambi40.png","圆形","word_first",""
"","","","","","html-keyboard-response","234","668677","0.0-13.0-1.0-1.0-0.0-1.37","null","<span style='color:GreenYellow; font-size: 70px;'>正确! </span>","null","","","","","","","","","","","","","","","","","","","","","","","feedback_test"
"","","","","","psychophysics","235","670601","0.0-13.0-1.0-1.0-0.0-0.38","767","","j","","","","","","","","","","","","","key","j","16.675315789472958","640","396","j","true","img/S_ambi40.png","圆形","word_first",""
"","","","","","html-keyboard-response","236","670915","0.0-13.0-1.0-1.0-0.0-1.38","null","<span style='color:GreenYellow; font-size: 70px;'>正确! </span>","null","","","","","","","","","","","","","","","","","","","","","","","feedback_test"
"","","","","","psychophysics","237","672690","0.0-13.0-1.0-1.0-0.0-0.39","616","","f","","","","","","","","","","","","","key","f","16.674523809523365","640","396","f","true","img/T_ambi40.png","三角","word_first",""
"","","","","","html-keyboard-response","238","672996","0.0-13.0-1.0-1.0-0.0-1.39","null","<span style='color:GreenYellow; font-size: 70px;'>正确! </span>","null","","","","","","","","","","","","","","","","","","","","","","","feedback_test"
"","","","","","psychophysics","239","674851","0.0-13.0-1.0-1.0-0.0-0.40","698","","j","","","","","","","","","","","","","key","j","16.675545454544903","640","396","j","true","img/C_ambi40.png","方形","word_first",""
"","","","","","html-keyboard-response","240","675162","0.0-13.0-1.0-1.0-0.0-1.40","null","<span style='color:GreenYellow; font-size: 70px;'>正确! </span>","null","","","","","","","","","","","","","","","","","","","","","","","feedback_test"
"","","","","","psychophysics","241","676873","0.0-13.0-1.0-1.0-0.0-0.41","552","","f","","","","","","","","","","","","","key","f","16.674176470588836","640","396","f","true","img/C_ambi40.png","圆形","word_first",""
"","","","","","html-keyboard-response","242","677180","0.0-13.0-1.0-1.0-0.0-1.41","null","<span style='color:GreenYellow; font-size: 70px;'>正确! </span>","null","","","","","","","","","","","","","","","","","","","","","","","feedback_test"
"","","","","","psychophysics","243","679106","0.0-13.0-1.0-1.0-0.0-0.42","769","","f","","","","","","","","","","","","","key","f","16.67439473684256","640","396","f","true","img/S_ambi40.png","方形","word_first",""
"","","","","","html-keyboard-response","244","679415","0.0-13.0-1.0-1.0-0.0-1.42","null","<span style='color:GreenYellow; font-size: 70px;'>正确! </span>","null","","","","","","","","","","","","","","","","","","","","","","","feedback_test"
"","","","","","psychophysics","245","681177","0.0-13.0-1.0-1.0-0.0-0.43","602","","j","","","","","","","","","","","","","key","j","16.675190476190654","640","396","j","true","img/S_ambi40.png","三角","word_first",""
"","","","","","html-keyboard-response","246","681486","0.0-13.0-1.0-1.0-0.0-1.43","null","<span style='color:GreenYellow; font-size: 70px;'>正确! </span>","null","","","","","","","","","","","","","","","","","","","","","","","feedback_test"
"","","","","","psychophysics","247","683282","0.0-13.0-1.0-1.0-0.0-0.44","642","","f","","","","","","","","","","","","","key","f","16.67450467289739","640","396","f","true","img/C_ambi40.png","圆形","word_first",""
"","","","","","html-keyboard-response","248","683594","0.0-13.0-1.0-1.0-0.0-1.44","null","<span style='color:GreenYellow; font-size: 70px;'>正确! </span>","null","","","","","","","","","","","","","","","","","","","","","","","feedback_test"
"","","","","","psychophysics","249","685448","0.0-13.0-1.0-1.0-0.0-0.45","696","","j","","","","","","","","","","","","","key","j","16.67450909090906","640","396","f","false","img/S_ambi40.png","方形","word_first",""
"","","","","","html-keyboard-response","250","685765","0.0-13.0-1.0-1.0-0.0-1.45","null","<span style='color:red; font-size: 70px;'>错误! </span>","null","","","","","","","","","","","","","","","","","","","","","","","feedback_test"
"","","","","","psychophysics","251","687607","0.0-13.0-1.0-1.0-0.0-0.46","686","","j","","","","","","","","","","","","","key","j","16.674220183486153","640","396","j","true","img/C_ambi40.png","三角","word_first",""
"","","","","","html-keyboard-response","252","687916","0.0-13.0-1.0-1.0-0.0-1.46","null","<span style='color:GreenYellow; font-size: 70px;'>正确! </span>","null","","","","","","","","","","","","","","","","","","","","","","","feedback_test"
"","","","","","psychophysics","253","689765","0.0-13.0-1.0-1.0-0.0-0.47","692","","j","","","","","","","","","","","","","key","j","16.674536363636566","640","396","j","true","img/T_ambi40.png","方形","word_first",""
"","","","","","html-keyboard-response","254","690084","0.0-13.0-1.0-1.0-0.0-1.47","null","<span style='color:GreenYellow; font-size: 70px;'>正确! </span>","null","","","","","","","","","","","","","","","","","","","","","","","feedback_test"
"","","","","","psychophysics","255","691838","0.0-13.0-1.0-1.0-0.0-0.48","598","","f","","","","","","","","","","","","","key","f","16.67359615384619","640","396","f","true","img/T_ambi40.png","三角","word_first",""
"","","","","","html-keyboard-response","256","692147","0.0-13.0-1.0-1.0-0.0-1.48","null","<span style='color:GreenYellow; font-size: 70px;'>正确! </span>","null","","","","","","","","","","","","","","","","","","","","","","","feedback_test"
"","","","","","psychophysics","257","693982","0.0-13.0-1.0-1.0-0.0-0.49","677","","j","","","","","","","","","","","","","key","j","16.6755779816517","640","396","j","true","img/T_ambi40.png","圆形","word_first",""
"","","","","","html-keyboard-response","258","694295","0.0-13.0-1.0-1.0-0.0-1.49","null","<span style='color:GreenYellow; font-size: 70px;'>正确! </span>","null","","","","","","","","","","","","","","","","","","","","","","","feedback_test"
"","","","","","psychophysics","259","696948","0.0-13.0-1.0-1.0-0.0-0.50","null","","null","","","","","","","","","","","","","key","null","16.5809171974524","640","396","j","false","img/S_ambi40.png","圆形","word_first",""
"","","","","","html-keyboard-response","260","697261","0.0-13.0-1.0-1.0-0.0-1.50","null","<span class='add_' style='color:yellow; font-size: 70px;'> 太慢! </span>","null","","","","","","","","","","","","","","","","","","","","","","","feedback_test"
"","","","","","psychophysics","261","699161","0.0-13.0-1.0-1.0-0.0-0.51","747","","f","","","","","","","","","","","","","key","f","16.57508928571354","640","396","f","true","img/C_ambi40.png","圆形","word_first",""
"","","","","","html-keyboard-response","262","699482","0.0-13.0-1.0-1.0-0.0-1.51","null","<span style='color:GreenYellow; font-size: 70px;'>正确! </span>","null","","","","","","","","","","","","","","","","","","","","","","","feedback_test"
"","","","","","psychophysics","263","701237","0.0-13.0-1.0-1.0-0.0-0.52","595","","f","","","","","","","","","","","","","key","f","16.674355769231063","640","396","f","true","img/T_ambi40.png","三角","word_first",""
"","","","","","html-keyboard-response","264","701551","0.0-13.0-1.0-1.0-0.0-1.52","null","<span style='color:GreenYellow; font-size: 70px;'>正确! </span>","null","","","","","","","","","","","","","","","","","","","","","","","feedback_test"
"","","","","","psychophysics","265","703308","0.0-13.0-1.0-1.0-0.0-0.53","603","","j","","","","","","","","","","","","","key","j","16.6738365384618","640","396","j","true","img/C_ambi40.png","方形","word_first",""
"","","","","","html-keyboard-response","266","703620","0.0-13.0-1.0-1.0-0.0-1.53","null","<span style='color:GreenYellow; font-size: 70px;'>正确! </span>","null","","","","","","","","","","","","","","","","","","","","","","","feedback_test"
"","","","","","psychophysics","267","705589","0.0-13.0-1.0-1.0-0.0-0.54","812","","j","","","","","","","","","","","","","key","j","16.67474358974315","640","396","j","true","img/T_ambi40.png","方形","word_first",""
"","","","","","html-keyboard-response","268","705911","0.0-13.0-1.0-1.0-0.0-1.54","null","<span style='color:GreenYellow; font-size: 70px;'>正确! </span>","null","","","","","","","","","","","","","","","","","","","","","","","feedback_test"
"","","","","","psychophysics","269","707649","0.0-13.0-1.0-1.0-0.0-0.55","581","","f","","","","","","","","","","","","","key","f","16.67431372549047","640","396","f","true","img/C_ambi40.png","圆形","word_first",""
"","","","","","html-keyboard-response","270","707964","0.0-13.0-1.0-1.0-0.0-1.55","null","<span style='color:GreenYellow; font-size: 70px;'>正确! </span>","null","","","","","","","","","","","","","","","","","","","","","","","feedback_test"
"","","","","","psychophysics","271","710060","0.0-13.0-1.0-1.0-0.0-0.56","941","","f","","","","","","","","","","","","","key","f","16.672680000000632","640","396","f","true","img/S_ambi40.png","方形","word_first",""
"","","","","","html-keyboard-response","272","710375","0.0-13.0-1.0-1.0-0.0-1.56","null","<span style='color:GreenYellow; font-size: 70px;'>正确! </span>","null","","","","","","","","","","","","","","","","","","","","","","","feedback_test"
"","","","","","psychophysics","273","712052","0.0-13.0-1.0-1.0-0.0-0.57","522","","f","","","","","","","","","","","","","key","f","16.67386868686975","640","396","f","true","img/S_ambi40.png","方形","word_first",""
"","","","","","html-keyboard-response","274","712373","0.0-13.0-1.0-1.0-0.0-1.57","null","<span style='color:GreenYellow; font-size: 70px;'>正确! </span>","null","","","","","","","","","","","","","","","","","","","","","","","feedback_test"
"","","","","","psychophysics","275","714256","0.0-13.0-1.0-1.0-0.0-0.58","726","","j","","","","","","","","","","","","","key","j","16.674517857142614","640","396","j","true","img/S_ambi40.png","三角","word_first",""
"","","","","","html-keyboard-response","276","714575","0.0-13.0-1.0-1.0-0.0-1.58","null","<span style='color:GreenYellow; font-size: 70px;'>正确! </span>","null","","","","","","","","","","","","","","","","","","","","","","","feedback_test"
"","","","","","psychophysics","277","716382","0.0-13.0-1.0-1.0-0.0-0.59","653","","j","","","","","","","","","","","","","key","j","16.67524299065356","640","396","j","true","img/C_ambi40.png","三角","word_first",""
"","","","","","html-keyboard-response","278","716701","0.0-13.0-1.0-1.0-0.0-1.59","null","<span style='color:GreenYellow; font-size: 70px;'>正确! </span>","null","","","","","","","","","","","","","","","","","","","","","","","feedback_test"
"","","","","","html-keyboard-response","279","720081","0.0-13.0-1.0-1.0-1.0","3377","<style>.context{color:white; font-size: 35px; line-height:40px}</style>                            <div><p class='context'>您正确回答了88% 的试次。</p><p class='context'>您的平均反应时为756毫秒。</p><p class='context'>请按任意键进入休息</p></div>"," ","","","","","","","","","","","","","","","","","","","","","","",""
"","","","","","html-button-response","280","782050","0.0-13.0-1.0-1.0-2.0","61966","
                    <p>您当前还剩余3组实验</p>
                    <p>现在是休息时间，当您结束休息后，您可以点击 结束休息 按钮 继续</p>
                    <p>建议休息时间还剩余<span id=""iii"">60</span>秒</p>","0","","","","","","","","","","","","","","","","","","","","","","",""
"","","","","","psychophysics","281","784706","0.0-13.0-1.0-1.0-0.1-0.60","null","","null","","","","","","","","","","","","","key","null","16.674512658227687","640","396","f","false","img/C_ambi40.png","圆形","word_first",""
"","","","","","html-keyboard-response","282","785014","0.0-13.0-1.0-1.0-0.1-1.60","null","<span class='add_' style='color:yellow; font-size: 70px;'> 太慢! </span>","null","","","","","","","","","","","","","","","","","","","","","","","feedback_test"
"","","","","","psychophysics","283","786963","0.0-13.0-1.0-1.0-0.1-0.61","794","","f","","","","","","","","","","","","","key","f","16.67543965517262","640","396","f","true","img/T_ambi40.png","三角","word_first",""
"","","","","","html-keyboard-response","284","787286","0.0-13.0-1.0-1.0-0.1-1.61","null","<span style='color:GreenYellow; font-size: 70px;'>正确! </span>","null","","","","","","","","","","","","","","","","","","","","","","","feedback_test"
"","","","","","psychophysics","285","789285","0.0-13.0-1.0-1.0-0.1-0.62","843","","f","","","","","","","","","","","","","key","f","16.671168067226454","640","396","f","true","img/S_ambi40.png","方形","word_first",""
"","","","","","html-keyboard-response","286","789606","0.0-13.0-1.0-1.0-0.1-1.62","null","<span style='color:GreenYellow; font-size: 70px;'>正确! </span>","null","","","","","","","","","","","","","","","","","","","","","","","feedback_test"
"","","","","","psychophysics","287","791339","0.0-13.0-1.0-1.0-0.1-0.63","580","","f","","","","","","","","","","","","","key","f","16.547931372548693","640","396","f","true","img/T_ambi40.png","三角","word_first",""
"","","","","","html-keyboard-response","288","791652","0.0-13.0-1.0-1.0-0.1-1.63","null","<span style='color:GreenYellow; font-size: 70px;'>正确! </span>","null","","","","","","","","","","","","","","","","","","","","","","","feedback_test"
"","","","","","psychophysics","289","793458","0.0-13.0-1.0-1.0-0.1-0.64","649","","j","","","","","","","","","","","","","key","j","16.674626168224822","640","396","j","true","img/C_ambi40.png","三角","word_first",""
"","","","","","html-keyboard-response","290","793775","0.0-13.0-1.0-1.0-0.1-1.64","null","<span style='color:GreenYellow; font-size: 70px;'>正确! </span>","null","","","","","","","","","","","","","","","","","","","","","","","feedback_test"
"","","","","","psychophysics","291","795591","0.0-13.0-1.0-1.0-0.1-0.65","665","","j","","","","","","","","","","","","","key","j","16.675065420560372","640","396","j","true","img/C_ambi40.png","方形","word_first",""
"","","","","","html-keyboard-response","292","795905","0.0-13.0-1.0-1.0-0.1-1.65","null","<span style='color:GreenYellow; font-size: 70px;'>正确! </span>","null","","","","","","","","","","","","","","","","","","","","","","","feedback_test"
"","","","","","psychophysics","293","797693","0.0-13.0-1.0-1.0-0.1-0.66","635","","f","","","","","","","","","","","","","key","f","16.67570754716981","640","396","f","true","img/C_ambi40.png","圆形","word_first",""
"","","","","","html-keyboard-response","294","798018","0.0-13.0-1.0-1.0-0.1-1.66","null","<span style='color:GreenYellow; font-size: 70px;'>正确! </span>","null","","","","","","","","","","","","","","","","","","","","","","","feedback_test"
"","","","","","psychophysics","295","799757","0.0-13.0-1.0-1.0-0.1-0.67","580","","j","","","","","","","","","","","","","key","j","16.67405825242789","640","396","j","true","img/T_ambi40.png","方形","word_first",""
"","","","","","html-keyboard-response","296","800072","0.0-13.0-1.0-1.0-0.1-1.67","null","<span style='color:GreenYellow; font-size: 70px;'>正确! </span>","null","","","","","","","","","","","","","","","","","","","","","","","feedback_test"
"","","","","","psychophysics","297","801856","0.0-13.0-1.0-1.0-0.1-0.68","631","","j","","","","","","","","","","","","","key","j","16.674650943395463","640","396","j","true","img/S_ambi40.png","三角","word_first",""
"","","","","","html-keyboard-response","298","802178","0.0-13.0-1.0-1.0-0.1-1.68","null","<span style='color:GreenYellow; font-size: 70px;'>正确! </span>","null","","","","","","","","","","","","","","","","","","","","","","","feedback_test"
"","","","","","psychophysics","299","804086","0.0-13.0-1.0-1.0-0.1-0.69","739","","f","","","","","","","","","","","","","key","f","16.67210619469004","640","396","f","true","img/S_ambi40.png","方形","word_first",""
"","","","","","html-keyboard-response","300","804399","0.0-13.0-1.0-1.0-0.1-1.69","null","<span style='color:GreenYellow; font-size: 70px;'>正确! </span>","null","","","","","","","","","","","","","","","","","","","","","","","feedback_test"
"","","","","","psychophysics","301","806214","0.0-13.0-1.0-1.0-0.1-0.70","661","","j","","","","","","","","","","","","","key","j","16.673373831775493","640","396","j","true","img/T_ambi40.png","圆形","word_first",""
"","","","","","html-keyboard-response","302","806535","0.0-13.0-1.0-1.0-0.1-1.70","null","<span style='color:GreenYellow; font-size: 70px;'>正确! </span>","null","","","","","","","","","","","","","","","","","","","","","","","feedback_test"
"","","","","","psychophysics","303","808247","0.0-13.0-1.0-1.0-0.1-0.71","558","","j","","","","","","","","","","","","","key","j","16.674594059406715","640","396","j","true","img/S_ambi40.png","圆形","word_first",""
"","","","","","html-keyboard-response","304","808563","0.0-13.0-1.0-1.0-0.1-1.71","null","<span style='color:GreenYellow; font-size: 70px;'>正确! </span>","null","","","","","","","","","","","","","","","","","","","","","","","feedback_test"
"","","","","","psychophysics","305","810332","0.0-13.0-1.0-1.0-0.1-0.72","616","","j","","","","","","","","","","","","","key","j","16.674580952381007","640","396","j","true","img/S_ambi40.png","圆形","word_first",""
"","","","","","html-keyboard-response","306","810655","0.0-13.0-1.0-1.0-0.1-1.72","null","<span style='color:GreenYellow; font-size: 70px;'>正确! </span>","null","","","","","","","","","","","","","","","","","","","","","","","feedback_test"
"","","","","","psychophysics","307","812499","0.0-13.0-1.0-1.0-0.1-0.73","688","","j","","","","","","","","","","","","","key","j","16.673211009174356","640","396","j","true","img/T_ambi40.png","方形","word_first",""
"","","","","","html-keyboard-response","308","812809","0.0-13.0-1.0-1.0-0.1-1.73","null","<span style='color:GreenYellow; font-size: 70px;'>正确! </span>","null","","","","","","","","","","","","","","","","","","","","","","","feedback_test"
"","","","","","psychophysics","309","814614","0.0-13.0-1.0-1.0-0.1-0.74","653","","j","","","","","","","","","","","","","key","j","16.674532710280808","640","396","j","true","img/T_ambi40.png","圆形","word_first",""
"","","","","","html-keyboard-response","310","814928","0.0-13.0-1.0-1.0-0.1-1.74","null","<span style='color:GreenYellow; font-size: 70px;'>正确! </span>","null","","","","","","","","","","","","","","","","","","","","","","","feedback_test"
"","","","","","psychophysics","311","816959","0.0-13.0-1.0-1.0-0.1-0.75","877","","j","","","","","","","","","","","","","key","j","16.67452066115677","640","396","j","true","img/C_ambi40.png","方形","word_first",""
"","","","","","html-keyboard-response","312","817278","0.0-13.0-1.0-1.0-0.1-1.75","null","<span style='color:GreenYellow; font-size: 70px;'>正确! </span>","null","","","","","","","","","","","","","","","","","","","","","","","feedback_test"
"","","","","","psychophysics","313","819002","0.0-13.0-1.0-1.0-0.1-0.76","570","","f","","","","","","","","","","","","","key","f","16.674539215685844","640","396","f","true","img/T_ambi40.png","三角","word_first",""
"","","","","","html-keyboard-response","314","819309","0.0-13.0-1.0-1.0-0.1-1.76","null","<span style='color:GreenYellow; font-size: 70px;'>正确! </span>","null","","","","","","","","","","","","","","","","","","","","","","","feedback_test"
"","","","","","psychophysics","315","820988","0.0-13.0-1.0-1.0-0.1-0.77","522","","j","","","","","","","","","","","","","key","j","16.674171717171888","640","396","j","true","img/C_ambi40.png","三角","word_first",""
"","","","","","html-keyboard-response","316","821298","0.0-13.0-1.0-1.0-0.1-1.77","null","<span style='color:GreenYellow; font-size: 70px;'>正确! </span>","null","","","","","","","","","","","","","","","","","","","","","","","feedback_test"
"","","","","","psychophysics","317","823053","0.0-13.0-1.0-1.0-0.1-0.78","602","","j","","","","","","","","","","","","","key","j","16.674759615383945","640","396","f","false","img/S_ambi40.png","方形","word_first",""
"","","","","","html-keyboard-response","318","823376","0.0-13.0-1.0-1.0-0.1-1.78","null","<span style='color:red; font-size: 70px;'>错误! </span>","null","","","","","","","","","","","","","","","","","","","","","","","feedback_test"
"","","","","","psychophysics","319","825240","0.0-13.0-1.0-1.0-0.1-0.79","711","","j","","","","","","","","","","","","","key","j","16.673972727272616","640","396","j","true","img/S_ambi40.png","三角","word_first",""
"","","","","","html-keyboard-response","320","825552","0.0-13.0-1.0-1.0-0.1-1.79","null","<span style='color:GreenYellow; font-size: 70px;'>正确! </span>","null","","","","","","","","","","","","","","","","","","","","","","","feedback_test"
"","","","","","psychophysics","321","827346","0.0-13.0-1.0-1.0-0.1-0.80","641","","f","","","","","","","","","","","","","key","f","16.674457943925383","640","396","f","true","img/C_ambi40.png","圆形","word_first",""
"","","","","","html-keyboard-response","322","827662","0.0-13.0-1.0-1.0-0.1-1.80","null","<span style='color:GreenYellow; font-size: 70px;'>正确! </span>","null","","","","","","","","","","","","","","","","","","","","","","","feedback_test"
"","","","","","psychophysics","323","829332","0.0-13.0-1.0-1.0-0.1-0.81","515","","f","","","","","","","","","","","","","key","f","16.673535353534696","640","396","f","true","img/T_ambi40.png","三角","word_first",""
"","","","","","html-keyboard-response","324","829646","0.0-13.0-1.0-1.0-0.1-1.81","null","<span style='color:GreenYellow; font-size: 70px;'>正确! </span>","null","","","","","","","","","","","","","","","","","","","","","","","feedback_test"
"","","","","","psychophysics","325","831270","0.0-13.0-1.0-1.0-0.1-0.82","467","","f","","","","","","","","","","","","","key","f","16.67364583333377","640","396","f","true","img/S_ambi40.png","方形","word_first",""
"","","","","","html-keyboard-response","326","831581","0.0-13.0-1.0-1.0-0.1-1.82","null","<span style='color:GreenYellow; font-size: 70px;'>正确! </span>","null","","","","","","","","","","","","","","","","","","","","","","","feedback_test"
"","","","","","psychophysics","327","833426","0.0-13.0-1.0-1.0-0.1-0.83","688","","f","","","","","","","","","","","","","key","f","16.67380733944907","640","396","f","true","img/C_ambi40.png","圆形","word_first",""
"","","","","","html-keyboard-response","328","833743","0.0-13.0-1.0-1.0-0.1-1.83","null","<span style='color:GreenYellow; font-size: 70px;'>正确! </span>","null","","","","","","","","","","","","","","","","","","","","","","","feedback_test"
"","","","","","psychophysics","329","835458","0.0-13.0-1.0-1.0-0.1-0.84","560","","f","","","","","","","","","","","","","key","f","16.547198019801908","640","396","f","true","img/C_ambi40.png","圆形","word_first",""
"","","","","","html-keyboard-response","330","835763","0.0-13.0-1.0-1.0-0.1-1.84","null","<span style='color:GreenYellow; font-size: 70px;'>正确! </span>","null","","","","","","","","","","","","","","","","","","","","","","","feedback_test"
"","","","","","psychophysics","331","837450","0.0-13.0-1.0-1.0-0.1-0.85","533","","f","","","","","","","","","","","","","key","f","16.675500000000465","640","396","f","true","img/S_ambi40.png","方形","word_first",""
"","","","","","html-keyboard-response","332","837760","0.0-13.0-1.0-1.0-0.1-1.85","null","<span style='color:GreenYellow; font-size: 70px;'>正确! </span>","null","","","","","","","","","","","","","","","","","","","","","","","feedback_test"
"","","","","","psychophysics","333","839426","0.0-13.0-1.0-1.0-0.1-0.86","512","","f","","","","","","","","","","","","","key","f","16.673878787879154","640","396","f","true","img/T_ambi40.png","三角","word_first",""
"","","","","","html-keyboard-response","334","839740","0.0-13.0-1.0-1.0-0.1-1.86","null","<span style='color:GreenYellow; font-size: 70px;'>正确! </span>","null","","","","","","","","","","","","","","","","","","","","","","","feedback_test"
"","","","","","psychophysics","335","841570","0.0-13.0-1.0-1.0-0.1-0.87","671","","f","","","","","","","","","","","","","key","f","16.67398165137648","640","396","f","true","img/C_ambi40.png","圆形","word_first",""
"","","","","","html-keyboard-response","336","841879","0.0-13.0-1.0-1.0-0.1-1.87","null","<span style='color:GreenYellow; font-size: 70px;'>正确! </span>","null","","","","","","","","","","","","","","","","","","","","","","","feedback_test"
"","","","","","psychophysics","337","843544","0.0-13.0-1.0-1.0-0.1-0.88","511","","f","","","","","","","","","","","","","key","f","16.674818181818484","640","396","f","true","img/S_ambi40.png","方形","word_first",""
"","","","","","html-keyboard-response","338","843859","0.0-13.0-1.0-1.0-0.1-1.88","null","<span style='color:GreenYellow; font-size: 70px;'>正确! </span>","null","","","","","","","","","","","","","","","","","","","","","","","feedback_test"
"","","","","","psychophysics","339","845565","0.0-13.0-1.0-1.0-0.1-0.89","548","","j","","","","","","","","","","","","","key","j","16.67482178217828","640","396","j","true","img/T_ambi40.png","方形","word_first",""
"","","","","","html-keyboard-response","340","845873","0.0-13.0-1.0-1.0-0.1-1.89","null","<span style='color:GreenYellow; font-size: 70px;'>正确! </span>","null","","","","","","","","","","","","","","","","","","","","","","","feedback_test"
"","","","","","psychophysics","341","847726","0.0-13.0-1.0-1.0-0.1-0.90","700","","j","","","","","","","","","","","","","key","j","16.674845454545522","640","396","j","true","img/C_ambi40.png","方形","word_first",""
"","","","","","html-keyboard-response","342","848044","0.0-13.0-1.0-1.0-0.1-1.90","null","<span style='color:GreenYellow; font-size: 70px;'>正确! </span>","null","","","","","","","","","","","","","","","","","","","","","","","feedback_test"
"","","","","","psychophysics","343","849860","0.0-13.0-1.0-1.0-0.1-0.91","658","","j","","","","","","","","","","","","","key","j","16.67477777777714","640","396","j","true","img/S_ambi40.png","圆形","word_first",""
"","","","","","html-keyboard-response","344","850166","0.0-13.0-1.0-1.0-0.1-1.91","null","<span style='color:GreenYellow; font-size: 70px;'>正确! </span>","null","","","","","","","","","","","","","","","","","","","","","","","feedback_test"
"","","","","","psychophysics","345","852086","0.0-13.0-1.0-1.0-0.1-0.92","766","","j","","","","","","","","","","","","","key","j","16.6745964912279","640","396","j","true","img/S_ambi40.png","三角","word_first",""
"","","","","","html-keyboard-response","346","852400","0.0-13.0-1.0-1.0-0.1-1.92","null","<span style='color:GreenYellow; font-size: 70px;'>正确! </span>","null","","","","","","","","","","","","","","","","","","","","","","","feedback_test"
"","","","","","psychophysics","347","854171","0.0-13.0-1.0-1.0-0.1-0.93","619","","j","","","","","","","","","","","","","key","j","16.674923809523516","640","396","j","true","img/T_ambi40.png","圆形","word_first",""
"","","","","","html-keyboard-response","348","854482","0.0-13.0-1.0-1.0-0.1-1.93","null","<span style='color:GreenYellow; font-size: 70px;'>正确! </span>","null","","","","","","","","","","","","","","","","","","","","","","","feedback_test"
"","","","","","psychophysics","349","856234","0.0-13.0-1.0-1.0-0.1-0.94","596","","j","","","","","","","","","","","","","key","j","16.67379807692375","640","396","j","true","img/C_ambi40.png","三角","word_first",""
"","","","","","html-keyboard-response","350","856546","0.0-13.0-1.0-1.0-0.1-1.94","null","<span style='color:GreenYellow; font-size: 70px;'>正确! </span>","null","","","","","","","","","","","","","","","","","","","","","","","feedback_test"
"","","","","","psychophysics","351","858423","0.0-13.0-1.0-1.0-0.1-0.95","716","","f","","","","","","","","","","","","","key","f","16.673621621621596","640","396","f","true","img/T_ambi40.png","三角","word_first",""
"","","","","","html-keyboard-response","352","858731","0.0-13.0-1.0-1.0-0.1-1.95","null","<span style='color:GreenYellow; font-size: 70px;'>正确! </span>","null","","","","","","","","","","","","","","","","","","","","","","","feedback_test"
"","","","","","psychophysics","353","860382","0.0-13.0-1.0-1.0-0.1-0.96","492","","f","","","","","","","","","","","","","key","f","16.67447959183601","640","396","f","true","img/T_ambi40.png","三角","word_first",""
"","","","","","html-keyboard-response","354","860697","0.0-13.0-1.0-1.0-0.1-1.96","null","<span style='color:GreenYellow; font-size: 70px;'>正确! </span>","null","","","","","","","","","","","","","","","","","","","","","","","feedback_test"
"","","","","","psychophysics","355","862299","0.0-13.0-1.0-1.0-0.1-0.97","450","","f","","","","","","","","","","","","","key","f","16.675126315789345","640","396","f","true","img/T_ambi40.png","三角","word_first",""
"","","","","","html-keyboard-response","356","862615","0.0-13.0-1.0-1.0-0.1-1.97","null","<span style='color:GreenYellow; font-size: 70px;'>正确! </span>","null","","","","","","","","","","","","","","","","","","","","","","","feedback_test"
"","","","","","psychophysics","357","864349","0.0-13.0-1.0-1.0-0.1-0.98","580","","j","","","","","","","","","","","","","key","j","16.674271844659742","640","396","j","true","img/S_ambi40.png","圆形","word_first",""
"","","","","","html-keyboard-response","358","864668","0.0-13.0-1.0-1.0-0.1-1.98","null","<span style='color:GreenYellow; font-size: 70px;'>正确! </span>","null","","","","","","","","","","","","","","","","","","","","","","","feedback_test"
"","","","","","psychophysics","359","866347","0.0-13.0-1.0-1.0-0.1-0.99","522","","j","","","","","","","","","","","","","key","j","16.673769999999784","640","396","j","true","img/T_ambi40.png","圆形","word_first",""
"","","","","","html-keyboard-response","360","866657","0.0-13.0-1.0-1.0-0.1-1.99","null","<span style='color:GreenYellow; font-size: 70px;'>正确! </span>","null","","","","","","","","","","","","","","","","","","","","","","","feedback_test"
"","","","","","psychophysics","361","868597","0.0-13.0-1.0-1.0-0.1-0.100","787","","j","","","","","","","","","","","","","key","j","16.57974782608672","640","396","j","true","img/T_ambi40.png","方形","word_first",""
"","","","","","html-keyboard-response","362","868917","0.0-13.0-1.0-1.0-0.1-1.100","null","<span style='color:GreenYellow; font-size: 70px;'>正确! </span>","null","","","","","","","","","","","","","","","","","","","","","","","feedback_test"
"","","","","","psychophysics","363","870720","0.0-13.0-1.0-1.0-0.1-0.101","646","","f","","","","","","","","","","","","","key","f","16.673981308411573","640","396","f","true","img/S_ambi40.png","方形","word_first",""
"","","","","","html-keyboard-response","364","871039","0.0-13.0-1.0-1.0-0.1-1.101","null","<span style='color:GreenYellow; font-size: 70px;'>正确! </span>","null","","","","","","","","","","","","","","","","","","","","","","","feedback_test"
"","","","","","psychophysics","365","872845","0.0-13.0-1.0-1.0-0.1-0.102","651","","j","","","","","","","","","","","","","key","j","16.674934579439192","640","396","j","true","img/C_ambi40.png","三角","word_first",""
"","","","","","html-keyboard-response","366","873168","0.0-13.0-1.0-1.0-0.1-1.102","null","<span style='color:GreenYellow; font-size: 70px;'>正确! </span>","null","","","","","","","","","","","","","","","","","","","","","","","feedback_test"
"","","","","","psychophysics","367","874985","0.0-13.0-1.0-1.0-0.1-0.103","654","","f","","","","","","","","","","","","","key","f","16.674731481481878","640","396","f","true","img/C_ambi40.png","圆形","word_first",""
"","","","","","html-keyboard-response","368","875297","0.0-13.0-1.0-1.0-0.1-1.103","null","<span style='color:GreenYellow; font-size: 70px;'>正确! </span>","null","","","","","","","","","","","","","","","","","","","","","","","feedback_test"
"","","","","","psychophysics","369","877041","0.0-13.0-1.0-1.0-0.1-0.104","583","","f","","","","","","","","","","","","","key","f","16.58176699029146","640","396","f","true","img/C_ambi40.png","圆形","word_first",""
"","","","","","html-keyboard-response","370","877355","0.0-13.0-1.0-1.0-0.1-1.104","null","<span style='color:GreenYellow; font-size: 70px;'>正确! </span>","null","","","","","","","","","","","","","","","","","","","","","","","feedback_test"
"","","","","","psychophysics","371","879035","0.0-13.0-1.0-1.0-0.1-0.105","520","","j","","","","","","","","","","","","","key","j","16.67466999999946","640","396","j","true","img/S_ambi40.png","三角","word_first",""
"","","","","","html-keyboard-response","372","879342","0.0-13.0-1.0-1.0-0.1-1.105","null","<span style='color:GreenYellow; font-size: 70px;'>正确! </span>","null","","","","","","","","","","","","","","","","","","","","","","","feedback_test"
"","","","","","psychophysics","373","881182","0.0-13.0-1.0-1.0-0.1-0.106","685","","j","","","","","","","","","","","","","key","j","16.675110091743647","640","396","j","true","img/C_ambi40.png","方形","word_first",""
"","","","","","html-keyboard-response","374","881492","0.0-13.0-1.0-1.0-0.1-1.106","null","<span style='color:GreenYellow; font-size: 70px;'>正确! </span>","null","","","","","","","","","","","","","","","","","","","","","","","feedback_test"
"","","","","","psychophysics","375","883445","0.0-13.0-1.0-1.0-0.1-0.107","796","","f","","","","","","","","","","","","","key","f","16.67536206896505","640","396","f","true","img/S_ambi40.png","方形","word_first",""
"","","","","","html-keyboard-response","376","883767","0.0-13.0-1.0-1.0-0.1-1.107","null","<span style='color:GreenYellow; font-size: 70px;'>正确! </span>","null","","","","","","","","","","","","","","","","","","","","","","","feedback_test"
"","","","","","psychophysics","377","885516","0.0-13.0-1.0-1.0-0.1-0.108","597","","j","","","","","","","","","","","","","key","j","16.67489320388317","640","396","j","true","img/T_ambi40.png","方形","word_first",""
"","","","","","html-keyboard-response","378","885819","0.0-13.0-1.0-1.0-0.1-1.108","null","<span style='color:GreenYellow; font-size: 70px;'>正确! </span>","null","","","","","","","","","","","","","","","","","","","","","","","feedback_test"
"","","","","","psychophysics","379","887936","0.0-13.0-1.0-1.0-0.1-0.109","965","","j","","","","","","","","","","","","","key","j","16.675359999999404","640","396","j","true","img/S_ambi40.png","三角","word_first",""
"","","","","","html-keyboard-response","380","888246","0.0-13.0-1.0-1.0-0.1-1.109","null","<span style='color:GreenYellow; font-size: 70px;'>正确! </span>","null","","","","","","","","","","","","","","","","","","","","","","","feedback_test"
"","","","","","psychophysics","381","890053","0.0-13.0-1.0-1.0-0.1-0.110","651","","f","","","","","","","","","","","","","key","f","16.6748691588786","640","396","f","true","img/S_ambi40.png","方形","word_first",""
"","","","","","html-keyboard-response","382","890369","0.0-13.0-1.0-1.0-0.1-1.110","null","<span style='color:GreenYellow; font-size: 70px;'>正确! </span>","null","","","","","","","","","","","","","","","","","","","","","","","feedback_test"
"","","","","","psychophysics","383","892176","0.0-13.0-1.0-1.0-0.1-0.111","648","","j","","","","","","","","","","","","","key","j","16.67469444444416","640","396","j","true","img/S_ambi40.png","圆形","word_first",""
"","","","","","html-keyboard-response","384","892482","0.0-13.0-1.0-1.0-0.1-1.111","null","<span style='color:GreenYellow; font-size: 70px;'>正确! </span>","null","","","","","","","","","","","","","","","","","","","","","","","feedback_test"
"","","","","","psychophysics","385","894095","0.0-13.0-1.0-1.0-0.1-0.112","456","","j","","","","","","","","","","","","","key","j","16.6753020833324","640","396","f","false","img/S_ambi40.png","方形","word_first",""
"","","","","","html-keyboard-response","386","894414","0.0-13.0-1.0-1.0-0.1-1.112","null","<span style='color:red; font-size: 70px;'>错误! </span>","null","","","","","","","","","","","","","","","","","","","","","","","feedback_test"
"","","","","","psychophysics","387","896215","0.0-13.0-1.0-1.0-0.1-0.113","646","","j","","","","","","","","","","","","","key","j","16.67266355140165","640","396","j","true","img/C_ambi40.png","三角","word_first",""
"","","","","","html-keyboard-response","388","896522","0.0-13.0-1.0-1.0-0.1-1.113","null","<span style='color:GreenYellow; font-size: 70px;'>正确! </span>","null","","","","","","","","","","","","","","","","","","","","","","","feedback_test"
"","","","","","psychophysics","389","898216","0.0-13.0-1.0-1.0-0.1-0.114","541","","f","","","","","","","","","","","","","key","f","16.6747227722772","640","396","f","true","img/C_ambi40.png","圆形","word_first",""
"","","","","","html-keyboard-response","390","898527","0.0-13.0-1.0-1.0-0.1-1.114","null","<span style='color:GreenYellow; font-size: 70px;'>正确! </span>","null","","","","","","","","","","","","","","","","","","","","","","","feedback_test"
"","","","","","psychophysics","391","900329","0.0-13.0-1.0-1.0-0.1-0.115","647","","j","","","","","","","","","","","","","key","j","16.674196261681928","640","396","j","true","img/C_ambi40.png","方形","word_first",""
"","","","","","html-keyboard-response","392","900649","0.0-13.0-1.0-1.0-0.1-1.115","null","<span style='color:GreenYellow; font-size: 70px;'>正确! </span>","null","","","","","","","","","","","","","","","","","","","","","","","feedback_test"
"","","","","","psychophysics","393","902322","0.0-13.0-1.0-1.0-0.1-0.116","520","","f","","","","","","","","","","","","","key","f","16.675080808081823","640","396","f","true","img/C_ambi40.png","圆形","word_first",""
"","","","","","html-keyboard-response","394","902636","0.0-13.0-1.0-1.0-0.1-1.116","null","<span style='color:GreenYellow; font-size: 70px;'>正确! </span>","null","","","","","","","","","","","","","","","","","","","","","","","feedback_test"
"","","","","","psychophysics","395","904434","0.0-13.0-1.0-1.0-0.1-0.117","641","","f","","","","","","","","","","","","","key","f","16.674626168224822","640","396","f","true","img/T_ambi40.png","三角","word_first",""
"","","","","","html-keyboard-response","396","904752","0.0-13.0-1.0-1.0-0.1-1.117","null","<span style='color:GreenYellow; font-size: 70px;'>正确! </span>","null","","","","","","","","","","","","","","","","","","","","","","","feedback_test"
"","","","","","psychophysics","397","906442","0.0-13.0-1.0-1.0-0.1-0.118","538","","j","","","","","","","","","","","","","key","j","16.67567000000039","640","396","j","true","img/T_ambi40.png","圆形","word_first",""
"","","","","","html-keyboard-response","398","906756","0.0-13.0-1.0-1.0-0.1-1.118","null","<span style='color:GreenYellow; font-size: 70px;'>正确! </span>","null","","","","","","","","","","","","","","","","","","","","","","","feedback_test"
"","","","","","psychophysics","399","908435","0.0-13.0-1.0-1.0-0.1-0.119","522","","f","","","","","","","","","","","","","key","f","16.67375","640","396","f","true","img/T_ambi40.png","三角","word_first",""
"","","","","","html-keyboard-response","400","908747","0.0-13.0-1.0-1.0-0.1-1.119","null","<span style='color:GreenYellow; font-size: 70px;'>正确! </span>","null","","","","","","","","","","","","","","","","","","","","","","","feedback_test"
"","","","","","html-keyboard-response","401","910505","0.0-13.0-1.0-1.0-1.1","1756","<style>.context{color:white; font-size: 35px; line-height:40px}</style>                            <div><p class='context'>您正确回答了95% 的试次。</p><p class='context'>您的平均反应时为631毫秒。</p><p class='context'>请按任意键进入休息</p></div>"," ","","","","","","","","","","","","","","","","","","","","","","",""
"","","","","","html-button-response","402","972820","0.0-13.0-1.0-1.0-2.1","62306","
                    <p>您当前还剩余2组实验</p>
                    <p>现在是休息时间，当您结束休息后，您可以点击 结束休息 按钮 继续</p>
                    <p>建议休息时间还剩余<span id=""iii"">60</span>秒</p>","0","","","","","","","","","","","","","","","","","","","","","","",""
"","","","","","psychophysics","403","975473","0.0-13.0-1.0-1.0-0.2-0.120","null","","null","","","","","","","","","","","","","key","null","16.674493670886488","640","396","f","false","img/T_ambi40.png","三角","word_first",""
"","","","","","html-keyboard-response","404","975777","0.0-13.0-1.0-1.0-0.2-1.120","null","<span class='add_' style='color:yellow; font-size: 70px;'> 太慢! </span>","null","","","","","","","","","","","","","","","","","","","","","","","feedback_test"
"","","","","","psychophysics","405","977548","0.0-13.0-1.0-1.0-0.2-0.121","619","","f","","","","","","","","","","","","","key","f","16.675247619048292","640","396","f","true","img/C_ambi40.png","圆形","word_first",""
"","","","","","html-keyboard-response","406","977866","0.0-13.0-1.0-1.0-0.2-1.121","null","<span style='color:GreenYellow; font-size: 70px;'>正确! </span>","null","","","","","","","","","","","","","","","","","","","","","","","feedback_test"
"","","","","","psychophysics","407","979908","0.0-13.0-1.0-1.0-0.2-0.122","883","","j","","","","","","","","","","","","","key","j","16.67503305785127","640","396","j","true","img/T_ambi40.png","方形","word_first",""
"","","","","","html-keyboard-response","408","980223","0.0-13.0-1.0-1.0-0.2-1.122","null","<span style='color:GreenYellow; font-size: 70px;'>正确! </span>","null","","","","","","","","","","","","","","","","","","","","","","","feedback_test"
"","","","","","psychophysics","409","982080","0.0-13.0-1.0-1.0-0.2-0.123","703","","f","","","","","","","","","","","","","key","f","16.67427272727205","640","396","f","true","img/S_ambi40.png","方形","word_first",""
"","","","","","html-keyboard-response","410","982387","0.0-13.0-1.0-1.0-0.2-1.123","null","<span style='color:GreenYellow; font-size: 70px;'>正确! </span>","null","","","","","","","","","","","","","","","","","","","","","","","feedback_test"
"","","","","","psychophysics","411","984572","0.0-13.0-1.0-1.0-0.2-0.124","1026","","f","","","","","","","","","","","","","key","f","16.674899999999727","640","396","f","true","img/S_ambi40.png","方形","word_first",""
"","","","","","html-keyboard-response","412","984894","0.0-13.0-1.0-1.0-0.2-1.124","null","<span style='color:GreenYellow; font-size: 70px;'>正确! </span>","null","","","","","","","","","","","","","","","","","","","","","","","feedback_test"
"","","","","","psychophysics","413","986599","0.0-13.0-1.0-1.0-0.2-0.125","549","","j","","","","","","","","","","","","","key","j","16.67393069306854","640","396","j","true","img/C_ambi40.png","三角","word_first",""
"","","","","","html-keyboard-response","414","986914","0.0-13.0-1.0-1.0-0.2-1.125","null","<span style='color:GreenYellow; font-size: 70px;'>正确! </span>","null","","","","","","","","","","","","","","","","","","","","","","","feedback_test"
"","","","","","psychophysics","415","988888","0.0-13.0-1.0-1.0-0.2-0.126","818","","f","","","","","","","","","","","","","key","f","16.674677966102383","640","396","j","false","img/S_ambi40.png","三角","word_first",""
"","","","","","html-keyboard-response","416","989196","0.0-13.0-1.0-1.0-0.2-1.126","null","<span style='color:red; font-size: 70px;'>错误! </span>","null","","","","","","","","","","","","","","","","","","","","","","","feedback_test"
"","","","","","psychophysics","417","991031","0.0-13.0-1.0-1.0-0.2-0.127","680","","j","","","","","","","","","","","","","key","j","16.674229357798517","640","396","j","true","img/T_ambi40.png","圆形","word_first",""
"","","","","","html-keyboard-response","418","991345","0.0-13.0-1.0-1.0-0.2-1.127","null","<span style='color:GreenYellow; font-size: 70px;'>正确! </span>","null","","","","","","","","","","","","","","","","","","","","","","","feedback_test"
"","","","","","psychophysics","419","993091","0.0-13.0-1.0-1.0-0.2-0.128","593","","f","","","","","","","","","","","","","key","f","16.674240384615796","640","396","f","true","img/T_ambi40.png","三角","word_first",""
"","","","","","html-keyboard-response","420","993394","0.0-13.0-1.0-1.0-0.2-1.128","null","<span style='color:GreenYellow; font-size: 70px;'>正确! </span>","null","","","","","","","","","","","","","","","","","","","","","","","feedback_test"
"","","","","","psychophysics","421","995152","0.0-13.0-1.0-1.0-0.2-0.129","600","","j","","","","","","","","","","","","","key","j","16.67430769230794","640","396","j","true","img/C_ambi40.png","方形","word_first",""
"","","","","","html-keyboard-response","422","995468","0.0-13.0-1.0-1.0-0.2-1.129","null","<span style='color:GreenYellow; font-size: 70px;'>正确! </span>","null","","","","","","","","","","","","","","","","","","","","","","","feedback_test"
"","","","","","psychophysics","423","997415","0.0-13.0-1.0-1.0-0.2-0.130","792","","f","","","","","","","","","","","","","key","f","16.57092173913008","640","396","f","true","img/C_ambi40.png","圆形","word_first",""
"","","","","","html-keyboard-response","424","997735","0.0-13.0-1.0-1.0-0.2-1.130","null","<span style='color:GreenYellow; font-size: 70px;'>正确! </span>","null","","","","","","","","","","","","","","","","","","","","","","","feedback_test"
"","","","","","psychophysics","425","999492","0.0-13.0-1.0-1.0-0.2-0.131","602","","j","","","","","","","","","","","","","key","j","16.675542857143142","640","396","j","true","img/S_ambi40.png","圆形","word_first",""
"","","","","","html-keyboard-response","426","999815","0.0-13.0-1.0-1.0-0.2-1.131","null","<span style='color:GreenYellow; font-size: 70px;'>正确! </span>","null","","","","","","","","","","","","","","","","","","","","","","","feedback_test"
"","","","","","psychophysics","427","1001492","0.0-13.0-1.0-1.0-0.2-0.132","523","","f","","","","","","","","","","","","","key","f","16.674120000000112","640","396","f","true","img/T_ambi40.png","三角","word_first",""
"","","","","","html-keyboard-response","428","1001814","0.0-13.0-1.0-1.0-0.2-1.132","null","<span style='color:GreenYellow; font-size: 70px;'>正确! </span>","null","","","","","","","","","","","","","","","","","","","","","","","feedback_test"
"","","","","","psychophysics","429","1003682","0.0-13.0-1.0-1.0-0.2-0.133","712","","j","","","","","","","","","","","","","key","j","16.675126126126244","640","396","f","false","img/C_ambi40.png","圆形","word_first",""
"","","","","","html-keyboard-response","430","1004000","0.0-13.0-1.0-1.0-0.2-1.133","null","<span style='color:red; font-size: 70px;'>错误! </span>","null","","","","","","","","","","","","","","","","","","","","","","","feedback_test"
"","","","","","psychophysics","431","1005863","0.0-13.0-1.0-1.0-0.2-0.134","710","","j","","","","","","","","","","","","","key","j","16.674036036036817","640","396","j","true","img/C_ambi40.png","方形","word_first",""
