"success","timeout","failed_images","failed_audio","failed_video","trial_type","trial_index","time_elapsed","internal_node_id","rt","stimulus","response","value","item_width_mm","item_height_mm","item_width_px","px2mm","view_dist_mm","item_width_deg","px2deg","scale_factor","win_width_deg","win_height_deg","view_history","response_type","key_press","avg_frame_time","center_x","center_y","correct_response","correct","Image","word","condition","screen_id"
"true","false","[]","[]","[]","preload","0","2512","0.0-0.0","","","","","","","","","","","","","","","","","","","","","","","","","",""
"","","","","","html-keyboard-response","1","38716","0.0-1.0","36202","
   <p>您好，欢迎参加本次实验。</p>
   <p>为充分保障您的权利，请确保您已经知晓并同意《参与实验同意书》以及《数据公开知情同意书》。</p>
   <p>如果您未见过上述内容，请咨询实验员。</p>
   <p>如果您选择继续实验，则表示您已经清楚两份知情同意书的内容并同意。</p>
   <p> <div style = ""color: green""><按任意键至下页></div> </p>
   ","arrowright","","","","","","","","","","","","","","","","","","","","","","",""
"","","","","","html-keyboard-response","2","41274","0.0-2.0","2558","
   <p>本实验首先需要您填写一些基本个人信息。</p>
   <p> <div style = ""color: green""><按任意键至下页></div></p>
   ","arrowright","","","","","","","","","","","","","","","","","","","","","","",""
"","","","","","call-function","3","41275","0.0-3.0-0.0","","","","","","","","","","","","","","","","","","","","","","","","","",""
"","","","","","survey-html-form","4","46789","0.0-3.0-1.0","5512","","{""Q0"":""7""}","","","","","","","","","","","","","","","","","","","","","","",""
"","","","","","html-button-response","5","48455","0.0-3.0-2.0","1664","<p style = 'color : white'>您的性别</p>","0","","","","","","","","","","","","","","","","","","","","","","",""
"","","","","","survey-html-form","6","54638","0.0-3.0-3.0","6182","","{""Q0"":""2001""}","","","","","","","","","","","","","","","","","","","","","","",""
"","","","","","survey-html-form","7","59013","0.0-3.0-4.0","4375","","{""Q0"":""5""}","","","","","","","","","","","","","","","","","","","","","","",""
"","","","","","virtual-chinrest","8","178543","0.0-4.0","119527","","","","85.6","53.98","400.0641834858338","4.674434143887111","611.97","8.001283669716676","50","0.9498475886768698","27.24","15.08","","","","","","","","","","","",""
"true","","","","","fullscreen","9","183802","0.0-5.0","","","","","","","","","","","","","","","","","","","","","","","","","",""
"","","","","","instructions","10","229342","0.0-6.0","45540","","","","","","","","","","","","","","[{""page_index"":0,""viewing_time"":5635},{""page_index"":1,""viewing_time"":21889},{""page_index"":2,""viewing_time"":10192},{""page_index"":3,""viewing_time"":7824}]","","","","","","","","","","",""
"","","","","","psychophysics","11","231362","0.0-7.0-0.0-0.0","862","","f","","","","","","","","","","","","","key","f","9.205412844036692","768","428","f","true","img/S_ambi40.png","圆形","prac_image_first",""
"","","","","","html-keyboard-response","12","231671","0.0-7.0-0.0-1.0","null","<span style='color:GreenYellow; font-size: 70px;'>正确! </span>","null","","","","","","","","","","","","","","","","","","","","","","","feedback_test"
"","","","","","psychophysics","13","233620","0.0-7.0-0.0-0.1","796","","f","","","","","","","","","","","","","key","f","9.419024271844604","768","428","f","true","img/C_ambi40.png","三角","prac_image_first",""
"","","","","","html-keyboard-response","14","233927","0.0-7.0-0.0-1.1","null","<span style='color:GreenYellow; font-size: 70px;'>正确! </span>","null","","","","","","","","","","","","","","","","","","","","","","","feedback_test"
"","","","","","psychophysics","15","235788","0.0-7.0-0.0-0.2","706","","f","","","","","","","","","","","","","key","f","9.431586734693806","768","428","f","true","img/C_ambi40.png","方形","prac_image_first",""
"","","","","","html-keyboard-response","16","236106","0.0-7.0-0.0-1.2","null","<span style='color:GreenYellow; font-size: 70px;'>正确! </span>","null","","","","","","","","","","","","","","","","","","","","","","","feedback_test"
"","","","","","psychophysics","17","237898","0.0-7.0-0.0-0.3","637","","j","","","","","","","","","","","","","key","j","9.227520618556678","768","428","j","true","img/C_ambi40.png","圆形","prac_image_first",""
"","","","","","html-keyboard-response","18","238214","0.0-7.0-0.0-1.3","null","<span style='color:GreenYellow; font-size: 70px;'>正确! </span>","null","","","","","","","","","","","","","","","","","","","","","","","feedback_test"
"","","","","","psychophysics","19","240005","0.0-7.0-0.0-0.4","636","","f","","","","","","","","","","","","","key","f","9.379084210526228","768","428","f","true","img/S_ambi40.png","三角","prac_image_first",""
"","","","","","html-keyboard-response","20","240311","0.0-7.0-0.0-1.4","null","<span style='color:GreenYellow; font-size: 70px;'>正确! </span>","null","","","","","","","","","","","","","","","","","","","","","","","feedback_test"
"","","","","","psychophysics","21","242273","0.0-7.0-0.0-0.5","805","","j","","","","","","","","","","","","","key","j","9.366937500000018","768","428","j","true","img/C_ambi40.png","圆形","prac_image_first",""
"","","","","","html-keyboard-response","22","242588","0.0-7.0-0.0-1.5","null","<span style='color:GreenYellow; font-size: 70px;'>正确! </span>","null","","","","","","","","","","","","","","","","","","","","","","","feedback_test"
"","","","","","psychophysics","23","244427","0.0-7.0-0.0-0.6","687","","f","","","","","","","","","","","","","key","f","9.442634020618627","768","428","f","true","img/T_ambi40.png","方形","prac_image_first",""
"","","","","","html-keyboard-response","24","244736","0.0-7.0-0.0-1.6","null","<span style='color:GreenYellow; font-size: 70px;'>正确! </span>","null","","","","","","","","","","","","","","","","","","","","","","","feedback_test"
"","","","","","psychophysics","25","246523","0.0-7.0-0.0-0.7","634","","f","","","","","","","","","","","","","key","f","9.330068062827099","768","428","f","true","img/T_ambi40.png","圆形","prac_image_first",""
"","","","","","html-keyboard-response","26","246842","0.0-7.0-0.0-1.7","null","<span style='color:GreenYellow; font-size: 70px;'>正确! </span>","null","","","","","","","","","","","","","","","","","","","","","","","feedback_test"
"","","","","","psychophysics","27","248732","0.0-7.0-0.0-0.8","737","","j","","","","","","","","","","","","","key","j","9.32179104477623","768","428","j","true","img/S_ambi40.png","方形","prac_image_first",""
"","","","","","html-keyboard-response","28","249038","0.0-7.0-0.0-1.8","null","<span style='color:GreenYellow; font-size: 70px;'>正确! </span>","null","","","","","","","","","","","","","","","","","","","","","","","feedback_test"
"","","","","","psychophysics","29","250778","0.0-7.0-0.0-0.9","584","","j","","","","","","","","","","","","","key","j","9.3125","768","428","j","true","img/T_ambi40.png","三角","prac_image_first",""
"","","","","","html-keyboard-response","30","251091","0.0-7.0-0.0-1.9","null","<span style='color:GreenYellow; font-size: 70px;'>正确! </span>","null","","","","","","","","","","","","","","","","","","","","","","","feedback_test"
"","","","","","psychophysics","31","252788","0.0-7.0-0.0-0.10","546","","j","","","","","","","","","","","","","key","j","9.32370949720664","768","428","j","true","img/T_ambi40.png","三角","prac_image_first",""
"","","","","","html-keyboard-response","32","253098","0.0-7.0-0.0-1.10","null","<span style='color:GreenYellow; font-size: 70px;'>正确! </span>","null","","","","","","","","","","","","","","","","","","","","","","","feedback_test"
"","","","","","psychophysics","33","254925","0.0-7.0-0.0-0.11","675","","f","","","","","","","","","","","","","key","f","9.309235897435933","768","428","j","false","img/S_ambi40.png","方形","prac_image_first",""
"","","","","","html-keyboard-response","34","255231","0.0-7.0-0.0-1.11","null","<span style='color:red; font-size: 70px;'>错误! </span>","null","","","","","","","","","","","","","","","","","","","","","","","feedback_test"
"","","","","","psychophysics","35","257016","0.0-7.0-0.0-0.12","634","","j","","","","","","","","","","","","","key","j","9.429063492063458","768","428","j","true","img/C_ambi40.png","圆形","prac_image_first",""
"","","","","","html-keyboard-response","36","257334","0.0-7.0-0.0-1.12","null","<span style='color:GreenYellow; font-size: 70px;'>正确! </span>","null","","","","","","","","","","","","","","","","","","","","","","","feedback_test"
"","","","","","psychophysics","37","259040","0.0-7.0-0.0-0.13","552","","j","","","","","","","","","","","","","key","j","9.437411111111093","768","428","j","true","img/T_ambi40.png","三角","prac_image_first",""
"","","","","","html-keyboard-response","38","259358","0.0-7.0-0.0-1.13","null","<span style='color:GreenYellow; font-size: 70px;'>正确! </span>","null","","","","","","","","","","","","","","","","","","","","","","","feedback_test"
"","","","","","psychophysics","39","261101","0.0-7.0-0.0-0.14","590","","f","","","","","","","","","","","","","key","f","9.413467391304236","768","428","f","true","img/T_ambi40.png","圆形","prac_image_first",""
"","","","","","html-keyboard-response","40","261405","0.0-7.0-0.0-1.14","null","<span style='color:GreenYellow; font-size: 70px;'>正确! </span>","null","","","","","","","","","","","","","","","","","","","","","","","feedback_test"
"","","","","","psychophysics","41","263252","0.0-7.0-0.0-0.15","696","","f","","","","","","","","","","","","","key","f","9.389714285714389","768","428","f","true","img/C_ambi40.png","三角","prac_image_first",""
"","","","","","html-keyboard-response","42","263568","0.0-7.0-0.0-1.15","null","<span style='color:GreenYellow; font-size: 70px;'>正确! </span>","null","","","","","","","","","","","","","","","","","","","","","","","feedback_test"
"","","","","","psychophysics","43","265237","0.0-7.0-0.0-0.16","513","","j","","","","","","","","","","","","","key","j","9.361649717514055","768","428","j","true","img/T_ambi40.png","三角","prac_image_first",""
"","","","","","html-keyboard-response","44","265550","0.0-7.0-0.0-1.16","null","<span style='color:GreenYellow; font-size: 70px;'>正确! </span>","null","","","","","","","","","","","","","","","","","","","","","","","feedback_test"
"","","","","","psychophysics","45","267436","0.0-7.0-0.0-0.17","731","","j","","","","","","","","","","","","","key","j","9.415929648241299","768","428","j","true","img/S_ambi40.png","方形","prac_image_first",""
"","","","","","html-keyboard-response","46","267750","0.0-7.0-0.0-1.17","null","<span style='color:GreenYellow; font-size: 70px;'>正确! </span>","null","","","","","","","","","","","","","","","","","","","","","","","feedback_test"
"","","","","","psychophysics","47","269673","0.0-7.0-0.0-0.18","764","","f","","","","","","","","","","","","","key","f","9.436083743842193","768","428","f","true","img/S_ambi40.png","圆形","prac_image_first",""
"","","","","","html-keyboard-response","48","269977","0.0-7.0-0.0-1.18","null","<span style='color:GreenYellow; font-size: 70px;'>正确! </span>","null","","","","","","","","","","","","","","","","","","","","","","","feedback_test"
"","","","","","psychophysics","49","271865","0.0-7.0-0.0-0.19","728","","j","","","","","","","","","","","","","key","j","9.42673737373711","768","428","j","true","img/S_ambi40.png","方形","prac_image_first",""
"","","","","","html-keyboard-response","50","272168","0.0-7.0-0.0-1.19","null","<span style='color:GreenYellow; font-size: 70px;'>正确! </span>","null","","","","","","","","","","","","","","","","","","","","","","","feedback_test"
"","","","","","psychophysics","51","273881","0.0-7.0-0.0-0.20","563","","f","","","","","","","","","","","","","key","f","9.334274725274664","768","428","f","true","img/S_ambi40.png","三角","prac_image_first",""
"","","","","","html-keyboard-response","52","274191","0.0-7.0-0.0-1.20","null","<span style='color:GreenYellow; font-size: 70px;'>正确! </span>","null","","","","","","","","","","","","","","","","","","","","","","","feedback_test"
"","","","","","psychophysics","53","276017","0.0-7.0-0.0-0.21","669","","f","","","","","","","","","","","","","key","f","9.405466321243548","768","428","f","true","img/T_ambi40.png","方形","prac_image_first",""
"","","","","","html-keyboard-response","54","276335","0.0-7.0-0.0-1.21","null","<span style='color:GreenYellow; font-size: 70px;'>正确! </span>","null","","","","","","","","","","","","","","","","","","","","","","","feedback_test"
"","","","","","psychophysics","55","278171","0.0-7.0-0.0-0.22","682","","f","","","","","","","","","","","","","key","f","9.40001546391754","768","428","f","true","img/C_ambi40.png","方形","prac_image_first",""
"","","","","","html-keyboard-response","56","278484","0.0-7.0-0.0-1.22","null","<span style='color:GreenYellow; font-size: 70px;'>正确! </span>","null","","","","","","","","","","","","","","","","","","","","","","","feedback_test"
"","","","","","psychophysics","57","280411","0.0-7.0-0.0-0.23","775","","j","","","","","","","","","","","","","key","j","9.388284313725308","768","428","j","true","img/C_ambi40.png","圆形","prac_image_first",""
"","","","","","html-keyboard-response","58","280719","0.0-7.0-0.0-1.23","null","<span style='color:GreenYellow; font-size: 70px;'>正确! </span>","null","","","","","","","","","","","","","","","","","","","","","","","feedback_test"
"","","","","","html-keyboard-response","59","286924","0.0-8.0","6202","<style>.context{color:white; font-size: 35px; line-height:40px}</style>                            <div><p class='context'>您正确回答了96% 的试次。</p><p class='context'>您的平均反应时为675毫秒。</p><p class='context'>恭喜您完成这一阶段的练习。按任意键进入<span style='color: yellow;'>先文字后图形条件</span>的练习。</p></div>","meta","","","","","","","","","","","","","","","","","","","","","","",""
"","","","","","psychophysics","60","288849","0.0-9.0-0.0-0.0","768","","j","","","","","","","","","","","","","key","j","9.625638190954666","768","428","j","true","img/T_ambi40.png","三角","prac_word_first",""
"","","","","","html-keyboard-response","61","289161","0.0-9.0-0.0-1.0","null","<span style='color:GreenYellow; font-size: 70px;'>正确! </span>","null","","","","","","","","","","","","","","","","","","","","","","","feedback_test"
"","","","","","psychophysics","62","290998","0.0-9.0-0.0-0.1","686","","j","","","","","","","","","","","","","key","j","9.027123762376199","768","428","j","true","img/T_ambi40.png","三角","prac_word_first",""
"","","","","","html-keyboard-response","63","291303","0.0-9.0-0.0-1.1","null","<span style='color:GreenYellow; font-size: 70px;'>正确! </span>","null","","","","","","","","","","","","","","","","","","","","","","","feedback_test"
"","","","","","psychophysics","64","293019","0.0-9.0-0.0-0.2","559","","f","","","","","","","","","","","","","key","f","9.386491712707272","768","428","f","true","img/C_ambi40.png","三角","prac_word_first",""
"","","","","","html-keyboard-response","65","293326","0.0-9.0-0.0-1.2","null","<span style='color:GreenYellow; font-size: 70px;'>正确! </span>","null","","","","","","","","","","","","","","","","","","","","","","","feedback_test"
"","","","","","psychophysics","66","295256","0.0-9.0-0.0-0.3","779","","f","","","","","","","","","","","","","key","f","9.388941176470789","768","428","j","false","img/S_ambi40.png","方形","prac_word_first",""
"","","","","","html-keyboard-response","67","295566","0.0-9.0-0.0-1.3","null","<span style='color:red; font-size: 70px;'>错误! </span>","null","","","","","","","","","","","","","","","","","","","","","","","feedback_test"
"","","","","","psychophysics","68","297479","0.0-9.0-0.0-0.4","761","","f","","","","","","","","","","","","","key","f","9.398569306930685","768","428","f","true","img/T_ambi40.png","圆形","prac_word_first",""
"","","","","","html-keyboard-response","69","297782","0.0-9.0-0.0-1.4","null","<span style='color:GreenYellow; font-size: 70px;'>正确! </span>","null","","","","","","","","","","","","","","","","","","","","","","","feedback_test"
"","","","","","psychophysics","70","299603","0.0-9.0-0.0-0.5","664","","f","","","","","","","","","","","","","key","f","9.314139175257878","768","428","f","true","img/S_ambi40.png","圆形","prac_word_first",""
"","","","","","html-keyboard-response","71","299920","0.0-9.0-0.0-1.5","null","<span style='color:GreenYellow; font-size: 70px;'>正确! </span>","null","","","","","","","","","","","","","","","","","","","","","","","feedback_test"
"","","","","","psychophysics","72","301624","0.0-9.0-0.0-0.6","552","","j","","","","","","","","","","","","","key","j","9.388955555555489","768","428","j","true","img/C_ambi40.png","圆形","prac_word_first",""
"","","","","","html-keyboard-response","73","301946","0.0-9.0-0.0-1.6","null","<span style='color:GreenYellow; font-size: 70px;'>正确! </span>","null","","","","","","","","","","","","","","","","","","","","","","","feedback_test"
"","","","","","psychophysics","74","303704","0.0-9.0-0.0-0.7","604","","f","","","","","","","","","","","","","key","f","9.351128342246106","768","428","f","true","img/S_ambi40.png","三角","prac_word_first",""
"","","","","","html-keyboard-response","75","304014","0.0-9.0-0.0-1.7","null","<span style='color:GreenYellow; font-size: 70px;'>正确! </span>","null","","","","","","","","","","","","","","","","","","","","","","","feedback_test"
"","","","","","psychophysics","76","305935","0.0-9.0-0.0-0.8","768","","f","","","","","","","","","","","","","key","f","9.343195121951412","768","428","f","true","img/T_ambi40.png","方形","prac_word_first",""
"","","","","","html-keyboard-response","77","306245","0.0-9.0-0.0-1.8","null","<span style='color:GreenYellow; font-size: 70px;'>正确! </span>","null","","","","","","","","","","","","","","","","","","","","","","","feedback_test"
"","","","","","psychophysics","78","307997","0.0-9.0-0.0-0.9","598","","j","","","","","","","","","","","","","key","j","9.358198924731182","768","428","j","true","img/C_ambi40.png","圆形","prac_word_first",""
"","","","","","html-keyboard-response","79","308312","0.0-9.0-0.0-1.9","null","<span style='color:GreenYellow; font-size: 70px;'>正确! </span>","null","","","","","","","","","","","","","","","","","","","","","","","feedback_test"
"","","","","","psychophysics","80","310021","0.0-9.0-0.0-0.10","557","","j","","","","","","","","","","","","","key","j","9.339044198894857","768","428","j","true","img/S_ambi40.png","方形","prac_word_first",""
"","","","","","html-keyboard-response","81","310336","0.0-9.0-0.0-1.10","null","<span style='color:GreenYellow; font-size: 70px;'>正确! </span>","null","","","","","","","","","","","","","","","","","","","","","","","feedback_test"
"","","","","","psychophysics","82","312057","0.0-9.0-0.0-0.11","570","","f","","","","","","","","","","","","","key","f","9.37493989071039","768","428","f","true","img/C_ambi40.png","方形","prac_word_first",""
"","","","","","html-keyboard-response","83","312362","0.0-9.0-0.0-1.11","null","<span style='color:GreenYellow; font-size: 70px;'>正确! </span>","null","","","","","","","","","","","","","","","","","","","","","","","feedback_test"
"","","","","","psychophysics","84","314138","0.0-9.0-0.0-0.12","622","","f","","","","","","","","","","","","","key","f","9.340772486772577","768","428","f","true","img/T_ambi40.png","圆形","prac_word_first",""
"","","","","","html-keyboard-response","85","314455","0.0-9.0-0.0-1.12","null","<span style='color:GreenYellow; font-size: 70px;'>正确! </span>","null","","","","","","","","","","","","","","","","","","","","","","","feedback_test"
"","","","","","psychophysics","86","316135","0.0-9.0-0.0-0.13","526","","j","","","","","","","","","","","","","key","j","9.298861111111021","768","428","j","true","img/T_ambi40.png","三角","prac_word_first",""
"","","","","","html-keyboard-response","87","316457","0.0-9.0-0.0-1.13","null","<span style='color:GreenYellow; font-size: 70px;'>正确! </span>","null","","","","","","","","","","","","","","","","","","","","","","","feedback_test"
"","","","","","psychophysics","88","318185","0.0-9.0-0.0-0.14","577","","j","","","","","","","","","","","","","key","j","9.322635869565167","768","428","j","true","img/C_ambi40.png","圆形","prac_word_first",""
"","","","","","html-keyboard-response","89","318502","0.0-9.0-0.0-1.14","null","<span style='color:GreenYellow; font-size: 70px;'>正确! </span>","null","","","","","","","","","","","","","","","","","","","","","","","feedback_test"
"","","","","","psychophysics","90","320170","0.0-9.0-0.0-0.15","515","","f","","","","","","","","","","","","","key","f","9.362327683616053","768","428","f","true","img/C_ambi40.png","方形","prac_word_first",""
"","","","","","html-keyboard-response","91","320482","0.0-9.0-0.0-1.15","null","<span style='color:GreenYellow; font-size: 70px;'>正确! </span>","null","","","","","","","","","","","","","","","","","","","","","","","feedback_test"
"","","","","","psychophysics","92","322242","0.0-9.0-0.0-0.16","607","","f","","","","","","","","","","","","","key","f","9.351796791443967","768","428","f","true","img/C_ambi40.png","三角","prac_word_first",""
"","","","","","html-keyboard-response","93","322551","0.0-9.0-0.0-1.16","null","<span style='color:GreenYellow; font-size: 70px;'>正确! </span>","null","","","","","","","","","","","","","","","","","","","","","","","feedback_test"
"","","","","","psychophysics","94","324392","0.0-9.0-0.0-0.17","689","","j","","","","","","","","","","","","","key","j","9.395338461538538","768","428","j","true","img/S_ambi40.png","方形","prac_word_first",""
"","","","","","html-keyboard-response","95","324709","0.0-9.0-0.0-1.17","null","<span style='color:GreenYellow; font-size: 70px;'>正确! </span>","null","","","","","","","","","","","","","","","","","","","","","","","feedback_test"
"","","","","","psychophysics","96","326459","0.0-9.0-0.0-0.18","591","","j","","","","","","","","","","","","","key","j","9.312543010752853","768","428","j","true","img/C_ambi40.png","圆形","prac_word_first",""
"","","","","","html-keyboard-response","97","326766","0.0-9.0-0.0-1.18","null","<span style='color:GreenYellow; font-size: 70px;'>正确! </span>","null","","","","","","","","","","","","","","","","","","","","","","","feedback_test"
"","","","","","psychophysics","98","328464","0.0-9.0-0.0-0.19","540","","f","","","","","","","","","","","","","key","f","9.247441988950017","768","428","f","true","img/S_ambi40.png","圆形","prac_word_first",""
"","","","","","html-keyboard-response","99","328781","0.0-9.0-0.0-1.19","null","<span style='color:GreenYellow; font-size: 70px;'>正确! </span>","null","","","","","","","","","","","","","","","","","","","","","","","feedback_test"
"","","","","","psychophysics","100","330600","0.0-9.0-0.0-0.20","668","","j","","","","","","","","","","","","","key","j","9.429455497382264","768","428","j","true","img/S_ambi40.png","方形","prac_word_first",""
"","","","","","html-keyboard-response","101","330911","0.0-9.0-0.0-1.20","null","<span style='color:GreenYellow; font-size: 70px;'>正确! </span>","null","","","","","","","","","","","","","","","","","","","","","","","feedback_test"
"","","","","","psychophysics","102","332858","0.0-9.0-0.0-0.21","796","","f","","","","","","","","","","","","","key","f","9.418368932038875","768","428","f","true","img/S_ambi40.png","三角","prac_word_first",""
"","","","","","html-keyboard-response","103","333168","0.0-9.0-0.0-1.21","null","<span style='color:GreenYellow; font-size: 70px;'>正确! </span>","null","","","","","","","","","","","","","","","","","","","","","","","feedback_test"
"","","","","","psychophysics","104","334800","0.0-9.0-0.0-0.22","481","","j","","","","","","","","","","","","","key","j","9.3309770114944","768","428","j","true","img/T_ambi40.png","三角","prac_word_first",""
"","","","","","html-keyboard-response","105","335110","0.0-9.0-0.0-1.22","null","<span style='color:GreenYellow; font-size: 70px;'>正确! </span>","null","","","","","","","","","","","","","","","","","","","","","","","feedback_test"
"","","","","","psychophysics","106","336852","0.0-9.0-0.0-0.23","583","","f","","","","","","","","","","","","","key","f","9.312193548386936","768","428","f","true","img/T_ambi40.png","方形","prac_word_first",""
"","","","","","html-keyboard-response","107","337161","0.0-9.0-0.0-1.23","null","<span style='color:GreenYellow; font-size: 70px;'>正确! </span>","null","","","","","","","","","","","","","","","","","","","","","","","feedback_test"
"","","","","","html-keyboard-response","108","340795","0.0-10.0","3633","<style>.context{color:white; font-size: 35px; line-height:40px}</style>                            <div><p class='context'>您正确回答了96% 的试次。</p><p class='context'>您的平均反应时为621毫秒。</p><p class='context'>恭喜您完成练习。按任意键进入<span style='color: yellow;'>图形和文字同时呈现条件</span>的练习。</p></div>"," ","","","","","","","","","","","","","","","","","","","","","","",""
"","","","","","psychophysics","109","342670","0.0-11.0-0.0-0.0","866","","j","","","","","","","","","","","","","key","j","9.374788944723539","768","428","f","false","img/S_ambi40.png","圆形","prac_simultaneous",""
"","","","","","html-keyboard-response","110","342984","0.0-11.0-0.0-1.0","null","<span style='color:red; font-size: 70px;'>错误! </span>","null","","","","","","","","","","","","","","","","","","","","","","","feedback_test"
"","","","","","psychophysics","111","344647","0.0-11.0-0.0-0.1","660","","j","","","","","","","","","","","","","key","j","9.311511235955182","768","428","j","true","img/S_ambi40.png","方形","prac_simultaneous",""
"","","","","","html-keyboard-response","112","344960","0.0-11.0-0.0-1.1","null","<span style='color:GreenYellow; font-size: 70px;'>正确! </span>","null","","","","","","","","","","","","","","","","","","","","","","","feedback_test"
"","","","","","psychophysics","113","346653","0.0-11.0-0.0-0.2","692","","j","","","","","","","","","","","","","key","j","9.34426666666663","768","428","j","true","img/C_ambi40.png","圆形","prac_simultaneous",""
"","","","","","html-keyboard-response","114","346962","0.0-11.0-0.0-1.2","null","<span style='color:GreenYellow; font-size: 70px;'>正确! </span>","null","","","","","","","","","","","","","","","","","","","","","","","feedback_test"
"","","","","","psychophysics","115","348673","0.0-11.0-0.0-0.3","710","","f","","","","","","","","","","","","","key","f","9.288840659340757","768","428","f","true","img/S_ambi40.png","三角","prac_simultaneous",""
"","","","","","html-keyboard-response","116","348977","0.0-11.0-0.0-1.3","null","<span style='color:GreenYellow; font-size: 70px;'>正确! </span>","null","","","","","","","","","","","","","","","","","","","","","","","feedback_test"
"","","","","","psychophysics","117","350535","0.0-11.0-0.0-0.4","555","","j","","","","","","","","","","","","","key","j","9.329987951807176","768","428","j","true","img/T_ambi40.png","三角","prac_simultaneous",""
"","","","","","html-keyboard-response","118","350849","0.0-11.0-0.0-1.4","null","<span style='color:GreenYellow; font-size: 70px;'>正确! </span>","null","","","","","","","","","","","","","","","","","","","","","","","feedback_test"
"","","","","","psychophysics","119","352472","0.0-11.0-0.0-0.5","620","","j","","","","","","","","","","","","","key","j","9.398713450292357","768","428","j","true","img/T_ambi40.png","三角","prac_simultaneous",""
"","","","","","html-keyboard-response","120","352795","0.0-11.0-0.0-1.5","null","<span style='color:GreenYellow; font-size: 70px;'>正确! </span>","null","","","","","","","","","","","","","","","","","","","","","","","feedback_test"
"","","","","","psychophysics","121","354448","0.0-11.0-0.0-0.6","652","","f","","","","","","","","","","","","","key","f","9.39691954022996","768","428","f","true","img/T_ambi40.png","方形","prac_simultaneous",""
"","","","","","html-keyboard-response","122","354768","0.0-11.0-0.0-1.6","null","<span style='color:GreenYellow; font-size: 70px;'>正确! </span>","null","","","","","","","","","","","","","","","","","","","","","","","feedback_test"
"","","","","","psychophysics","123","356404","0.0-11.0-0.0-0.7","634","","j","","","","","","","","","","","","","key","j","9.379528735632187","768","428","j","true","img/S_ambi40.png","方形","prac_simultaneous",""
"","","","","","html-keyboard-response","124","356714","0.0-11.0-0.0-1.7","null","<span style='color:GreenYellow; font-size: 70px;'>正确! </span>","null","","","","","","","","","","","","","","","","","","","","","","","feedback_test"
"","","","","","psychophysics","125","358355","0.0-11.0-0.0-0.8","640","","f","","","","","","","","","","","","","key","f","9.380074712643856","768","428","f","true","img/T_ambi40.png","圆形","prac_simultaneous",""
"","","","","","html-keyboard-response","126","358661","0.0-11.0-0.0-1.8","null","<span style='color:GreenYellow; font-size: 70px;'>正确! </span>","null","","","","","","","","","","","","","","","","","","","","","","","feedback_test"
"","","","","","psychophysics","127","360317","0.0-11.0-0.0-0.9","651","","j","","","","","","","","","","","","","key","j","9.368255681818317","768","428","j","true","img/C_ambi40.png","圆形","prac_simultaneous",""
"","","","","","html-keyboard-response","128","360626","0.0-11.0-0.0-1.9","null","<span style='color:GreenYellow; font-size: 70px;'>正确! </span>","null","","","","","","","","","","","","","","","","","","","","","","","feedback_test"
"","","","","","psychophysics","129","362283","0.0-11.0-0.0-0.10","656","","f","","","","","","","","","","","","","key","f","9.367789772727106","768","428","f","true","img/C_ambi40.png","三角","prac_simultaneous",""
"","","","","","html-keyboard-response","130","362590","0.0-11.0-0.0-1.10","null","<span style='color:GreenYellow; font-size: 70px;'>正确! </span>","null","","","","","","","","","","","","","","","","","","","","","","","feedback_test"
"","","","","","psychophysics","131","364438","0.0-11.0-0.0-0.11","842","","f","","","","","","","","","","","","","key","f","9.34178680203043","768","428","f","true","img/C_ambi40.png","方形","prac_simultaneous",""
"","","","","","html-keyboard-response","132","364754","0.0-11.0-0.0-1.11","null","<span style='color:GreenYellow; font-size: 70px;'>正确! </span>","null","","","","","","","","","","","","","","","","","","","","","","","feedback_test"
"","","","","","psychophysics","133","366448","0.0-11.0-0.0-0.12","687","","j","","","","","","","","","","","","","key","j","9.397234636871405","768","428","j","true","img/C_ambi40.png","圆形","prac_simultaneous",""
"","","","","","html-keyboard-response","134","366760","0.0-11.0-0.0-1.12","null","<span style='color:GreenYellow; font-size: 70px;'>正确! </span>","null","","","","","","","","","","","","","","","","","","","","","","","feedback_test"
"","","","","","psychophysics","135","368402","0.0-11.0-0.0-0.13","641","","f","","","","","","","","","","","","","key","f","9.333816091954205","768","428","f","true","img/S_ambi40.png","三角","prac_simultaneous",""
"","","","","","html-keyboard-response","136","368708","0.0-11.0-0.0-1.13","null","<span style='color:GreenYellow; font-size: 70px;'>正确! </span>","null","","","","","","","","","","","","","","","","","","","","","","","feedback_test"
"","","","","","psychophysics","137","370745","0.0-11.0-0.0-0.14","1036","","j","","","","","","","","","","","","","key","j","9.428172897196061","768","428","j","true","img/S_ambi40.png","方形","prac_simultaneous",""
"","","","","","html-keyboard-response","138","371052","0.0-11.0-0.0-1.14","null","<span style='color:GreenYellow; font-size: 70px;'>正确! </span>","null","","","","","","","","","","","","","","","","","","","","","","","feedback_test"
"","","","","","psychophysics","139","372732","0.0-11.0-0.0-0.15","672","","f","","","","","","","","","","","","","key","f","9.403162921348514","768","428","f","true","img/C_ambi40.png","方形","prac_simultaneous",""
"","","","","","html-keyboard-response","140","373048","0.0-11.0-0.0-1.15","null","<span style='color:GreenYellow; font-size: 70px;'>正确! </span>","null","","","","","","","","","","","","","","","","","","","","","","","feedback_test"
"","","","","","psychophysics","141","375101","0.0-11.0-0.0-0.16","1049","","f","","","","","","","","","","","","","key","f","9.40156221198168","768","428","f","true","img/S_ambi40.png","圆形","prac_simultaneous",""
"","","","","","html-keyboard-response","142","375406","0.0-11.0-0.0-1.16","null","<span style='color:GreenYellow; font-size: 70px;'>正确! </span>","null","","","","","","","","","","","","","","","","","","","","","","","feedback_test"
"","","","","","psychophysics","143","377131","0.0-11.0-0.0-0.17","720","","f","","","","","","","","","","","","","key","f","9.373852459016597","768","428","f","true","img/T_ambi40.png","圆形","prac_simultaneous",""
"","","","","","html-keyboard-response","144","377443","0.0-11.0-0.0-1.17","null","<span style='color:GreenYellow; font-size: 70px;'>正确! </span>","null","","","","","","","","","","","","","","","","","","","","","","","feedback_test"
"","","","","","psychophysics","145","379093","0.0-11.0-0.0-0.18","648","","f","","","","","","","","","","","","","key","f","9.326348571428431","768","428","f","true","img/C_ambi40.png","三角","prac_simultaneous",""
"","","","","","html-keyboard-response","146","379411","0.0-11.0-0.0-1.18","null","<span style='color:GreenYellow; font-size: 70px;'>正确! </span>","null","","","","","","","","","","","","","","","","","","","","","","","feedback_test"
"","","","","","psychophysics","147","380954","0.0-11.0-0.0-0.19","538","","j","","","","","","","","","","","","","key","j","9.286303030302975","768","428","j","true","img/T_ambi40.png","三角","prac_simultaneous",""
"","","","","","html-keyboard-response","148","381263","0.0-11.0-0.0-1.19","null","<span style='color:GreenYellow; font-size: 70px;'>正确! </span>","null","","","","","","","","","","","","","","","","","","","","","","","feedback_test"
"","","","","","psychophysics","149","383025","0.0-11.0-0.0-0.20","760","","j","","","","","","","","","","","","","key","j","9.347271276595803","768","428","j","true","img/C_ambi40.png","圆形","prac_simultaneous",""
"","","","","","html-keyboard-response","150","383340","0.0-11.0-0.0-1.20","null","<span style='color:GreenYellow; font-size: 70px;'>正确! </span>","null","","","","","","","","","","","","","","","","","","","","","","","feedback_test"
"","","","","","psychophysics","151","384936","0.0-11.0-0.0-0.21","596","","j","","","","","","","","","","","","","key","j","9.363349112425793","768","428","j","true","img/T_ambi40.png","三角","prac_simultaneous",""
"","","","","","html-keyboard-response","152","385258","0.0-11.0-0.0-1.21","null","<span style='color:GreenYellow; font-size: 70px;'>正确! </span>","null","","","","","","","","","","","","","","","","","","","","","","","feedback_test"
"","","","","","psychophysics","153","387138","0.0-11.0-0.0-0.22","878","","j","","","","","","","","","","","","","key","j","9.367790000000095","768","428","j","true","img/S_ambi40.png","方形","prac_simultaneous",""
"","","","","","html-keyboard-response","154","387443","0.0-11.0-0.0-1.22","null","<span style='color:GreenYellow; font-size: 70px;'>正确! </span>","null","","","","","","","","","","","","","","","","","","","","","","","feedback_test"
"","","","","","psychophysics","155","389197","0.0-11.0-0.0-0.23","753","","f","","","","","","","","","","","","","key","f","9.328497297297282","768","428","f","true","img/T_ambi40.png","方形","prac_simultaneous",""
"","","","","","html-keyboard-response","156","389500","0.0-11.0-0.0-1.23","null","<span style='color:GreenYellow; font-size: 70px;'>正确! </span>","null","","","","","","","","","","","","","","","","","","","","","","","feedback_test"
"","","","","","html-keyboard-response","157","395878","0.0-12.0","6376","<style>.context{color:white; font-size: 35px; line-height:40px}</style>                            <div><p class='context'>您正确回答了96% 的试次。</p><p class='context'>您的平均反应时为708毫秒。</p><p class='context'>恭喜您完成练习。按任意键进入正式实验。</p><p class='footer' style='font-size: 35px; line-height:40px;'>请在进入正式实验实验之前将您的<span style='color: lightgreen;'>食指</span>放在电脑键盘的相应键位上进行按键。</p>"," ","","","","","","","","","","","","","","","","","","","","","","",""
"","","","","","html-keyboard-response","158","407543","0.0-13.0-1.0-0.0","11659","
    <p>请您将手指放在按键上，准备进入呈现顺序为<span style='color: yellow;'>先文字后图形条件</span>的正式匹配任务</p>
    <p> <div style = ""color: green""><按任意键进入下一阶段的匹配任务></div></p>
    "," ","","","","","","","","","","","","","","","","","","","","","","",""
"","","","","","psychophysics","159","409263","0.0-13.0-1.0-1.0-0.0-0.0","569","","f","","","","","","","","","","","","","key","f","9.379500000000098","768","428","f","true","img/S_ambi40.png","圆形","word_first",""
"","","","","","html-keyboard-response","160","409565","0.0-13.0-1.0-1.0-0.0-1.0","null","<span style='color:GreenYellow; font-size: 70px;'>正确! </span>","null","","","","","","","","","","","","","","","","","","","","","","","feedback_test"
"","","","","","psychophysics","161","411339","0.0-13.0-1.0-1.0-0.0-0.1","621","","f","","","","","","","","","","","","","key","f","9.33987830687812","768","428","f","true","img/C_ambi40.png","方形","word_first",""
"","","","","","html-keyboard-response","162","411649","0.0-13.0-1.0-1.0-0.0-1.1","null","<span style='color:GreenYellow; font-size: 70px;'>正确! </span>","null","","","","","","","","","","","","","","","","","","","","","","","feedback_test"
"","","","","","psychophysics","163","413356","0.0-13.0-1.0-1.0-0.0-0.2","555","","j","","","","","","","","","","","","","key","j","9.358500000000156","768","428","j","true","img/T_ambi40.png","三角","word_first",""
"","","","","","html-keyboard-response","164","413660","0.0-13.0-1.0-1.0-0.0-1.2","null","<span style='color:GreenYellow; font-size: 70px;'>正确! </span>","null","","","","","","","","","","","","","","","","","","","","","","","feedback_test"
"","","","","","psychophysics","165","415396","0.0-13.0-1.0-1.0-0.0-0.3","584","","j","","","","","","","","","","","","","key","j","9.37368306010908","768","428","j","true","img/S_ambi40.png","方形","word_first",""
"","","","","","html-keyboard-response","166","415709","0.0-13.0-1.0-1.0-0.0-1.3","null","<span style='color:GreenYellow; font-size: 70px;'>正确! </span>","null","","","","","","","","","","","","","","","","","","","","","","","feedback_test"
"","","","","","psychophysics","167","417333","0.0-13.0-1.0-1.0-0.0-0.4","469","","j","","","","","","","","","","","","","key","j","9.284235632184213","768","428","j","true","img/C_ambi40.png","圆形","word_first",""
"","","","","","html-keyboard-response","168","417644","0.0-13.0-1.0-1.0-0.0-1.4","null","<span style='color:GreenYellow; font-size: 70px;'>正确! </span>","null","","","","","","","","","","","","","","","","","","","","","","","feedback_test"
"","","","","","psychophysics","169","419269","0.0-13.0-1.0-1.0-0.0-0.5","474","","j","","","","","","","","","","","","","key","j","9.36394736842131","768","428","j","true","img/C_ambi40.png","圆形","word_first",""
"","","","","","html-keyboard-response","170","419572","0.0-13.0-1.0-1.0-0.0-1.5","null","<span style='color:GreenYellow; font-size: 70px;'>正确! </span>","null","","","","","","","","","","","","","","","","","","","","","","","feedback_test"
"","","","","","psychophysics","171","421165","0.0-13.0-1.0-1.0-0.0-0.6","441","","j","","","","","","","","","","","","","key","j","9.307088235294213","768","428","j","true","img/T_ambi40.png","三角","word_first",""
"","","","","","html-keyboard-response","172","421470","0.0-13.0-1.0-1.0-0.0-1.6","null","<span style='color:GreenYellow; font-size: 70px;'>正确! </span>","null","","","","","","","","","","","","","","","","","","","","","","","feedback_test"
"","","","","","psychophysics","173","423182","0.0-13.0-1.0-1.0-0.0-0.7","557","","j","","","","","","","","","","","","","key","j","9.333967032966749","768","428","f","false","img/T_ambi40.png","方形","word_first",""
"","","","","","html-keyboard-response","174","423487","0.0-13.0-1.0-1.0-0.0-1.7","null","<span style='color:red; font-size: 70px;'>错误! </span>","null","","","","","","","","","","","","","","","","","","","","","","","feedback_test"
"","","","","","psychophysics","175","425183","0.0-13.0-1.0-1.0-0.0-0.8","543","","f","","","","","","","","","","","","","key","f","9.34511666666658","768","428","f","true","img/T_ambi40.png","圆形","word_first",""
"","","","","","html-keyboard-response","176","425497","0.0-13.0-1.0-1.0-0.0-1.8","null","<span style='color:GreenYellow; font-size: 70px;'>正确! </span>","null","","","","","","","","","","","","","","","","","","","","","","","feedback_test"
"","","","","","psychophysics","177","427204","0.0-13.0-1.0-1.0-0.0-0.9","556","","j","","","","","","","","","","","","","key","j","9.293403314917287","768","428","j","true","img/S_ambi40.png","方形","word_first",""
"","","","","","html-keyboard-response","178","427512","0.0-13.0-1.0-1.0-0.0-1.9","null","<span style='color:GreenYellow; font-size: 70px;'>正确! </span>","null","","","","","","","","","","","","","","","","","","","","","","","feedback_test"
"","","","","","psychophysics","179","429187","0.0-13.0-1.0-1.0-0.0-0.10","524","","f","","","","","","","","","","","","","key","f","9.309095505618142","768","428","f","true","img/S_ambi40.png","三角","word_first",""
"","","","","","html-keyboard-response","180","429496","0.0-13.0-1.0-1.0-0.0-1.10","null","<span style='color:GreenYellow; font-size: 70px;'>正确! </span>","null","","","","","","","","","","","","","","","","","","","","","","","feedback_test"
"","","","","","psychophysics","181","431265","0.0-13.0-1.0-1.0-0.0-0.11","613","","f","","","","","","","","","","","","","key","f","9.395850267379549","768","428","f","true","img/C_ambi40.png","三角","word_first",""
"","","","","","html-keyboard-response","182","431577","0.0-13.0-1.0-1.0-0.0-1.11","null","<span style='color:GreenYellow; font-size: 70px;'>正确! </span>","null","","","","","","","","","","","","","","","","","","","","","","","feedback_test"
"","","","","","psychophysics","183","433368","0.0-13.0-1.0-1.0-0.0-0.12","635","","f","","","","","","","","","","","","","key","f","9.329324607329909","768","428","f","true","img/T_ambi40.png","方形","word_first",""
"","","","","","html-keyboard-response","184","433679","0.0-13.0-1.0-1.0-0.0-1.12","null","<span style='color:GreenYellow; font-size: 70px;'>正确! </span>","null","","","","","","","","","","","","","","","","","","","","","","","feedback_test"
"","","","","","psychophysics","185","435398","0.0-13.0-1.0-1.0-0.0-0.13","565","","j","","","","","","","","","","","","","key","j","9.328693989071107","768","428","j","true","img/T_ambi40.png","三角","word_first",""
"","","","","","html-keyboard-response","186","435712","0.0-13.0-1.0-1.0-0.0-1.13","null","<span style='color:GreenYellow; font-size: 70px;'>正确! </span>","null","","","","","","","","","","","","","","","","","","","","","","","feedback_test"
"","","","","","psychophysics","187","437468","0.0-13.0-1.0-1.0-0.0-0.14","604","","f","","","","","","","","","","","","","key","f","9.356682795699202","768","428","f","true","img/S_ambi40.png","圆形","word_first",""
"","","","","","html-keyboard-response","188","437777","0.0-13.0-1.0-1.0-0.0-1.14","null","<span style='color:GreenYellow; font-size: 70px;'>正确! </span>","null","","","","","","","","","","","","","","","","","","","","","","","feedback_test"
"","","","","","psychophysics","189","439624","0.0-13.0-1.0-1.0-0.0-0.15","693","","j","","","","","","","","","","","","","key","j","9.389454081632572","768","428","j","true","img/S_ambi40.png","方形","word_first",""
"","","","","","html-keyboard-response","190","439938","0.0-13.0-1.0-1.0-0.0-1.15","null","<span style='color:GreenYellow; font-size: 70px;'>正确! </span>","null","","","","","","","","","","","","","","","","","","","","","","","feedback_test"
"","","","","","psychophysics","191","441596","0.0-13.0-1.0-1.0-0.0-0.16","504","","f","","","","","","","","","","","","","key","f","9.421394285714321","768","428","f","true","img/C_ambi40.png","方形","word_first",""
"","","","","","html-keyboard-response","192","441906","0.0-13.0-1.0-1.0-0.0-1.16","null","<span style='color:GreenYellow; font-size: 70px;'>正确! </span>","null","","","","","","","","","","","","","","","","","","","","","","","feedback_test"
"","","","","","psychophysics","193","443602","0.0-13.0-1.0-1.0-0.0-0.17","542","","j","","","","","","","","","","","","","key","j","9.444921787709516","768","428","j","true","img/C_ambi40.png","圆形","word_first",""
"","","","","","html-keyboard-response","194","443919","0.0-13.0-1.0-1.0-0.0-1.17","null","<span style='color:GreenYellow; font-size: 70px;'>正确! </span>","null","","","","","","","","","","","","","","","","","","","","","","","feedback_test"
"","","","","","psychophysics","195","445607","0.0-13.0-1.0-1.0-0.0-0.18","532","","f","","","","","","","","","","","","","key","f","9.352379888268162","768","428","f","true","img/T_ambi40.png","圆形","word_first",""
"","","","","","html-keyboard-response","196","445928","0.0-13.0-1.0-1.0-0.0-1.18","null","<span style='color:GreenYellow; font-size: 70px;'>正确! </span>","null","","","","","","","","","","","","","","","","","","","","","","","feedback_test"
"","","","","","psychophysics","197","447599","0.0-13.0-1.0-1.0-0.0-0.19","518","","j","","","","","","","","","","","","","key","j","9.409406779661161","768","428","j","true","img/S_ambi40.png","方形","word_first",""
"","","","","","html-keyboard-response","198","447919","0.0-13.0-1.0-1.0-0.0-1.19","null","<span style='color:GreenYellow; font-size: 70px;'>正确! </span>","null","","","","","","","","","","","","","","","","","","","","","","","feedback_test"
"","","","","","psychophysics","199","449611","0.0-13.0-1.0-1.0-0.0-0.20","538","","f","","","","","","","","","","","","","key","f","9.389777777777635","768","428","f","true","img/C_ambi40.png","三角","word_first",""
"","","","","","html-keyboard-response","200","449925","0.0-13.0-1.0-1.0-0.0-1.20","null","<span style='color:GreenYellow; font-size: 70px;'>正确! </span>","null","","","","","","","","","","","","","","","","","","","","","","","feedback_test"
"","","","","","psychophysics","201","451581","0.0-13.0-1.0-1.0-0.0-0.21","502","","j","","","","","","","","","","","","","key","j","9.36807386363646","768","428","j","true","img/T_ambi40.png","三角","word_first",""
"","","","","","html-keyboard-response","202","451889","0.0-13.0-1.0-1.0-0.0-1.21","null","<span style='color:GreenYellow; font-size: 70px;'>正确! </span>","null","","","","","","","","","","","","","","","","","","","","","","","feedback_test"
"","","","","","psychophysics","203","453613","0.0-13.0-1.0-1.0-0.0-0.22","570","","f","","","","","","","","","","","","","key","f","9.370153005464546","768","428","f","true","img/S_ambi40.png","三角","word_first",""
"","","","","","html-keyboard-response","204","453927","0.0-13.0-1.0-1.0-0.0-1.22","null","<span style='color:GreenYellow; font-size: 70px;'>正确! </span>","null","","","","","","","","","","","","","","","","","","","","","","","feedback_test"
"","","","","","psychophysics","205","455662","0.0-13.0-1.0-1.0-0.0-0.23","579","","j","","","","","","","","","","","","","key","j","9.373442622950959","768","428","j","true","img/C_ambi40.png","圆形","word_first",""
"","","","","","html-keyboard-response","206","455967","0.0-13.0-1.0-1.0-0.0-1.23","null","<span style='color:GreenYellow; font-size: 70px;'>正确! </span>","null","","","","","","","","","","","","","","","","","","","","","","","feedback_test"
"","","","","","psychophysics","207","457690","0.0-13.0-1.0-1.0-0.0-0.24","567","","f","","","","","","","","","","","","","key","f","9.328437158469901","768","428","f","true","img/C_ambi40.png","方形","word_first",""
"","","","","","html-keyboard-response","208","458001","0.0-13.0-1.0-1.0-0.0-1.24","null","<span style='color:GreenYellow; font-size: 70px;'>正确! </span>","null","","","","","","","","","","","","","","","","","","","","","","","feedback_test"
"","","","","","psychophysics","209","459657","0.0-13.0-1.0-1.0-0.0-0.25","501","","j","","","","","","","","","","","","","key","j","9.373805714285867","768","428","j","true","img/S_ambi40.png","方形","word_first",""
"","","","","","html-keyboard-response","210","459966","0.0-13.0-1.0-1.0-0.0-1.25","null","<span style='color:GreenYellow; font-size: 70px;'>正确! </span>","null","","","","","","","","","","","","","","","","","","","","","","","feedback_test"
"","","","","","psychophysics","211","461613","0.0-13.0-1.0-1.0-0.0-0.26","492","","j","","","","","","","","","","","","","key","j","9.427896551724293","768","428","j","true","img/T_ambi40.png","三角","word_first",""
"","","","","","html-keyboard-response","212","461918","0.0-13.0-1.0-1.0-0.0-1.26","null","<span style='color:GreenYellow; font-size: 70px;'>正确! </span>","null","","","","","","","","","","","","","","","","","","","","","","","feedback_test"
"","","","","","psychophysics","213","463563","0.0-13.0-1.0-1.0-0.0-0.27","494","","j","","","","","","","","","","","","","key","j","9.39867052023139","768","428","j","true","img/C_ambi40.png","圆形","word_first",""
"","","","","","html-keyboard-response","214","463867","0.0-13.0-1.0-1.0-0.0-1.27","null","<span style='color:GreenYellow; font-size: 70px;'>正确! </span>","null","","","","","","","","","","","","","","","","","","","","","","","feedback_test"
"","","","","","psychophysics","215","465600","0.0-13.0-1.0-1.0-0.0-0.28","581","","j","","","","","","","","","","","","","key","j","9.395934065934053","768","428","j","true","img/S_ambi40.png","方形","word_first",""
"","","","","","html-keyboard-response","216","465918","0.0-13.0-1.0-1.0-0.0-1.28","null","<span style='color:GreenYellow; font-size: 70px;'>正确! </span>","null","","","","","","","","","","","","","","","","","","","","","","","feedback_test"
"","","","","","psychophysics","217","467764","0.0-13.0-1.0-1.0-0.0-0.29","690","","f","","","","","","","","","","","","","key","f","9.299426395939202","768","428","f","true","img/C_ambi40.png","三角","word_first",""
"","","","","","html-keyboard-response","218","468072","0.0-13.0-1.0-1.0-0.0-1.29","null","<span style='color:GreenYellow; font-size: 70px;'>正确! </span>","null","","","","","","","","","","","","","","","","","","","","","","","feedback_test"
"","","","","","psychophysics","219","469886","0.0-13.0-1.0-1.0-0.0-0.30","662","","f","","","","","","","","","","","","","key","f","9.393261780104776","768","428","f","true","img/S_ambi40.png","三角","word_first",""
"","","","","","html-keyboard-response","220","470192","0.0-13.0-1.0-1.0-0.0-1.30","null","<span style='color:GreenYellow; font-size: 70px;'>正确! </span>","null","","","","","","","","","","","","","","","","","","","","","","","feedback_test"
"","","","","","psychophysics","221","471902","0.0-13.0-1.0-1.0-0.0-0.31","557","","j","","","","","","","","","","","","","key","j","9.334637362637254","768","428","j","true","img/C_ambi40.png","圆形","word_first",""
"","","","","","html-keyboard-response","222","472211","0.0-13.0-1.0-1.0-0.0-1.31","null","<span style='color:GreenYellow; font-size: 70px;'>正确! </span>","null","","","","","","","","","","","","","","","","","","","","","","","feedback_test"
"","","","","","psychophysics","223","474017","0.0-13.0-1.0-1.0-0.0-0.32","654","","f","","","","","","","","","","","","","key","f","9.43532275132251","768","428","f","true","img/T_ambi40.png","方形","word_first",""
"","","","","","html-keyboard-response","224","474330","0.0-13.0-1.0-1.0-0.0-1.32","null","<span style='color:GreenYellow; font-size: 70px;'>正确! </span>","null","","","","","","","","","","","","","","","","","","","","","","","feedback_test"
"","","","","","psychophysics","225","476119","0.0-13.0-1.0-1.0-0.0-0.33","635","","f","","","","","","","","","","","","","key","f","9.379063157894722","768","428","f","true","img/S_ambi40.png","圆形","word_first",""
"","","","","","html-keyboard-response","226","476433","0.0-13.0-1.0-1.0-0.0-1.33","null","<span style='color:GreenYellow; font-size: 70px;'>正确! </span>","null","","","","","","","","","","","","","","","","","","","","","","","feedback_test"
"","","","","","psychophysics","227","478234","0.0-13.0-1.0-1.0-0.0-0.34","646","","f","","","","","","","","","","","","","key","f","9.390942105263054","768","428","f","true","img/T_ambi40.png","圆形","word_first",""
"","","","","","html-keyboard-response","228","478550","0.0-13.0-1.0-1.0-0.0-1.34","null","<span style='color:GreenYellow; font-size: 70px;'>正确! </span>","null","","","","","","","","","","","","","","","","","","","","","","","feedback_test"
"","","","","","psychophysics","229","480185","0.0-13.0-1.0-1.0-0.0-0.35","479","","j","","","","","","","","","","","","","key","j","9.331971264367684","768","428","j","true","img/T_ambi40.png","三角","word_first",""
"","","","","","html-keyboard-response","230","480506","0.0-13.0-1.0-1.0-0.0-1.35","null","<span style='color:GreenYellow; font-size: 70px;'>正确! </span>","null","","","","","","","","","","","","","","","","","","","","","","","feedback_test"
"","","","","","psychophysics","231","482162","0.0-13.0-1.0-1.0-0.0-0.36","501","","j","","","","","","","","","","","","","key","j","9.321346590908929","768","428","j","true","img/T_ambi40.png","三角","word_first",""
"","","","","","html-keyboard-response","232","482469","0.0-13.0-1.0-1.0-0.0-1.36","null","<span style='color:GreenYellow; font-size: 70px;'>正确! </span>","null","","","","","","","","","","","","","","","","","","","","","","","feedback_test"
"","","","","","psychophysics","233","484163","0.0-13.0-1.0-1.0-0.0-0.37","535","","f","","","","","","","","","","","","","key","f","9.367960893854697","768","428","f","true","img/C_ambi40.png","方形","word_first",""
"","","","","","html-keyboard-response","234","484474","0.0-13.0-1.0-1.0-0.0-1.37","null","<span style='color:GreenYellow; font-size: 70px;'>正确! </span>","null","","","","","","","","","","","","","","","","","","","","","","","feedback_test"
"","","","","","psychophysics","235","486149","0.0-13.0-1.0-1.0-0.0-0.38","521","","j","","","","","","","","","","","","","key","j","9.463664772727167","768","428","j","true","img/C_ambi40.png","圆形","word_first",""
"","","","","","html-keyboard-response","236","486467","0.0-13.0-1.0-1.0-0.0-1.38","null","<span style='color:GreenYellow; font-size: 70px;'>正确! </span>","null","","","","","","","","","","","","","","","","","","","","","","","feedback_test"
"","","","","","psychophysics","237","488224","0.0-13.0-1.0-1.0-0.0-0.39","606","","j","","","","","","","","","","","","","key","j","9.356317204300888","768","428","j","true","img/S_ambi40.png","方形","word_first",""
"","","","","","html-keyboard-response","238","488543","0.0-13.0-1.0-1.0-0.0-1.39","null","<span style='color:GreenYellow; font-size: 70px;'>正确! </span>","null","","","","","","","","","","","","","","","","","","","","","","","feedback_test"
"","","","","","psychophysics","239","490167","0.0-13.0-1.0-1.0-0.0-0.40","469","","j","","","","","","","","","","","","","key","j","9.392465116279158","768","428","j","true","img/S_ambi40.png","方形","word_first",""
"","","","","","html-keyboard-response","240","490483","0.0-13.0-1.0-1.0-0.0-1.40","null","<span style='color:GreenYellow; font-size: 70px;'>正确! </span>","null","","","","","","","","","","","","","","","","","","","","","","","feedback_test"
"","","","","","psychophysics","241","492217","0.0-13.0-1.0-1.0-0.0-0.41","581","","f","","","","","","","","","","","","","key","f","9.368630434782498","768","428","f","true","img/S_ambi40.png","圆形","word_first",""
"","","","","","html-keyboard-response","242","492527","0.0-13.0-1.0-1.0-0.0-1.41","null","<span style='color:GreenYellow; font-size: 70px;'>正确! </span>","null","","","","","","","","","","","","","","","","","","","","","","","feedback_test"
"","","","","","psychophysics","243","494315","0.0-13.0-1.0-1.0-0.0-0.42","636","","f","","","","","","","","","","","","","key","f","9.402526595744929","768","428","f","true","img/T_ambi40.png","方形","word_first",""
"","","","","","html-keyboard-response","244","494623","0.0-13.0-1.0-1.0-0.0-1.42","null","<span style='color:GreenYellow; font-size: 70px;'>正确! </span>","null","","","","","","","","","","","","","","","","","","","","","","","feedback_test"
"","","","","","psychophysics","245","496305","0.0-13.0-1.0-1.0-0.0-0.43","528","","f","","","","","","","","","","","","","key","f","9.350664804469437","768","428","f","true","img/T_ambi40.png","圆形","word_first",""
"","","","","","html-keyboard-response","246","496624","0.0-13.0-1.0-1.0-0.0-1.43","null","<span style='color:GreenYellow; font-size: 70px;'>正确! </span>","null","","","","","","","","","","","","","","","","","","","","","","","feedback_test"
"","","","","","psychophysics","247","498288","0.0-13.0-1.0-1.0-0.0-0.44","512","","j","","","","","","","","","","","","","key","j","9.386542857142963","768","428","j","true","img/C_ambi40.png","圆形","word_first",""
"","","","","","html-keyboard-response","248","498607","0.0-13.0-1.0-1.0-0.0-1.44","null","<span style='color:GreenYellow; font-size: 70px;'>正确! </span>","null","","","","","","","","","","","","","","","","","","","","","","","feedback_test"
"","","","","","psychophysics","249","500272","0.0-13.0-1.0-1.0-0.0-0.45","514","","f","","","","","","","","","","","","","key","f","8.678347368421045","768","428","f","true","img/C_ambi40.png","三角","word_first",""
"","","","","","html-keyboard-response","250","500591","0.0-13.0-1.0-1.0-0.0-1.45","null","<span style='color:GreenYellow; font-size: 70px;'>正确! </span>","null","","","","","","","","","","","","","","","","","","","","","","","feedback_test"
"","","","","","psychophysics","251","502218","0.0-13.0-1.0-1.0-0.0-0.46","470","","j","","","","","","","","","","","","","key","j","9.286287356321914","768","428","j","true","img/T_ambi40.png","三角","word_first",""
"","","","","","html-keyboard-response","252","502527","0.0-13.0-1.0-1.0-0.0-1.46","null","<span style='color:GreenYellow; font-size: 70px;'>正确! </span>","null","","","","","","","","","","","","","","","","","","","","","","","feedback_test"
"","","","","","psychophysics","253","504159","0.0-13.0-1.0-1.0-0.0-0.47","480","","f","","","","","","","","","","","","","key","f","9.442680232558159","768","428","f","true","img/S_ambi40.png","三角","word_first",""
"","","","","","html-keyboard-response","254","504462","0.0-13.0-1.0-1.0-0.0-1.47","null","<span style='color:GreenYellow; font-size: 70px;'>正确! </span>","null","","","","","","","","","","","","","","","","","","","","","","","feedback_test"
"","","","","","psychophysics","255","506171","0.0-13.0-1.0-1.0-0.0-0.48","552","","f","","","","","","","","","","","","","key","f","9.384850828729258","768","428","f","true","img/T_ambi40.png","方形","word_first",""
"","","","","","html-keyboard-response","256","506475","0.0-13.0-1.0-1.0-0.0-1.48","null","<span style='color:GreenYellow; font-size: 70px;'>正确! </span>","null","","","","","","","","","","","","","","","","","","","","","","","feedback_test"
"","","","","","psychophysics","257","508087","0.0-13.0-1.0-1.0-0.0-0.49","461","","j","","","","","","","","","","","","","key","j","9.399140350877346","768","428","j","true","img/T_ambi40.png","三角","word_first",""
"","","","","","html-keyboard-response","258","508397","0.0-13.0-1.0-1.0-0.0-1.49","null","<span style='color:GreenYellow; font-size: 70px;'>正确! </span>","null","","","","","","","","","","","","","","","","","","","","","","","feedback_test"
"","","","","","psychophysics","259","510063","0.0-13.0-1.0-1.0-0.0-0.50","513","","f","","","","","","","","","","","","","key","f","9.368454545454865","768","428","f","true","img/T_ambi40.png","圆形","word_first",""
"","","","","","html-keyboard-response","260","510377","0.0-13.0-1.0-1.0-0.0-1.50","null","<span style='color:GreenYellow; font-size: 70px;'>正确! </span>","null","","","","","","","","","","","","","","","","","","","","","","","feedback_test"
"","","","","","psychophysics","261","511984","0.0-13.0-1.0-1.0-0.0-0.51","452","","j","","","","","","","","","","","","","key","j","9.349222222222247","768","428","j","true","img/C_ambi40.png","圆形","word_first",""
"","","","","","html-keyboard-response","262","512307","0.0-13.0-1.0-1.0-0.0-1.51","null","<span style='color:GreenYellow; font-size: 70px;'>正确! </span>","null","","","","","","","","","","","","","","","","","","","","","","","feedback_test"
"","","","","","psychophysics","263","514150","0.0-13.0-1.0-1.0-0.0-0.52","691","","j","","","","","","","","","","","","","key","j","9.388668367346957","768","428","j","true","img/S_ambi40.png","方形","word_first",""
"","","","","","html-keyboard-response","264","514452","0.0-13.0-1.0-1.0-0.0-1.52","null","<span style='color:GreenYellow; font-size: 70px;'>正确! </span>","null","","","","","","","","","","","","","","","","","","","","","","","feedback_test"
"","","","","","psychophysics","265","516237","0.0-13.0-1.0-1.0-0.0-0.53","633","","j","","","","","","","","","","","","","key","j","9.406148936170057","768","428","j","true","img/C_ambi40.png","圆形","word_first",""
"","","","","","html-keyboard-response","266","516541","0.0-13.0-1.0-1.0-0.0-1.53","null","<span style='color:GreenYellow; font-size: 70px;'>正确! </span>","null","","","","","","","","","","","","","","","","","","","","","","","feedback_test"
"","","","","","psychophysics","267","518184","0.0-13.0-1.0-1.0-0.0-0.54","491","","j","","","","","","","","","","","","","key","j","9.38009195402298","768","428","j","true","img/T_ambi40.png","三角","word_first",""
"","","","","","html-keyboard-response","268","518503","0.0-13.0-1.0-1.0-0.0-1.54","null","<span style='color:GreenYellow; font-size: 70px;'>正确! </span>","null","","","","","","","","","","","","","","","","","","","","","","","feedback_test"
"","","","","","psychophysics","269","520108","0.0-13.0-1.0-1.0-0.0-0.55","450","","f","","","","","","","","","","","","","key","f","9.412035502958698","768","428","f","true","img/S_ambi40.png","圆形","word_first",""
"","","","","","html-keyboard-response","270","520415","0.0-13.0-1.0-1.0-0.0-1.55","null","<span style='color:GreenYellow; font-size: 70px;'>正确! </span>","null","","","","","","","","","","","","","","","","","","","","","","","feedback_test"
"","","","","","psychophysics","271","522305","0.0-13.0-1.0-1.0-0.0-0.56","739","","f","","","","","","","","","","","","","key","f","9.38483919597982","768","428","f","true","img/S_ambi40.png","三角","word_first",""
"","","","","","html-keyboard-response","272","522622","0.0-13.0-1.0-1.0-0.0-1.56","null","<span style='color:GreenYellow; font-size: 70px;'>正确! </span>","null","","","","","","","","","","","","","","","","","","","","","","","feedback_test"
"","","","","","psychophysics","273","524275","0.0-13.0-1.0-1.0-0.0-0.57","502","","f","","","","","","","","","","","","","key","f","9.373799999999548","768","428","f","true","img/C_ambi40.png","三角","word_first",""
"","","","","","html-keyboard-response","274","524587","0.0-13.0-1.0-1.0-0.0-1.57","null","<span style='color:GreenYellow; font-size: 70px;'>正确! </span>","null","","","","","","","","","","","","","","","","","","","","","","","feedback_test"
"","","","","","psychophysics","275","526301","0.0-13.0-1.0-1.0-0.0-0.58","560","","j","","","","","","","","","","","","","key","j","9.386707182320153","768","428","j","true","img/S_ambi40.png","方形","word_first",""
"","","","","","html-keyboard-response","276","526612","0.0-13.0-1.0-1.0-0.0-1.58","null","<span style='color:GreenYellow; font-size: 70px;'>正确! </span>","null","","","","","","","","","","","","","","","","","","","","","","","feedback_test"
"","","","","","psychophysics","277","528214","0.0-13.0-1.0-1.0-0.0-0.59","450","","f","","","","","","","","","","","","","key","f","9.41238461538444","768","428","f","true","img/C_ambi40.png","方形","word_first",""
"","","","","","html-keyboard-response","278","528526","0.0-13.0-1.0-1.0-0.0-1.59","null","<span style='color:GreenYellow; font-size: 70px;'>正确! </span>","null","","","","","","","","","","","","","","","","","","","","","","","feedback_test"
"","","","","","html-keyboard-response","279","534646","0.0-13.0-1.0-1.0-1.0","6117","<style>.context{color:white; font-size: 35px; line-height:40px}</style>                            <div><p class='context'>您正确回答了98% 的试次。</p><p class='context'>您的平均反应时为551毫秒。</p><p class='context'>请按任意键进入休息</p></div>"," ","","","","","","","","","","","","","","","","","","","","","","",""
"","","","","","html-button-response","280","565624","0.0-13.0-1.0-1.0-2.0","30974","
                    <p>您当前还剩余3组实验</p>
                    <p>现在是休息时间，当您结束休息后，您可以点击 结束休息 按钮 继续</p>
                    <p>建议休息时间还剩余<span id=""iii"">60</span>秒</p>","0","","","","","","","","","","","","","","","","","","","","","","",""
"","","","","","psychophysics","281","567424","0.0-13.0-1.0-1.0-0.1-0.60","644","","j","","","","","","","","","","","","","key","j","9.375267015706688","768","428","j","true","img/C_ambi40.png","圆形","word_first",""
"","","","","","html-keyboard-response","282","567737","0.0-13.0-1.0-1.0-0.1-1.60","null","<span style='color:GreenYellow; font-size: 70px;'>正确! </span>","null","","","","","","","","","","","","","","","","","","","","","","","feedback_test"
"","","","","","psychophysics","283","569411","0.0-13.0-1.0-1.0-0.1-0.61","523","","f","","","","","","","","","","","","","key","f","9.379062499999815","768","428","f","true","img/T_ambi40.png","方形","word_first",""
"","","","","","html-keyboard-response","284","569730","0.0-13.0-1.0-1.0-0.1-1.61","null","<span style='color:GreenYellow; font-size: 70px;'>正确! </span>","null","","","","","","","","","","","","","","","","","","","","","","","feedback_test"
"","","","","","psychophysics","285","571453","0.0-13.0-1.0-1.0-0.1-0.62","569","","f","","","","","","","","","","","","","key","f","9.37956043956085","768","428","f","true","img/C_ambi40.png","三角","word_first",""
"","","","","","html-keyboard-response","286","571767","0.0-13.0-1.0-1.0-0.1-1.62","null","<span style='color:GreenYellow; font-size: 70px;'>正确! </span>","null","","","","","","","","","","","","","","","","","","","","","","","feedback_test"
"","","","","","psychophysics","287","573469","0.0-13.0-1.0-1.0-0.1-0.63","549","","j","","","","","","","","","","","","","key","j","9.4056703910614","768","428","j","true","img/T_ambi40.png","三角","word_first",""
"","","","","","html-keyboard-response","288","573774","0.0-13.0-1.0-1.0-0.1-1.63","null","<span style='color:GreenYellow; font-size: 70px;'>正确! </span>","null","","","","","","","","","","","","","","","","","","","","","","","feedback_test"
"","","","","","psychophysics","289","575415","0.0-13.0-1.0-1.0-0.1-0.64","482","","f","","","","","","","","","","","","","key","f","9.279171428571322","768","428","f","true","img/S_ambi40.png","三角","word_first",""
"","","","","","html-keyboard-response","290","575736","0.0-13.0-1.0-1.0-0.1-1.64","null","<span style='color:GreenYellow; font-size: 70px;'>正确! </span>","null","","","","","","","","","","","","","","","","","","","","","","","feedback_test"
"","","","","","psychophysics","291","577431","0.0-13.0-1.0-1.0-0.1-0.65","543","","f","","","","","","","","","","","","","key","f","9.33942541436457","768","428","f","true","img/T_ambi40.png","圆形","word_first",""
"","","","","","html-keyboard-response","292","577747","0.0-13.0-1.0-1.0-0.1-1.65","null","<span style='color:GreenYellow; font-size: 70px;'>正确! </span>","null","","","","","","","","","","","","","","","","","","","","","","","feedback_test"
"","","","","","psychophysics","293","579417","0.0-13.0-1.0-1.0-0.1-0.66","517","","f","","","","","","","","","","","","","key","f","9.415130681817987","768","428","f","true","img/C_ambi40.png","方形","word_first",""
"","","","","","html-keyboard-response","294","579726","0.0-13.0-1.0-1.0-0.1-1.66","null","<span style='color:GreenYellow; font-size: 70px;'>正确! </span>","null","","","","","","","","","","","","","","","","","","","","","","","feedback_test"
"","","","","","psychophysics","295","581408","0.0-13.0-1.0-1.0-0.1-0.67","531","","j","","","","","","","","","","","","","key","j","9.456214689265536","768","428","j","true","img/S_ambi40.png","方形","word_first",""
"","","","","","html-keyboard-response","296","581727","0.0-13.0-1.0-1.0-0.1-1.67","null","<span style='color:GreenYellow; font-size: 70px;'>正确! </span>","null","","","","","","","","","","","","","","","","","","","","","","","feedback_test"
"","","","","","psychophysics","297","583494","0.0-13.0-1.0-1.0-0.1-0.68","610","","j","","","","","","","","","","","","","key","j","9.395860962566601","768","428","j","true","img/C_ambi40.png","圆形","word_first",""
"","","","","","html-keyboard-response","298","583810","0.0-13.0-1.0-1.0-0.1-1.68","null","<span style='color:GreenYellow; font-size: 70px;'>正确! </span>","null","","","","","","","","","","","","","","","","","","","","","","","feedback_test"
"","","","","","psychophysics","299","585406","0.0-13.0-1.0-1.0-0.1-0.69","441","","j","","","","","","","","","","","","","key","j","9.425766467065886","768","428","j","true","img/S_ambi40.png","方形","word_first",""
"","","","","","html-keyboard-response","300","585712","0.0-13.0-1.0-1.0-0.1-1.69","null","<span style='color:GreenYellow; font-size: 70px;'>正确! </span>","null","","","","","","","","","","","","","","","","","","","","","","","feedback_test"
"","","","","","psychophysics","301","587413","0.0-13.0-1.0-1.0-0.1-0.70","548","","f","","","","","","","","","","","","","key","f","9.444150837988973","768","428","f","true","img/S_ambi40.png","圆形","word_first",""
"","","","","","html-keyboard-response","302","587721","0.0-13.0-1.0-1.0-0.1-1.70","null","<span style='color:GreenYellow; font-size: 70px;'>正确! </span>","null","","","","","","","","","","","","","","","","","","","","","","","feedback_test"
"","","","","","psychophysics","303","589345","0.0-13.0-1.0-1.0-0.1-0.71","469","","j","","","","","","","","","","","","","key","j","9.39815204678381","768","428","j","true","img/T_ambi40.png","三角","word_first",""
"","","","","","html-keyboard-response","304","589667","0.0-13.0-1.0-1.0-0.1-1.71","null","<span style='color:GreenYellow; font-size: 70px;'>正确! </span>","null","","","","","","","","","","","","","","","","","","","","","","","feedback_test"
"","","","","","psychophysics","305","591280","0.0-13.0-1.0-1.0-0.1-0.72","461","","j","","","","","","","","","","","","","key","j","9.343953488372282","768","428","j","true","img/T_ambi40.png","三角","word_first",""
"","","","","","html-keyboard-response","306","591596","0.0-13.0-1.0-1.0-0.1-1.72","null","<span style='color:GreenYellow; font-size: 70px;'>正确! </span>","null","","","","","","","","","","","","","","","","","","","","","","","feedback_test"
"","","","","","psychophysics","307","593222","0.0-13.0-1.0-1.0-0.1-0.73","474","","j","","","","","","","","","","","","","key","j","9.391529069767405","768","428","j","true","img/C_ambi40.png","圆形","word_first",""
"","","","","","html-keyboard-response","308","593531","0.0-13.0-1.0-1.0-0.1-1.73","null","<span style='color:GreenYellow; font-size: 70px;'>正确! </span>","null","","","","","","","","","","","","","","","","","","","","","","","feedback_test"
"","","","","","psychophysics","309","595209","0.0-13.0-1.0-1.0-0.1-0.74","526","","f","","","","","","","","","","","","","key","f","9.40351685393259","768","428","f","true","img/T_ambi40.png","方形","word_first",""
"","","","","","html-keyboard-response","310","595527","0.0-13.0-1.0-1.0-0.1-1.74","null","<span style='color:GreenYellow; font-size: 70px;'>正确! </span>","null","","","","","","","","","","","","","","","","","","","","","","","feedback_test"
"","","","","","psychophysics","311","597130","0.0-13.0-1.0-1.0-0.1-0.75","449","","j","","","","","","","","","","","","","key","j","9.307005882352891","768","428","f","false","img/T_ambi40.png","圆形","word_first",""
"","","","","","html-keyboard-response","312","597446","0.0-13.0-1.0-1.0-0.1-1.75","null","<span style='color:red; font-size: 70px;'>错误! </span>","null","","","","","","","","","","","","","","","","","","","","","","","feedback_test"
"","","","","","psychophysics","313","599067","0.0-13.0-1.0-1.0-0.1-0.76","470","","j","","","","","","","","","","","","","key","j","9.34465116279086","768","428","j","true","img/C_ambi40.png","圆形","word_first",""
"","","","","","html-keyboard-response","314","599372","0.0-13.0-1.0-1.0-0.1-1.76","null","<span style='color:GreenYellow; font-size: 70px;'>正确! </span>","null","","","","","","","","","","","","","","","","","","","","","","","feedback_test"
"","","","","","psychophysics","315","601099","0.0-13.0-1.0-1.0-0.1-0.77","574","","f","","","","","","","","","","","","","key","f","9.314881081080593","768","428","f","true","img/S_ambi40.png","圆形","word_first",""
"","","","","","html-keyboard-response","316","601411","0.0-13.0-1.0-1.0-0.1-1.77","null","<span style='color:GreenYellow; font-size: 70px;'>正确! </span>","null","","","","","","","","","","","","","","","","","","","","","","","feedback_test"
"","","","","","psychophysics","317","603320","0.0-13.0-1.0-1.0-0.1-0.78","755","","j","","","","","","","","","","","","","key","j","9.306279411764276","768","428","j","true","img/S_ambi40.png","方形","word_first",""
"","","","","","html-keyboard-response","318","603637","0.0-13.0-1.0-1.0-0.1-1.78","null","<span style='color:GreenYellow; font-size: 70px;'>正确! </span>","null","","","","","","","","","","","","","","","","","","","","","","","feedback_test"
"","","","","","psychophysics","319","605311","0.0-13.0-1.0-1.0-0.1-0.79","517","","j","","","","","","","","","","","","","key","j","9.40991525423692","768","428","j","true","img/T_ambi40.png","三角","word_first",""
"","","","","","html-keyboard-response","320","605619","0.0-13.0-1.0-1.0-0.1-1.79","null","<span style='color:GreenYellow; font-size: 70px;'>正确! </span>","null","","","","","","","","","","","","","","","","","","","","","","","feedback_test"
"","","","","","psychophysics","321","607381","0.0-13.0-1.0-1.0-0.1-0.80","609","","f","","","","","","","","","","","","","key","f","9.351871657753637","768","428","f","true","img/C_ambi40.png","方形","word_first",""
"","","","","","html-keyboard-response","322","607687","0.0-13.0-1.0-1.0-0.1-1.80","null","<span style='color:GreenYellow; font-size: 70px;'>正确! </span>","null","","","","","","","","","","","","","","","","","","","","","","","feedback_test"
"","","","","","psychophysics","323","609487","0.0-13.0-1.0-1.0-0.1-0.81","648","","f","","","","","","","","","","","","","key","f","9.373780104712003","768","428","f","true","img/S_ambi40.png","三角","word_first",""
"","","","","","html-keyboard-response","324","609803","0.0-13.0-1.0-1.0-0.1-1.81","null","<span style='color:GreenYellow; font-size: 70px;'>正确! </span>","null","","","","","","","","","","","","","","","","","","","","","","","feedback_test"
"","","","","","psychophysics","325","611580","0.0-13.0-1.0-1.0-0.1-0.82","626","","j","","","","","","","","","","","","","key","j","9.3847671957673","768","428","j","true","img/S_ambi40.png","方形","word_first",""
"","","","","","html-keyboard-response","326","611893","0.0-13.0-1.0-1.0-0.1-1.82","null","<span style='color:GreenYellow; font-size: 70px;'>正确! </span>","null","","","","","","","","","","","","","","","","","","","","","","","feedback_test"
"","","","","","psychophysics","327","613560","0.0-13.0-1.0-1.0-0.1-0.83","516","","f","","","","","","","","","","","","","key","f","9.363163841808067","768","428","f","true","img/C_ambi40.png","三角","word_first",""
"","","","","","html-keyboard-response","328","613868","0.0-13.0-1.0-1.0-0.1-1.83","null","<span style='color:GreenYellow; font-size: 70px;'>正确! </span>","null","","","","","","","","","","","","","","","","","","","","","","","feedback_test"
"","","","","","psychophysics","329","615651","0.0-13.0-1.0-1.0-0.1-0.84","630","","f","","","","","","","","","","","","","key","f","9.39022872340432","768","428","f","true","img/T_ambi40.png","方形","word_first",""
"","","","","","html-keyboard-response","330","615969","0.0-13.0-1.0-1.0-0.1-1.84","null","<span style='color:GreenYellow; font-size: 70px;'>正确! </span>","null","","","","","","","","","","","","","","","","","","","","","","","feedback_test"
"","","","","","psychophysics","331","617626","0.0-13.0-1.0-1.0-0.1-0.85","501","","f","","","","","","","","","","","","","key","f","9.365920454545465","768","428","f","true","img/S_ambi40.png","三角","word_first",""
"","","","","","html-keyboard-response","332","617943","0.0-13.0-1.0-1.0-0.1-1.85","null","<span style='color:GreenYellow; font-size: 70px;'>正确! </span>","null","","","","","","","","","","","","","","","","","","","","","","","feedback_test"
"","","","","","psychophysics","333","619595","0.0-13.0-1.0-1.0-0.1-0.86","498","","f","","","","","","","","","","","","","key","f","9.37410285714282","768","428","f","true","img/C_ambi40.png","三角","word_first",""
"","","","","","html-keyboard-response","334","619905","0.0-13.0-1.0-1.0-0.1-1.86","null","<span style='color:GreenYellow; font-size: 70px;'>正确! </span>","null","","","","","","","","","","","","","","","","","","","","","","","feedback_test"
"","","","","","psychophysics","335","621589","0.0-13.0-1.0-1.0-0.1-0.87","533","","j","","","","","","","","","","","","","key","j","9.357056179775181","768","428","j","true","img/C_ambi40.png","圆形","word_first",""
"","","","","","html-keyboard-response","336","621899","0.0-13.0-1.0-1.0-0.1-1.87","null","<span style='color:GreenYellow; font-size: 70px;'>正确! </span>","null","","","","","","","","","","","","","","","","","","","","","","","feedback_test"
"","","","","","psychophysics","337","623612","0.0-13.0-1.0-1.0-0.1-0.88","560","","f","","","","","","","","","","","","","key","f","9.37925824175837","768","428","f","true","img/S_ambi40.png","圆形","word_first",""
"","","","","","html-keyboard-response","338","623920","0.0-13.0-1.0-1.0-0.1-1.88","null","<span style='color:GreenYellow; font-size: 70px;'>正确! </span>","null","","","","","","","","","","","","","","","","","","","","","","","feedback_test"
"","","","","","psychophysics","339","625653","0.0-13.0-1.0-1.0-0.1-0.89","576","","f","","","","","","","","","","","","","key","f","9.316989189188776","768","428","f","true","img/C_ambi40.png","方形","word_first",""
"","","","","","html-keyboard-response","340","625971","0.0-13.0-1.0-1.0-0.1-1.89","null","<span style='color:GreenYellow; font-size: 70px;'>正确! </span>","null","","","","","","","","","","","","","","","","","","","","","","","feedback_test"
"","","","","","psychophysics","341","627639","0.0-13.0-1.0-1.0-0.1-0.90","514","","j","","","","","","","","","","","","","key","j","9.415301136363599","768","428","j","true","img/S_ambi40.png","方形","word_first",""
"","","","","","html-keyboard-response","342","627948","0.0-13.0-1.0-1.0-0.1-1.90","null","<span style='color:GreenYellow; font-size: 70px;'>正确! </span>","null","","","","","","","","","","","","","","","","","","","","","","","feedback_test"
"","","","","","psychophysics","343","629659","0.0-13.0-1.0-1.0-0.1-0.91","560","","j","","","","","","","","","","","","","key","j","9.301232044199143","768","428","j","true","img/S_ambi40.png","方形","word_first",""
"","","","","","html-keyboard-response","344","629973","0.0-13.0-1.0-1.0-0.1-1.91","null","<span style='color:GreenYellow; font-size: 70px;'>正确! </span>","null","","","","","","","","","","","","","","","","","","","","","","","feedback_test"
"","","","","","psychophysics","345","631830","0.0-13.0-1.0-1.0-0.1-0.92","707","","j","","","","","","","","","","","","","key","j","9.33612626262663","768","428","j","true","img/C_ambi40.png","圆形","word_first",""
"","","","","","html-keyboard-response","346","632139","0.0-13.0-1.0-1.0-0.1-1.92","null","<span style='color:GreenYellow; font-size: 70px;'>正确! </span>","null","","","","","","","","","","","","","","","","","","","","","","","feedback_test"
"","","","","","psychophysics","347","633853","0.0-13.0-1.0-1.0-0.1-0.93","561","","j","","","","","","","","","","","","","key","j","9.282251366120228","768","428","j","true","img/T_ambi40.png","三角","word_first",""
"","","","","","html-keyboard-response","348","634164","0.0-13.0-1.0-1.0-0.1-1.93","null","<span style='color:GreenYellow; font-size: 70px;'>正确! </span>","null","","","","","","","","","","","","","","","","","","","","","","","feedback_test"
"","","","","","psychophysics","349","635795","0.0-13.0-1.0-1.0-0.1-0.94","478","","f","","","","","","","","","","","","","key","f","9.284327586206885","768","428","f","true","img/T_ambi40.png","圆形","word_first",""
"","","","","","html-keyboard-response","350","636107","0.0-13.0-1.0-1.0-0.1-1.94","null","<span style='color:GreenYellow; font-size: 70px;'>正确! </span>","null","","","","","","","","","","","","","","","","","","","","","","","feedback_test"
"","","","","","psychophysics","351","637724","0.0-13.0-1.0-1.0-0.1-0.95","465","","j","","","","","","","","","","","","","key","j","9.338086705201984","768","428","j","true","img/T_ambi40.png","三角","word_first",""
"","","","","","html-keyboard-response","352","638041","0.0-13.0-1.0-1.0-0.1-1.95","null","<span style='color:GreenYellow; font-size: 70px;'>正确! </span>","null","","","","","","","","","","","","","","","","","","","","","","","feedback_test"
"","","","","","psychophysics","353","639731","0.0-13.0-1.0-1.0-0.1-0.96","534","","f","","","","","","","","","","","","","key","f","9.399230337078459","768","428","f","true","img/S_ambi40.png","圆形","word_first",""
"","","","","","html-keyboard-response","354","640039","0.0-13.0-1.0-1.0-0.1-1.96","null","<span style='color:GreenYellow; font-size: 70px;'>正确! </span>","null","","","","","","","","","","","","","","","","","","","","","","","feedback_test"
"","","","","","psychophysics","355","641707","0.0-13.0-1.0-1.0-0.1-0.97","511","","j","","","","","","","","","","","","","key","j","9.32233898305087","768","428","j","true","img/S_ambi40.png","方形","word_first",""
"","","","","","html-keyboard-response","356","642016","0.0-13.0-1.0-1.0-0.1-1.97","null","<span style='color:GreenYellow; font-size: 70px;'>正确! </span>","null","","","","","","","","","","","","","","","","","","","","","","","feedback_test"
"","","","","","psychophysics","357","643693","0.0-13.0-1.0-1.0-0.1-0.98","523","","j","","","","","","","","","","","","","key","j","9.356393258427426","768","428","j","true","img/C_ambi40.png","圆形","word_first",""
"","","","","","html-keyboard-response","358","643997","0.0-13.0-1.0-1.0-0.1-1.98","null","<span style='color:GreenYellow; font-size: 70px;'>正确! </span>","null","","","","","","","","","","","","","","","","","","","","","","","feedback_test"
"","","","","","psychophysics","359","645661","0.0-13.0-1.0-1.0-0.1-0.99","513","","f","","","","","","","","","","","","","key","f","9.262460674157266","768","428","f","true","img/T_ambi40.png","方形","word_first",""
"","","","","","html-keyboard-response","360","645976","0.0-13.0-1.0-1.0-0.1-1.99","null","<span style='color:GreenYellow; font-size: 70px;'>正确! </span>","null","","","","","","","","","","","","","","","","","","","","","","","feedback_test"
"","","","","","psychophysics","361","647666","0.0-13.0-1.0-1.0-0.1-0.100","532","","j","","","","","","","","","","","","","key","j","9.364848314606574","768","428","j","true","img/C_ambi40.png","圆形","word_first",""
"","","","","","html-keyboard-response","362","647976","0.0-13.0-1.0-1.0-0.1-1.100","null","<span style='color:GreenYellow; font-size: 70px;'>正确! </span>","null","","","","","","","","","","","","","","","","","","","","","","","feedback_test"
"","","","","","psychophysics","363","649942","0.0-13.0-1.0-1.0-0.1-0.101","809","","j","","","","","","","","","","","","","key","j","9.407971153846189","768","428","j","true","img/S_ambi40.png","方形","word_first",""
"","","","","","html-keyboard-response","364","650252","0.0-13.0-1.0-1.0-0.1-1.101","null","<span style='color:GreenYellow; font-size: 70px;'>正确! </span>","null","","","","","","","","","","","","","","","","","","","","","","","feedback_test"
"","","","","","psychophysics","365","651973","0.0-13.0-1.0-1.0-0.1-0.102","568","","f","","","","","","","","","","","","","key","f","9.272454054053949","768","428","f","true","img/S_ambi40.png","三角","word_first",""
"","","","","","html-keyboard-response","366","652277","0.0-13.0-1.0-1.0-0.1-1.102","null","<span style='color:GreenYellow; font-size: 70px;'>正确! </span>","null","","","","","","","","","","","","","","","","","","","","","","","feedback_test"
"","","","","","psychophysics","367","653955","0.0-13.0-1.0-1.0-0.1-0.103","527","","j","","","","","","","","","","","","","key","j","9.34994413407829","768","428","j","true","img/T_ambi40.png","三角","word_first",""
"","","","","","html-keyboard-response","368","654272","0.0-13.0-1.0-1.0-0.1-1.103","null","<span style='color:GreenYellow; font-size: 70px;'>正确! </span>","null","","","","","","","","","","","","","","","","","","","","","","","feedback_test"
"","","","","","psychophysics","369","655951","0.0-13.0-1.0-1.0-0.1-0.104","524","","f","","","","","","","","","","","","","key","f","9.252055555555529","768","428","f","true","img/C_ambi40.png","三角","word_first",""
"","","","","","html-keyboard-response","370","656264","0.0-13.0-1.0-1.0-0.1-1.104","null","<span style='color:GreenYellow; font-size: 70px;'>正确! </span>","null","","","","","","","","","","","","","","","","","","","","","","","feedback_test"
"","","","","","psychophysics","371","658041","0.0-13.0-1.0-1.0-0.1-0.105","623","","f","","","","","","","","","","","","","key","f","9.290047368421343","768","428","f","true","img/C_ambi40.png","方形","word_first",""
"","","","","","html-keyboard-response","372","658353","0.0-13.0-1.0-1.0-0.1-1.105","null","<span style='color:GreenYellow; font-size: 70px;'>正确! </span>","null","","","","","","","","","","","","","","","","","","","","","","","feedback_test"
"","","","","","psychophysics","373","660108","0.0-13.0-1.0-1.0-0.1-0.106","601","","j","","","","","","","","","","","","","key","j","9.351438502673393","768","428","j","true","img/T_ambi40.png","三角","word_first",""
"","","","","","html-keyboard-response","374","660417","0.0-13.0-1.0-1.0-0.1-1.106","null","<span style='color:GreenYellow; font-size: 70px;'>正确! </span>","null","","","","","","","","","","","","","","","","","","","","","","","feedback_test"
"","","","","","psychophysics","375","662028","0.0-13.0-1.0-1.0-0.1-0.107","456","","f","","","","","","","","","","","","","key","f","9.293808139534397","768","428","f","true","img/T_ambi40.png","圆形","word_first",""
"","","","","","html-keyboard-response","376","662332","0.0-13.0-1.0-1.0-0.1-1.107","null","<span style='color:GreenYellow; font-size: 70px;'>正确! </span>","null","","","","","","","","","","","","","","","","","","","","","","","feedback_test"
"","","","","","psychophysics","377","663959","0.0-13.0-1.0-1.0-0.1-0.108","472","","j","","","","","","","","","","","","","key","j","9.39225581395345","768","428","j","true","img/C_ambi40.png","圆形","word_first",""
"","","","","","html-keyboard-response","378","664264","0.0-13.0-1.0-1.0-0.1-1.108","null","<span style='color:GreenYellow; font-size: 70px;'>正确! </span>","null","","","","","","","","","","","","","","","","","","","","","","","feedback_test"
"","","","","","psychophysics","379","666236","0.0-13.0-1.0-1.0-0.1-0.109","816","","f","","","","","","","","","","","","","key","f","9.363071770334848","768","428","f","true","img/S_ambi40.png","圆形","word_first",""
"","","","","","html-keyboard-response","380","666549","0.0-13.0-1.0-1.0-0.1-1.109","null","<span style='color:GreenYellow; font-size: 70px;'>正确! </span>","null","","","","","","","","","","","","","","","","","","","","","","","feedback_test"
"","","","","","psychophysics","381","668170","0.0-13.0-1.0-1.0-0.1-0.110","470","","f","","","","","","","","","","","","","key","f","9.283770114942802","768","428","f","true","img/C_ambi40.png","方形","word_first",""
"","","","","","html-keyboard-response","382","668481","0.0-13.0-1.0-1.0-0.1-1.110","null","<span style='color:GreenYellow; font-size: 70px;'>正确! </span>","null","","","","","","","","","","","","","","","","","","","","","","","feedback_test"
"","","","","","psychophysics","383","670098","0.0-13.0-1.0-1.0-0.1-0.111","465","","f","","","","","","","","","","","","","key","f","9.292109826589783","768","428","f","true","img/C_ambi40.png","三角","word_first",""
"","","","","","html-keyboard-response","384","670409","0.0-13.0-1.0-1.0-0.1-1.111","null","<span style='color:GreenYellow; font-size: 70px;'>正确! </span>","null","","","","","","","","","","","","","","","","","","","","","","","feedback_test"
"","","","","","psychophysics","385","672134","0.0-13.0-1.0-1.0-0.1-0.112","571","","j","","","","","","","","","","","","","key","j","9.37468852459","768","428","j","true","img/S_ambi40.png","方形","word_first",""
"","","","","","html-keyboard-response","386","672445","0.0-13.0-1.0-1.0-0.1-1.112","null","<span style='color:GreenYellow; font-size: 70px;'>正确! </span>","null","","","","","","","","","","","","","","","","","","","","","","","feedback_test"
"","","","","","psychophysics","387","674006","0.0-13.0-1.0-1.0-0.1-0.113","410","","j","","","","","","","","","","","","","key","j","9.317696428571557","768","428","j","true","img/T_ambi40.png","三角","word_first",""
"","","","","","html-keyboard-response","388","674316","0.0-13.0-1.0-1.0-0.1-1.113","null","<span style='color:GreenYellow; font-size: 70px;'>正确! </span>","null","","","","","","","","","","","","","","","","","","","","","","","feedback_test"
"","","","","","psychophysics","389","675902","0.0-13.0-1.0-1.0-0.1-0.114","432","","f","","","","","","","","","","","","","key","f","9.313662721893953","768","428","f","true","img/T_ambi40.png","圆形","word_first",""
"","","","","","html-keyboard-response","390","676207","0.0-13.0-1.0-1.0-0.1-1.114","null","<span style='color:GreenYellow; font-size: 70px;'>正确! </span>","null","","","","","","","","","","","","","","","","","","","","","","","feedback_test"
"","","","","","psychophysics","391","677940","0.0-13.0-1.0-1.0-0.1-0.115","581","","j","","","","","","","","","","","","","key","j","9.367858695652103","768","428","j","true","img/S_ambi40.png","方形","word_first",""
"","","","","","html-keyboard-response","392","678246","0.0-13.0-1.0-1.0-0.1-1.115","null","<span style='color:GreenYellow; font-size: 70px;'>正确! </span>","null","","","","","","","","","","","","","","","","","","","","","","","feedback_test"
"","","","","","psychophysics","393","679861","0.0-13.0-1.0-1.0-0.1-0.116","460","","f","","","","","","","","","","","","","key","f","9.289364161849361","768","428","f","true","img/T_ambi40.png","方形","word_first",""
"","","","","","html-keyboard-response","394","680176","0.0-13.0-1.0-1.0-0.1-1.116","null","<span style='color:GreenYellow; font-size: 70px;'>正确! </span>","null","","","","","","","","","","","","","","","","","","","","","","","feedback_test"
"","","","","","psychophysics","395","681817","0.0-13.0-1.0-1.0-0.1-0.117","491","","j","","","","","","","","","","","","","key","j","9.326497142857074","768","428","j","true","img/T_ambi40.png","三角","word_first",""
"","","","","","html-keyboard-response","396","682133","0.0-13.0-1.0-1.0-0.1-1.117","null","<span style='color:GreenYellow; font-size: 70px;'>正确! </span>","null","","","","","","","","","","","","","","","","","","","","","","","feedback_test"
"","","","","","psychophysics","397","683704","0.0-13.0-1.0-1.0-0.1-0.118","416","","f","","","","","","","","","","","","","key","f","9.440612121212126","768","428","j","false","img/C_ambi40.png","圆形","word_first",""
"","","","","","html-keyboard-response","398","684019","0.0-13.0-1.0-1.0-0.1-1.118","null","<span style='color:red; font-size: 70px;'>错误! </span>","null","","","","","","","","","","","","","","","","","","","","","","","feedback_test"
"","","","","","psychophysics","399","685739","0.0-13.0-1.0-1.0-0.1-0.119","569","","f","","","","","","","","","","","","","key","f","9.37321311475447","768","428","f","true","img/S_ambi40.png","三角","word_first",""
"","","","","","html-keyboard-response","400","686048","0.0-13.0-1.0-1.0-0.1-1.119","null","<span style='color:GreenYellow; font-size: 70px;'>正确! </span>","null","","","","","","","","","","","","","","","","","","","","","","","feedback_test"
"","","","","","html-keyboard-response","401","688064","0.0-13.0-1.0-1.0-1.1","2014","<style>.context{color:white; font-size: 35px; line-height:40px}</style>                            <div><p class='context'>您正确回答了97% 的试次。</p><p class='context'>您的平均反应时为546毫秒。</p><p class='context'>请按任意键进入休息</p></div>"," ","","","","","","","","","","","","","","","","","","","","","","",""
"","","","","","html-button-response","402","718918","0.0-13.0-1.0-1.0-2.1","30848","
                    <p>您当前还剩余2组实验</p>
                    <p>现在是休息时间，当您结束休息后，您可以点击 结束休息 按钮 继续</p>
                    <p>建议休息时间还剩余<span id=""iii"">60</span>秒</p>","0","","","","","","","","","","","","","","","","","","","","","","",""
"","","","","","psychophysics","403","720609","0.0-13.0-1.0-1.0-0.2-0.120","538","","j","","","","","","","","","","","","","key","j","9.246939226519316","768","428","j","true","img/S_ambi40.png","方形","word_first",""
"","","","","","html-keyboard-response","404","720929","0.0-13.0-1.0-1.0-0.2-1.120","null","<span style='color:GreenYellow; font-size: 70px;'>正确! </span>","null","","","","","","","","","","","","","","","","","","","","","","","feedback_test"
"","","","","","psychophysics","405","722655","0.0-13.0-1.0-1.0-0.2-0.121","572","","f","","","","","","","","","","","","","key","f","9.430895027624139","768","428","f","true","img/C_ambi40.png","三角","word_first",""
"","","","","","html-keyboard-response","406","722971","0.0-13.0-1.0-1.0-0.2-1.121","null","<span style='color:GreenYellow; font-size: 70px;'>正确! </span>","null","","","","","","","","","","","","","","","","","","","","","","","feedback_test"
"","","","","","psychophysics","407","724647","0.0-13.0-1.0-1.0-0.2-0.122","523","","f","","","","","","","","","","","","","key","f","9.409570621469289","768","428","f","true","img/C_ambi40.png","方形","word_first",""
"","","","","","html-keyboard-response","408","724959","0.0-13.0-1.0-1.0-0.2-1.122","null","<span style='color:GreenYellow; font-size: 70px;'>正确! </span>","null","","","","","","","","","","","","","","","","","","","","","","","feedback_test"
"","","","","","psychophysics","409","726543","0.0-13.0-1.0-1.0-0.2-0.123","429","","j","","","","","","","","","","","","","key","j","9.311810650887551","768","428","j","true","img/T_ambi40.png","三角","word_first",""
"","","","","","html-keyboard-response","410","726862","0.0-13.0-1.0-1.0-0.2-1.123","null","<span style='color:GreenYellow; font-size: 70px;'>正确! </span>","null","","","","","","","","","","","","","","","","","","","","","","","feedback_test"
"","","","","","psychophysics","411","728489","0.0-13.0-1.0-1.0-0.2-0.124","469","","f","","","","","","","","","","","","","key","f","9.393831395349183","768","428","f","true","img/T_ambi40.png","圆形","word_first",""
"","","","","","html-keyboard-response","412","728805","0.0-13.0-1.0-1.0-0.2-1.124","null","<span style='color:GreenYellow; font-size: 70px;'>正确! </span>","null","","","","","","","","","","","","","","","","","","","","","","","feedback_test"
"","","","","","psychophysics","413","730447","0.0-13.0-1.0-1.0-0.2-0.125","486","","f","","","","","","","","","","","","","key","f","9.27890857142862","768","428","f","true","img/T_ambi40.png","方形","word_first",""
"","","","","","html-keyboard-response","414","730764","0.0-13.0-1.0-1.0-0.2-1.125","null","<span style='color:GreenYellow; font-size: 70px;'>正确! </span>","null","","","","","","","","","","","","","","","","","","","","","","","feedback_test"
"","","","","","psychophysics","415","732507","0.0-13.0-1.0-1.0-0.2-0.126","592","","j","","","","","","","","","","","","","key","j","9.413076086956172","768","428","j","true","img/C_ambi40.png","圆形","word_first",""
"","","","","","html-keyboard-response","416","732815","0.0-13.0-1.0-1.0-0.2-1.126","null","<span style='color:GreenYellow; font-size: 70px;'>正确! </span>","null","","","","","","","","","","","","","","","","","","","","","","","feedback_test"
"","","","","","psychophysics","417","734444","0.0-13.0-1.0-1.0-0.2-0.127","477","","j","","","","","","","","","","","","","key","j","9.299791907514123","768","428","j","true","img/S_ambi40.png","方形","word_first",""
"","","","","","html-keyboard-response","418","734761","0.0-13.0-1.0-1.0-0.2-1.127","null","<span style='color:GreenYellow; font-size: 70px;'>正确! </span>","null","","","","","","","","","","","","","","","","","","","","","","","feedback_test"
"","","","","","psychophysics","419","736366","0.0-13.0-1.0-1.0-0.2-0.128","452","","j","","","","","","","","","","","","","key","j","9.349754385964683","768","428","j","true","img/C_ambi40.png","圆形","word_first",""
"","","","","","html-keyboard-response","420","736678","0.0-13.0-1.0-1.0-0.2-1.128","null","<span style='color:GreenYellow; font-size: 70px;'>正确! </span>","null","","","","","","","","","","","","","","","","","","","","","","","feedback_test"
"","","","","","psychophysics","421","738305","0.0-13.0-1.0-1.0-0.2-0.129","474","","j","","","","","","","","","","","","","key","j","9.338653179190413","768","428","j","true","img/T_ambi40.png","三角","word_first",""
"","","","","","html-keyboard-response","422","738613","0.0-13.0-1.0-1.0-0.2-1.129","null","<span style='color:GreenYellow; font-size: 70px;'>正确! </span>","null","","","","","","","","","","","","","","","","","","","","","","","feedback_test"
"","","","","","psychophysics","423","740284","0.0-13.0-1.0-1.0-0.2-0.130","514","","f","","","","","","","","","","","","","key","f","9.362039548022631","768","428","f","true","img/S_ambi40.png","三角","word_first",""
"","","","","","html-keyboard-response","424","740596","0.0-13.0-1.0-1.0-0.2-1.130","null","<span style='color:GreenYellow; font-size: 70px;'>正确! </span>","null","","","","","","","","","","","","","","","","","","","","","","","feedback_test"
"","","","","","psychophysics","425","742321","0.0-13.0-1.0-1.0-0.2-0.131","573","","f","","","","","","","","","","","","","key","f","9.271697297297116","768","428","f","true","img/S_ambi40.png","圆形","word_first",""
"","","","","","html-keyboard-response","426","742636","0.0-13.0-1.0-1.0-0.2-1.131","null","<span style='color:GreenYellow; font-size: 70px;'>正确! </span>","null","","","","","","","","","","","","","","","","","","","","","","","feedback_test"
"","","","","","psychophysics","427","744246","0.0-13.0-1.0-1.0-0.2-0.132","455","","j","","","","","","","","","","","","","key","j","9.03296045197758","768","428","j","true","img/T_ambi40.png","三角","word_first",""
"","","","","","html-keyboard-response","428","744566","0.0-13.0-1.0-1.0-0.2-1.132","null","<span style='color:GreenYellow; font-size: 70px;'>正确! </span>","null","","","","","","","","","","","","","","","","","","","","","","","feedback_test"
"","","","","","psychophysics","429","746347","0.0-13.0-1.0-1.0-0.2-0.133","623","","j","","","","","","","","","","","","","key","j","8.739683168316676","768","428","j","true","img/S_ambi40.png","方形","word_first",""
"","","","","","html-keyboard-response","430","746661","0.0-13.0-1.0-1.0-0.2-1.133","null","<span style='color:GreenYellow; font-size: 70px;'>正确! </span>","null","","","","","","","","","","","","","","","","","","","","","","","feedback_test"
"","","","","","psychophysics","431","748345","0.0-13.0-1.0-1.0-0.2-0.134","532","","f","","","","","","","","","","","","","key","f","9.24701657458543","768","428","f","true","img/C_ambi40.png","三角","word_first",""
"","","","","","html-keyboard-response","432","748664","0.0-13.0-1.0-1.0-0.2-1.134","null","<span style='color:GreenYellow; font-size: 70px;'>正确! </span>","null","","","","","","","","","","","","","","","","","","","","","","","feedback_test"
"","","","","","psychophysics","433","750240","0.0-13.0-1.0-1.0-0.2-0.135","420","","j","","","","","","","","","","","","","key","j","9.208682352941318","768","428","j","true","img/T_ambi40.png","三角","word_first",""
