"success","timeout","failed_images","failed_audio","failed_video","trial_type","trial_index","time_elapsed","internal_node_id","rt","stimulus","response","value","item_width_mm","item_height_mm","item_width_px","px2mm","view_dist_mm","item_width_deg","px2deg","scale_factor","win_width_deg","win_height_deg","view_history","response_type","key_press","avg_frame_time","center_x","center_y","correct_response","correct","Image","word","condition","screen_id"
"true","false","[]","[]","[]","preload","0","520","0.0-0.0","","","","","","","","","","","","","","","","","","","","","","","","","",""
"","","","","","html-keyboard-response","1","153822","0.0-1.0","153298","
   <p>您好，欢迎参加本次实验。</p>
   <p>为充分保障您的权利，请确保您已经知晓并同意《参与实验同意书》以及《数据公开知情同意书》。</p>
   <p>如果您未见过上述内容，请咨询实验员。</p>
   <p>如果您选择继续实验，则表示您已经清楚两份知情同意书的内容并同意。</p>
   <p> <div style = ""color: green""><按任意键至下页></div> </p>
   "," ","","","","","","","","","","","","","","","","","","","","","","",""
"","","","","","html-keyboard-response","2","156257","0.0-2.0","2435","
   <p>本实验首先需要您填写一些基本个人信息。</p>
   <p> <div style = ""color: green""><按任意键至下页></div></p>
   "," ","","","","","","","","","","","","","","","","","","","","","","",""
"","","","","","call-function","3","156260","0.0-3.0-0.0","","","","","","","","","","","","","","","","","","","","","","","","","",""
"","","","","","survey-html-form","4","160248","0.0-3.0-1.0","3983","","{""Q0"":""33""}","","","","","","","","","","","","","","","","","","","","","","",""
"","","","","","html-button-response","5","162302","0.0-3.0-2.0","2052","<p style = 'color : white'>您的性别</p>","0","","","","","","","","","","","","","","","","","","","","","","",""
"","","","","","survey-html-form","6","174651","0.0-3.0-3.0","12348","","{""Q0"":""2000""}","","","","","","","","","","","","","","","","","","","","","","",""
"","","","","","survey-html-form","7","178731","0.0-3.0-4.0","4077","","{""Q0"":""5""}","","","","","","","","","","","","","","","","","","","","","","",""
"","","","","","virtual-chinrest","8","265228","0.0-4.0","86493","","","","85.6","53.98","389.5256151560428","4.547527818449085","628.58","7.790512303120856","50.00000000000001","1.0885035117142343","28.799999999999997","15.279999999999998","","","","","","","","","","","",""
"true","","","","","fullscreen","9","267766","0.0-5.0","","","","","","","","","","","","","","","","","","","","","","","","","",""
"","","","","","instructions","10","312319","0.0-6.0","44551","","","","","","","","","","","","","","[{""page_index"":0,""viewing_time"":1902},{""page_index"":1,""viewing_time"":38372},{""page_index"":2,""viewing_time"":2832},{""page_index"":3,""viewing_time"":1445}]","","","","","","","","","","",""
"","","","","","psychophysics","11","314985","0.0-7.0-0.0-0.0","null","","null","","","","","","","","","","","","","key","null","16.666000000000018","720","446","j","false","img/S_ambi40.png","方形","prac_image_first",""
"","","","","","html-keyboard-response","12","315302","0.0-7.0-0.0-1.0","null","<span class='add_' style='color:yellow; font-size: 70px;'> 太慢! </span>","null","","","","","","","","","","","","","","","","","","","","","","","feedback_test"
"","","","","","psychophysics","13","317957","0.0-7.0-0.0-0.1","null","","null","","","","","","","","","","","","","key","null","16.666000000000018","720","446","j","false","img/T_ambi40.png","三角","prac_image_first",""
"","","","","","html-keyboard-response","14","318267","0.0-7.0-0.0-1.1","null","<span class='add_' style='color:yellow; font-size: 70px;'> 太慢! </span>","null","","","","","","","","","","","","","","","","","","","","","","","feedback_test"
"","","","","","psychophysics","15","320235","0.0-7.0-0.0-0.2","811","","f","","","","","","","","","","","","","key","f","16.666000000000174","720","446","f","true","img/C_ambi40.png","三角","prac_image_first",""
"","","","","","html-keyboard-response","16","320539","0.0-7.0-0.0-1.2","null","<span style='color:GreenYellow; font-size: 70px;'>正确! </span>","null","","","","","","","","","","","","","","","","","","","","","","","feedback_test"
"","","","","","psychophysics","17","323192","0.0-7.0-0.0-0.3","null","","null","","","","","","","","","","","","","key","null","16.666000000000018","720","446","f","false","img/T_ambi40.png","圆形","prac_image_first",""
"","","","","","html-keyboard-response","18","323501","0.0-7.0-0.0-1.3","null","<span class='add_' style='color:yellow; font-size: 70px;'> 太慢! </span>","null","","","","","","","","","","","","","","","","","","","","","","","feedback_test"
"","","","","","psychophysics","19","326162","0.0-7.0-0.0-0.4","null","","null","","","","","","","","","","","","","key","null","16.66599999999982","720","446","f","false","img/C_ambi40.png","方形","prac_image_first",""
"","","","","","html-keyboard-response","20","326467","0.0-7.0-0.0-1.4","null","<span class='add_' style='color:yellow; font-size: 70px;'> 太慢! </span>","null","","","","","","","","","","","","","","","","","","","","","","","feedback_test"
"","","","","","psychophysics","21","328317","0.0-7.0-0.0-0.5","693","","f","","","","","","","","","","","","","key","f","16.666000000000086","720","446","j","false","img/T_ambi40.png","三角","prac_image_first",""
"","","","","","html-keyboard-response","22","328630","0.0-7.0-0.0-1.5","null","<span style='color:red; font-size: 70px;'>错误! </span>","null","","","","","","","","","","","","","","","","","","","","","","","feedback_test"
"","","","","","psychophysics","23","330333","0.0-7.0-0.0-0.6","547","","j","","","","","","","","","","","","","key","j","16.671188118811674","720","446","j","true","img/C_ambi40.png","圆形","prac_image_first",""
"","","","","","html-keyboard-response","24","330644","0.0-7.0-0.0-1.6","null","<span style='color:GreenYellow; font-size: 70px;'>正确! </span>","null","","","","","","","","","","","","","","","","","","","","","","","feedback_test"
"","","","","","psychophysics","25","333307","0.0-7.0-0.0-0.7","null","","null","","","","","","","","","","","","","key","null","16.666000000000018","720","446","f","false","img/T_ambi40.png","方形","prac_image_first",""
"","","","","","html-keyboard-response","26","333610","0.0-7.0-0.0-1.7","null","<span class='add_' style='color:yellow; font-size: 70px;'> 太慢! </span>","null","","","","","","","","","","","","","","","","","","","","","","","feedback_test"
"","","","","","psychophysics","27","335680","0.0-7.0-0.0-0.8","919","","f","","","","","","","","","","","","","key","f","16.666000000000043","720","446","j","false","img/S_ambi40.png","方形","prac_image_first",""
"","","","","","html-keyboard-response","28","335990","0.0-7.0-0.0-1.8","null","<span style='color:red; font-size: 70px;'>错误! </span>","null","","","","","","","","","","","","","","","","","","","","","","","feedback_test"
"","","","","","psychophysics","29","338652","0.0-7.0-0.0-0.9","null","","null","","","","","","","","","","","","","key","null","16.666000000000018","720","446","f","false","img/S_ambi40.png","圆形","prac_image_first",""
"","","","","","html-keyboard-response","30","338955","0.0-7.0-0.0-1.9","null","<span class='add_' style='color:yellow; font-size: 70px;'> 太慢! </span>","null","","","","","","","","","","","","","","","","","","","","","","","feedback_test"
"","","","","","psychophysics","31","341372","0.0-7.0-0.0-0.10","1265","","f","","","","","","","","","","","","","key","f","16.665999999999865","720","446","j","false","img/C_ambi40.png","圆形","prac_image_first",""
"","","","","","html-keyboard-response","32","341678","0.0-7.0-0.0-1.10","null","<span style='color:red; font-size: 70px;'>错误! </span>","null","","","","","","","","","","","","","","","","","","","","","","","feedback_test"
"","","","","","psychophysics","33","344341","0.0-7.0-0.0-0.11","null","","null","","","","","","","","","","","","","key","null","16.666000000000018","720","446","f","false","img/S_ambi40.png","三角","prac_image_first",""
"","","","","","html-keyboard-response","34","344651","0.0-7.0-0.0-1.11","null","<span class='add_' style='color:yellow; font-size: 70px;'> 太慢! </span>","null","","","","","","","","","","","","","","","","","","","","","","","feedback_test"
"","","","","","psychophysics","35","347307","0.0-7.0-0.0-0.12","null","","null","","","","","","","","","","","","","key","null","16.666000000000018","720","446","f","false","img/T_ambi40.png","方形","prac_image_first",""
"","","","","","html-keyboard-response","36","347611","0.0-7.0-0.0-1.12","null","<span class='add_' style='color:yellow; font-size: 70px;'> 太慢! </span>","null","","","","","","","","","","","","","","","","","","","","","","","feedback_test"
"","","","","","psychophysics","37","349923","0.0-7.0-0.0-0.13","1149","","f","","","","","","","","","","","","","key","f","16.669824817518272","720","446","j","false","img/C_ambi40.png","圆形","prac_image_first",""
"","","","","","html-keyboard-response","38","350231","0.0-7.0-0.0-1.13","null","<span style='color:red; font-size: 70px;'>错误! </span>","null","","","","","","","","","","","","","","","","","","","","","","","feedback_test"
"","","","","","psychophysics","39","352344","0.0-7.0-0.0-0.14","955","","j","","","","","","","","","","","","","key","j","16.66600000000021","720","446","j","true","img/S_ambi40.png","方形","prac_image_first",""
"","","","","","html-keyboard-response","40","352651","0.0-7.0-0.0-1.14","null","<span style='color:GreenYellow; font-size: 70px;'>正确! </span>","null","","","","","","","","","","","","","","","","","","","","","","","feedback_test"
"","","","","","psychophysics","41","354820","0.0-7.0-0.0-0.15","1012","","f","","","","","","","","","","","","","key","f","16.665999999999922","720","446","f","true","img/S_ambi40.png","圆形","prac_image_first",""
"","","","","","html-keyboard-response","42","355127","0.0-7.0-0.0-1.15","null","<span style='color:GreenYellow; font-size: 70px;'>正确! </span>","null","","","","","","","","","","","","","","","","","","","","","","","feedback_test"
"","","","","","psychophysics","43","357019","0.0-7.0-0.0-0.16","733","","j","","","","","","","","","","","","","key","j","16.666000000000036","720","446","j","true","img/C_ambi40.png","圆形","prac_image_first",""
"","","","","","html-keyboard-response","44","357335","0.0-7.0-0.0-1.16","null","<span style='color:GreenYellow; font-size: 70px;'>正确! </span>","null","","","","","","","","","","","","","","","","","","","","","","","feedback_test"
"","","","","","psychophysics","45","359522","0.0-7.0-0.0-0.17","1031","","f","","","","","","","","","","","","","key","f","16.666000000000125","720","446","f","true","img/T_ambi40.png","圆形","prac_image_first",""
"","","","","","html-keyboard-response","46","359831","0.0-7.0-0.0-1.17","null","<span style='color:GreenYellow; font-size: 70px;'>正确! </span>","null","","","","","","","","","","","","","","","","","","","","","","","feedback_test"
"","","","","","psychophysics","47","361778","0.0-7.0-0.0-0.18","789","","f","","","","","","","","","","","","","key","f","16.668301724137816","720","446","f","true","img/C_ambi40.png","三角","prac_image_first",""
"","","","","","html-keyboard-response","48","362087","0.0-7.0-0.0-1.18","null","<span style='color:GreenYellow; font-size: 70px;'>正确! </span>","null","","","","","","","","","","","","","","","","","","","","","","","feedback_test"
"","","","","","psychophysics","49","364231","0.0-7.0-0.0-0.19","989","","f","","","","","","","","","","","","","key","f","16.666000000000167","720","446","f","true","img/C_ambi40.png","方形","prac_image_first",""
"","","","","","html-keyboard-response","50","364539","0.0-7.0-0.0-1.19","null","<span style='color:GreenYellow; font-size: 70px;'>正确! </span>","null","","","","","","","","","","","","","","","","","","","","","","","feedback_test"
"","","","","","psychophysics","51","366603","0.0-7.0-0.0-0.20","911","","j","","","","","","","","","","","","","key","j","16.665999999999823","720","446","f","false","img/S_ambi40.png","三角","prac_image_first",""
"","","","","","html-keyboard-response","52","366911","0.0-7.0-0.0-1.20","null","<span style='color:red; font-size: 70px;'>错误! </span>","null","","","","","","","","","","","","","","","","","","","","","","","feedback_test"
"","","","","","psychophysics","53","369065","0.0-7.0-0.0-0.21","999","","j","","","","","","","","","","","","","key","j","16.666000000000167","720","446","j","true","img/T_ambi40.png","三角","prac_image_first",""
"","","","","","html-keyboard-response","54","369373","0.0-7.0-0.0-1.21","null","<span style='color:GreenYellow; font-size: 70px;'>正确! </span>","null","","","","","","","","","","","","","","","","","","","","","","","feedback_test"
"","","","","","psychophysics","55","371353","0.0-7.0-0.0-0.22","829","","f","","","","","","","","","","","","","key","f","16.665999999999677","720","446","j","false","img/S_ambi40.png","方形","prac_image_first",""
"","","","","","html-keyboard-response","56","371663","0.0-7.0-0.0-1.22","null","<span style='color:red; font-size: 70px;'>错误! </span>","null","","","","","","","","","","","","","","","","","","","","","","","feedback_test"
"","","","","","psychophysics","57","373598","0.0-7.0-0.0-0.23","774","","j","","","","","","","","","","","","","key","j","16.666000000000224","720","446","j","true","img/T_ambi40.png","三角","prac_image_first",""
"","","","","","html-keyboard-response","58","373911","0.0-7.0-0.0-1.23","null","<span style='color:GreenYellow; font-size: 70px;'>正确! </span>","null","","","","","","","","","","","","","","","","","","","","","","","feedback_test"
"","","","","","html-keyboard-response","59","379842","0.0-7.0-1.0-0.0","5928","<style>.context{color:white; font-size: 35px; line-height:40px}</style>                            <div><p class='context'>您正确回答了42% 的试次。</p><p class='context'>您的平均反应时为864毫秒。</p>"," ","","","","","","","","","","","","","","","","","","","","","","",""
"","","","","","instructions","60","405295","0.0-7.0-1.0-1.0","25449","","","","","","","","","","","","","","[{""page_index"":0,""viewing_time"":3400},{""page_index"":1,""viewing_time"":18641},{""page_index"":2,""viewing_time"":3408}]","","","","","","","","","","",""
"","","","","","psychophysics","61","407808","0.0-7.1-0.1-0.24","1355","","f","","","","","","","","","","","","","key","f","16.665999999999766","720","446","f","true","img/S_ambi40.png","三角","prac_image_first",""
"","","","","","html-keyboard-response","62","408119","0.0-7.1-0.1-1.24","null","<span style='color:GreenYellow; font-size: 70px;'>正确! </span>","null","","","","","","","","","","","","","","","","","","","","","","","feedback_test"
"","","","","","psychophysics","63","409853","0.0-7.1-0.1-0.25","577","","j","","","","","","","","","","","","","key","j","16.665999999999983","720","446","j","true","img/S_ambi40.png","方形","prac_image_first",""
"","","","","","html-keyboard-response","64","410159","0.0-7.1-0.1-1.25","null","<span style='color:GreenYellow; font-size: 70px;'>正确! </span>","null","","","","","","","","","","","","","","","","","","","","","","","feedback_test"
"","","","","","psychophysics","65","412114","0.0-7.1-0.1-0.26","803","","f","","","","","","","","","","","","","key","f","16.665999999999947","720","446","f","true","img/T_ambi40.png","方形","prac_image_first",""
"","","","","","html-keyboard-response","66","412423","0.0-7.1-0.1-1.26","null","<span style='color:GreenYellow; font-size: 70px;'>正确! </span>","null","","","","","","","","","","","","","","","","","","","","","","","feedback_test"
"","","","","","psychophysics","67","414262","0.0-7.1-0.1-0.27","688","","f","","","","","","","","","","","","","key","f","16.66599999999984","720","446","f","true","img/C_ambi40.png","三角","prac_image_first",""
"","","","","","html-keyboard-response","68","414571","0.0-7.1-0.1-1.27","null","<span style='color:GreenYellow; font-size: 70px;'>正确! </span>","null","","","","","","","","","","","","","","","","","","","","","","","feedback_test"
"","","","","","psychophysics","69","416397","0.0-7.1-0.1-0.28","674","","j","","","","","","","","","","","","","key","j","16.666000000000377","720","446","j","true","img/T_ambi40.png","三角","prac_image_first",""
"","","","","","html-keyboard-response","70","416704","0.0-7.1-0.1-1.28","null","<span style='color:GreenYellow; font-size: 70px;'>正确! </span>","null","","","","","","","","","","","","","","","","","","","","","","","feedback_test"
"","","","","","psychophysics","71","418419","0.0-7.1-0.1-0.29","562","","j","","","","","","","","","","","","","key","j","16.665999999999723","720","446","j","true","img/C_ambi40.png","圆形","prac_image_first",""
"","","","","","html-keyboard-response","72","418725","0.0-7.1-0.1-1.29","null","<span style='color:GreenYellow; font-size: 70px;'>正确! </span>","null","","","","","","","","","","","","","","","","","","","","","","","feedback_test"
"","","","","","psychophysics","73","420500","0.0-7.1-0.1-0.30","622","","f","","","","","","","","","","","","","key","f","16.670990476190735","720","446","f","true","img/S_ambi40.png","圆形","prac_image_first",""
"","","","","","html-keyboard-response","74","420816","0.0-7.1-0.1-1.30","null","<span style='color:GreenYellow; font-size: 70px;'>正确! </span>","null","","","","","","","","","","","","","","","","","","","","","","","feedback_test"
"","","","","","psychophysics","75","422711","0.0-7.1-0.1-0.31","737","","f","","","","","","","","","","","","","key","f","16.665999999999755","720","446","f","true","img/T_ambi40.png","圆形","prac_image_first",""
"","","","","","html-keyboard-response","76","423021","0.0-7.1-0.1-1.31","null","<span style='color:GreenYellow; font-size: 70px;'>正确! </span>","null","","","","","","","","","","","","","","","","","","","","","","","feedback_test"
"","","","","","psychophysics","77","424911","0.0-7.1-0.1-0.32","736","","j","","","","","","","","","","","","","key","j","16.66600000000027","720","446","f","false","img/C_ambi40.png","方形","prac_image_first",""
"","","","","","html-keyboard-response","78","425224","0.0-7.1-0.1-1.32","null","<span style='color:red; font-size: 70px;'>错误! </span>","null","","","","","","","","","","","","","","","","","","","","","","","feedback_test"
"","","","","","psychophysics","79","427089","0.0-7.1-0.1-0.33","713","","f","","","","","","","","","","","","","key","f","16.666000000000086","720","446","j","false","img/C_ambi40.png","圆形","prac_image_first",""
"","","","","","html-keyboard-response","80","427400","0.0-7.1-0.1-1.33","null","<span style='color:red; font-size: 70px;'>错误! </span>","null","","","","","","","","","","","","","","","","","","","","","","","feedback_test"
"","","","","","psychophysics","81","429296","0.0-7.1-0.1-0.34","738","","j","","","","","","","","","","","","","key","j","16.665999999999755","720","446","j","true","img/T_ambi40.png","三角","prac_image_first",""
"","","","","","html-keyboard-response","82","429606","0.0-7.1-0.1-1.34","null","<span style='color:GreenYellow; font-size: 70px;'>正确! </span>","null","","","","","","","","","","","","","","","","","","","","","","","feedback_test"
"","","","","","psychophysics","83","431645","0.0-7.1-0.1-0.35","887","","f","","","","","","","","","","","","","key","f","16.666000000000086","720","446","j","false","img/S_ambi40.png","方形","prac_image_first",""
"","","","","","html-keyboard-response","84","431951","0.0-7.1-0.1-1.35","null","<span style='color:red; font-size: 70px;'>错误! </span>","null","","","","","","","","","","","","","","","","","","","","","","","feedback_test"
"","","","","","psychophysics","85","433903","0.0-7.1-0.1-0.36","795","","f","","","","","","","","","","","","","key","f","16.665999999999947","720","446","f","true","img/S_ambi40.png","三角","prac_image_first",""
"","","","","","html-keyboard-response","86","434212","0.0-7.1-0.1-1.36","null","<span style='color:GreenYellow; font-size: 70px;'>正确! </span>","null","","","","","","","","","","","","","","","","","","","","","","","feedback_test"
"","","","","","psychophysics","87","436194","0.0-7.1-0.1-0.37","820","","f","","","","","","","","","","","","","key","f","16.665999999999904","720","446","f","true","img/S_ambi40.png","圆形","prac_image_first",""
"","","","","","html-keyboard-response","88","436500","0.0-7.1-0.1-1.37","null","<span style='color:GreenYellow; font-size: 70px;'>正确! </span>","null","","","","","","","","","","","","","","","","","","","","","","","feedback_test"
"","","","","","psychophysics","89","438593","0.0-7.1-0.1-0.38","935","","f","","","","","","","","","","","","","key","f","16.666","720","446","f","true","img/T_ambi40.png","方形","prac_image_first",""
"","","","","","html-keyboard-response","90","438902","0.0-7.1-0.1-1.38","null","<span style='color:GreenYellow; font-size: 70px;'>正确! </span>","null","","","","","","","","","","","","","","","","","","","","","","","feedback_test"
"","","","","","psychophysics","91","440620","0.0-7.1-0.1-0.39","563","","j","","","","","","","","","","","","","key","j","16.671137254902014","720","446","j","true","img/C_ambi40.png","圆形","prac_image_first",""
"","","","","","html-keyboard-response","92","440928","0.0-7.1-0.1-1.39","null","<span style='color:GreenYellow; font-size: 70px;'>正确! </span>","null","","","","","","","","","","","","","","","","","","","","","","","feedback_test"
"","","","","","psychophysics","93","442724","0.0-7.1-0.1-0.40","641","","j","","","","","","","","","","","","","key","j","16.665999999999887","720","446","j","true","img/T_ambi40.png","三角","prac_image_first",""
"","","","","","html-keyboard-response","94","443027","0.0-7.1-0.1-1.40","null","<span style='color:GreenYellow; font-size: 70px;'>正确! </span>","null","","","","","","","","","","","","","","","","","","","","","","","feedback_test"
"","","","","","psychophysics","95","444800","0.0-7.1-0.1-0.41","619","","j","","","","","","","","","","","","","key","j","16.665999999999933","720","446","j","true","img/T_ambi40.png","三角","prac_image_first",""
"","","","","","html-keyboard-response","96","445108","0.0-7.1-0.1-1.41","null","<span style='color:GreenYellow; font-size: 70px;'>正确! </span>","null","","","","","","","","","","","","","","","","","","","","","","","feedback_test"
"","","","","","psychophysics","97","447324","0.0-7.1-0.1-0.42","1063","","f","","","","","","","","","","","","","key","f","16.666000000000327","720","446","f","true","img/C_ambi40.png","方形","prac_image_first",""
"","","","","","html-keyboard-response","98","447628","0.0-7.1-0.1-1.42","null","<span style='color:GreenYellow; font-size: 70px;'>正确! </span>","null","","","","","","","","","","","","","","","","","","","","","","","feedback_test"
"","","","","","psychophysics","99","449693","0.0-7.1-0.1-0.43","902","","f","","","","","","","","","","","","","key","f","16.666000000000043","720","446","j","false","img/S_ambi40.png","方形","prac_image_first",""
"","","","","","html-keyboard-response","100","449995","0.0-7.1-0.1-1.43","null","<span style='color:red; font-size: 70px;'>错误! </span>","null","","","","","","","","","","","","","","","","","","","","","","","feedback_test"
"","","","","","psychophysics","101","451808","0.0-7.1-0.1-0.44","661","","f","","","","","","","","","","","","","key","f","16.668495327102622","720","446","f","true","img/T_ambi40.png","圆形","prac_image_first",""
"","","","","","html-keyboard-response","102","452120","0.0-7.1-0.1-1.44","null","<span style='color:GreenYellow; font-size: 70px;'>正确! </span>","null","","","","","","","","","","","","","","","","","","","","","","","feedback_test"
"","","","","","psychophysics","103","453980","0.0-7.1-0.1-0.45","705","","f","","","","","","","","","","","","","key","f","16.665999999999798","720","446","f","true","img/C_ambi40.png","三角","prac_image_first",""
"","","","","","html-keyboard-response","104","454284","0.0-7.1-0.1-1.45","null","<span style='color:GreenYellow; font-size: 70px;'>正确! </span>","null","","","","","","","","","","","","","","","","","","","","","","","feedback_test"
"","","","","","psychophysics","105","456095","0.0-7.1-0.1-0.46","654","","j","","","","","","","","","","","","","key","j","16.665999999999595","720","446","j","true","img/C_ambi40.png","圆形","prac_image_first",""
"","","","","","html-keyboard-response","106","456399","0.0-7.1-0.1-1.46","null","<span style='color:GreenYellow; font-size: 70px;'>正确! </span>","null","","","","","","","","","","","","","","","","","","","","","","","feedback_test"
"","","","","","psychophysics","107","458955","0.0-7.1-0.1-0.47","1398","","j","","","","","","","","","","","","","key","j","16.665999999999737","720","446","j","true","img/S_ambi40.png","方形","prac_image_first",""
"","","","","","html-keyboard-response","108","459264","0.0-7.1-0.1-1.47","null","<span style='color:GreenYellow; font-size: 70px;'>正确! </span>","null","","","","","","","","","","","","","","","","","","","","","","","feedback_test"
"","","","","","html-keyboard-response","109","464971","0.0-8.0","5704","<style>.context{color:white; font-size: 35px; line-height:40px}</style>                            <div><p class='context'>您正确回答了83% 的试次。</p><p class='context'>您的平均反应时为781毫秒。</p><p class='context'>恭喜您完成这一阶段的练习。按任意键进入<span style='color: yellow;'>先文字后图形条件</span>的练习。</p></div>"," ","","","","","","","","","","","","","","","","","","","","","","",""
"","","","","","psychophysics","110","467627","0.0-9.0-0.0-0.0","null","","null","","","","","","","","","","","","","key","null","16.66846540880517","720","446","j","false","img/C_ambi40.png","圆形","prac_word_first",""
"","","","","","html-keyboard-response","111","467933","0.0-9.0-0.0-1.0","null","<span class='add_' style='color:yellow; font-size: 70px;'> 太慢! </span>","null","","","","","","","","","","","","","","","","","","","","","","","feedback_test"
"","","","","","psychophysics","112","470593","0.0-9.0-0.0-0.1","null","","null","","","","","","","","","","","","","key","null","16.666000000000185","720","446","f","false","img/C_ambi40.png","方形","prac_word_first",""
"","","","","","html-keyboard-response","113","470903","0.0-9.0-0.0-1.1","null","<span class='add_' style='color:yellow; font-size: 70px;'> 太慢! </span>","null","","","","","","","","","","","","","","","","","","","","","","","feedback_test"
"","","","","","psychophysics","114","472792","0.0-9.0-0.0-0.2","735","","f","","","","","","","","","","","","","key","f","16.66600000000027","720","446","j","false","img/S_ambi40.png","方形","prac_word_first",""
"","","","","","html-keyboard-response","115","473100","0.0-9.0-0.0-1.2","null","<span style='color:red; font-size: 70px;'>错误! </span>","null","","","","","","","","","","","","","","","","","","","","","","","feedback_test"
"","","","","","psychophysics","116","475332","0.0-9.0-0.0-0.3","1079","","j","","","","","","","","","","","","","key","j","16.665999999999848","720","446","f","false","img/S_ambi40.png","三角","prac_word_first",""
"","","","","","html-keyboard-response","117","475637","0.0-9.0-0.0-1.3","null","<span style='color:red; font-size: 70px;'>错误! </span>","null","","","","","","","","","","","","","","","","","","","","","","","feedback_test"
"","","","","","psychophysics","118","477614","0.0-9.0-0.0-0.4","822","","j","","","","","","","","","","","","","key","j","16.665999999999904","720","446","j","true","img/T_ambi40.png","三角","prac_word_first",""
"","","","","","html-keyboard-response","119","477921","0.0-9.0-0.0-1.4","null","<span style='color:GreenYellow; font-size: 70px;'>正确! </span>","null","","","","","","","","","","","","","","","","","","","","","","","feedback_test"
"","","","","","psychophysics","120","480112","0.0-9.0-0.0-0.5","1038","","f","","","","","","","","","","","","","key","f","16.665999999999883","720","446","f","true","img/T_ambi40.png","圆形","prac_word_first",""
"","","","","","html-keyboard-response","121","480422","0.0-9.0-0.0-1.5","null","<span style='color:GreenYellow; font-size: 70px;'>正确! </span>","null","","","","","","","","","","","","","","","","","","","","","","","feedback_test"
"","","","","","psychophysics","122","482276","0.0-9.0-0.0-0.6","701","","f","","","","","","","","","","","","","key","f","16.666000000000086","720","446","f","true","img/S_ambi40.png","圆形","prac_word_first",""
"","","","","","html-keyboard-response","123","482585","0.0-9.0-0.0-1.6","null","<span style='color:GreenYellow; font-size: 70px;'>正确! </span>","null","","","","","","","","","","","","","","","","","","","","","","","feedback_test"
"","","","","","psychophysics","124","484365","0.0-9.0-0.0-0.7","625","","j","","","","","","","","","","","","","key","j","16.666000000000185","720","446","j","true","img/T_ambi40.png","三角","prac_word_first",""
"","","","","","html-keyboard-response","125","484669","0.0-9.0-0.0-1.7","null","<span style='color:GreenYellow; font-size: 70px;'>正确! </span>","null","","","","","","","","","","","","","","","","","","","","","","","feedback_test"
"","","","","","psychophysics","126","486467","0.0-9.0-0.0-0.8","643","","f","","","","","","","","","","","","","key","f","16.670897196261887","720","446","f","true","img/C_ambi40.png","三角","prac_word_first",""
"","","","","","html-keyboard-response","127","486774","0.0-9.0-0.0-1.8","null","<span style='color:GreenYellow; font-size: 70px;'>正确! </span>","null","","","","","","","","","","","","","","","","","","","","","","","feedback_test"
"","","","","","psychophysics","128","488711","0.0-9.0-0.0-0.9","785","","f","","","","","","","","","","","","","key","f","16.665999999999716","720","446","j","false","img/S_ambi40.png","方形","prac_word_first",""
"","","","","","html-keyboard-response","129","489017","0.0-9.0-0.0-1.9","null","<span style='color:red; font-size: 70px;'>错误! </span>","null","","","","","","","","","","","","","","","","","","","","","","","feedback_test"
"","","","","","psychophysics","130","490868","0.0-9.0-0.0-0.10","692","","j","","","","","","","","","","","","","key","j","16.666000000000086","720","446","j","true","img/C_ambi40.png","圆形","prac_word_first",""
"","","","","","html-keyboard-response","131","491176","0.0-9.0-0.0-1.10","null","<span style='color:GreenYellow; font-size: 70px;'>正确! </span>","null","","","","","","","","","","","","","","","","","","","","","","","feedback_test"
"","","","","","psychophysics","132","493193","0.0-9.0-0.0-0.11","866","","f","","","","","","","","","","","","","key","f","16.665999999999865","720","446","f","true","img/T_ambi40.png","方形","prac_word_first",""
"","","","","","html-keyboard-response","133","493505","0.0-9.0-0.0-1.11","null","<span style='color:GreenYellow; font-size: 70px;'>正确! </span>","null","","","","","","","","","","","","","","","","","","","","","","","feedback_test"
"","","","","","psychophysics","134","495298","0.0-9.0-0.0-0.12","640","","f","","","","","","","","","","","","","key","f","16.665999999999887","720","446","f","true","img/C_ambi40.png","三角","prac_word_first",""
"","","","","","html-keyboard-response","135","495609","0.0-9.0-0.0-1.12","null","<span style='color:GreenYellow; font-size: 70px;'>正确! </span>","null","","","","","","","","","","","","","","","","","","","","","","","feedback_test"
"","","","","","psychophysics","136","497759","0.0-9.0-0.0-0.13","994","","j","","","","","","","","","","","","","key","j","16.666000000000167","720","446","f","false","img/S_ambi40.png","三角","prac_word_first",""
"","","","","","html-keyboard-response","137","498071","0.0-9.0-0.0-1.13","null","<span style='color:red; font-size: 70px;'>错误! </span>","null","","","","","","","","","","","","","","","","","","","","","","","feedback_test"
"","","","","","psychophysics","138","500005","0.0-9.0-0.0-0.14","777","","f","","","","","","","","","","","","","key","f","16.666000000000224","720","446","f","true","img/S_ambi40.png","圆形","prac_word_first",""
"","","","","","html-keyboard-response","139","500309","0.0-9.0-0.0-1.14","null","<span style='color:GreenYellow; font-size: 70px;'>正确! </span>","null","","","","","","","","","","","","","","","","","","","","","","","feedback_test"
"","","","","","psychophysics","140","502037","0.0-9.0-0.0-0.15","577","","j","","","","","","","","","","","","","key","j","16.665999999999723","720","446","j","true","img/C_ambi40.png","圆形","prac_word_first",""
"","","","","","html-keyboard-response","141","502345","0.0-9.0-0.0-1.15","null","<span style='color:GreenYellow; font-size: 70px;'>正确! </span>","null","","","","","","","","","","","","","","","","","","","","","","","feedback_test"
"","","","","","psychophysics","142","504224","0.0-9.0-0.0-0.16","723","","f","","","","","","","","","","","","","key","f","16.665999999999798","720","446","j","false","img/S_ambi40.png","方形","prac_word_first",""
"","","","","","html-keyboard-response","143","504534","0.0-9.0-0.0-1.16","null","<span style='color:red; font-size: 70px;'>错误! </span>","null","","","","","","","","","","","","","","","","","","","","","","","feedback_test"
"","","","","","psychophysics","144","506718","0.0-9.0-0.0-0.17","1026","","f","","","","","","","","","","","","","key","f","16.67003076923071","720","446","f","true","img/T_ambi40.png","方形","prac_word_first",""
"","","","","","html-keyboard-response","145","507024","0.0-9.0-0.0-1.17","null","<span style='color:GreenYellow; font-size: 70px;'>正确! </span>","null","","","","","","","","","","","","","","","","","","","","","","","feedback_test"
"","","","","","psychophysics","146","508765","0.0-9.0-0.0-0.18","589","","j","","","","","","","","","","","","","key","j","16.665999999999983","720","446","j","true","img/C_ambi40.png","圆形","prac_word_first",""
"","","","","","html-keyboard-response","147","509073","0.0-9.0-0.0-1.18","null","<span style='color:GreenYellow; font-size: 70px;'>正确! </span>","null","","","","","","","","","","","","","","","","","","","","","","","feedback_test"
"","","","","","psychophysics","148","510852","0.0-9.0-0.0-0.19","626","","f","","","","","","","","","","","","","key","f","16.665999999999933","720","446","j","false","img/S_ambi40.png","方形","prac_word_first",""
"","","","","","html-keyboard-response","149","511157","0.0-9.0-0.0-1.19","null","<span style='color:red; font-size: 70px;'>错误! </span>","null","","","","","","","","","","","","","","","","","","","","","","","feedback_test"
"","","","","","psychophysics","150","513267","0.0-9.0-0.0-0.20","958","","f","","","","","","","","","","","","","key","f","16.666","720","446","f","true","img/T_ambi40.png","圆形","prac_word_first",""
"","","","","","html-keyboard-response","151","513577","0.0-9.0-0.0-1.20","null","<span style='color:GreenYellow; font-size: 70px;'>正确! </span>","null","","","","","","","","","","","","","","","","","","","","","","","feedback_test"
"","","","","","psychophysics","152","515626","0.0-9.0-0.0-0.21","892","","f","","","","","","","","","","","","","key","f","16.665999999999823","720","446","f","true","img/C_ambi40.png","方形","prac_word_first",""
"","","","","","html-keyboard-response","153","515935","0.0-9.0-0.0-1.21","null","<span style='color:GreenYellow; font-size: 70px;'>正确! </span>","null","","","","","","","","","","","","","","","","","","","","","","","feedback_test"
"","","","","","psychophysics","154","517762","0.0-9.0-0.0-0.22","672","","j","","","","","","","","","","","","","key","j","16.66599999999984","720","446","j","true","img/T_ambi40.png","三角","prac_word_first",""
"","","","","","html-keyboard-response","155","518069","0.0-9.0-0.0-1.22","null","<span style='color:GreenYellow; font-size: 70px;'>正确! </span>","null","","","","","","","","","","","","","","","","","","","","","","","feedback_test"
"","","","","","psychophysics","156","519855","0.0-9.0-0.0-0.23","630","","j","","","","","","","","","","","","","key","j","16.666000000000185","720","446","j","true","img/T_ambi40.png","三角","prac_word_first",""
"","","","","","html-keyboard-response","157","520160","0.0-9.0-0.0-1.23","null","<span style='color:GreenYellow; font-size: 70px;'>正确! </span>","null","","","","","","","","","","","","","","","","","","","","","","","feedback_test"
"","","","","","html-keyboard-response","158","522287","0.0-10.0","2124","<style>.context{color:white; font-size: 35px; line-height:40px}</style>                            <div><p class='context'>您正确回答了67% 的试次。</p><p class='context'>您的平均反应时为759毫秒。</p><p class='context'>恭喜您完成练习。按任意键进入<span style='color: yellow;'>图形和文字同时呈现条件</span>的练习。</p></div>"," ","","","","","","","","","","","","","","","","","","","","","","",""
"","","","","","psychophysics","159","524802","0.0-11.0-0.0-0.0","null","","null","","","","","","","","","","","","","key","null","16.665999999999766","720","446","f","false","img/T_ambi40.png","圆形","prac_simultaneous",""
"","","","","","html-keyboard-response","160","525114","0.0-11.0-0.0-1.0","null","<span class='add_' style='color:yellow; font-size: 70px;'> 太慢! </span>","null","","","","","","","","","","","","","","","","","","","","","","","feedback_test"
"","","","","","psychophysics","161","526984","0.0-11.0-0.0-0.1","863","","f","","","","","","","","","","","","","key","f","16.670738738738127","720","446","f","true","img/S_ambi40.png","圆形","prac_simultaneous",""
"","","","","","html-keyboard-response","162","527288","0.0-11.0-0.0-1.1","null","<span style='color:GreenYellow; font-size: 70px;'>正确! </span>","null","","","","","","","","","","","","","","","","","","","","","","","feedback_test"
"","","","","","psychophysics","163","529020","0.0-11.0-0.0-0.2","727","","f","","","","","","","","","","","","","key","f","16.665999999999983","720","446","j","false","img/S_ambi40.png","方形","prac_simultaneous",""
"","","","","","html-keyboard-response","164","529330","0.0-11.0-0.0-1.2","null","<span style='color:red; font-size: 70px;'>错误! </span>","null","","","","","","","","","","","","","","","","","","","","","","","feedback_test"
"","","","","","psychophysics","165","531108","0.0-11.0-0.0-0.3","772","","j","","","","","","","","","","","","","key","j","16.666000000000185","720","446","f","false","img/C_ambi40.png","方形","prac_simultaneous",""
"","","","","","html-keyboard-response","166","531425","0.0-11.0-0.0-1.3","null","<span style='color:red; font-size: 70px;'>错误! </span>","null","","","","","","","","","","","","","","","","","","","","","","","feedback_test"
"","","","","","psychophysics","167","533285","0.0-11.0-0.0-0.4","856","","f","","","","","","","","","","","","","key","f","16.666000000000086","720","446","j","false","img/S_ambi40.png","方形","prac_simultaneous",""
"","","","","","html-keyboard-response","168","533594","0.0-11.0-0.0-1.4","null","<span style='color:red; font-size: 70px;'>错误! </span>","null","","","","","","","","","","","","","","","","","","","","","","","feedback_test"
"","","","","","psychophysics","169","535804","0.0-11.0-0.0-0.5","1209","","j","","","","","","","","","","","","","key","j","16.66599999999944","720","446","j","true","img/C_ambi40.png","圆形","prac_simultaneous",""
"","","","","","html-keyboard-response","170","536114","0.0-11.0-0.0-1.5","null","<span style='color:GreenYellow; font-size: 70px;'>正确! </span>","null","","","","","","","","","","","","","","","","","","","","","","","feedback_test"
"","","","","","psychophysics","171","538377","0.0-11.0-0.0-0.6","1257","","f","","","","","","","","","","","","","key","f","16.66599999999938","720","446","f","true","img/C_ambi40.png","三角","prac_simultaneous",""
"","","","","","html-keyboard-response","172","538686","0.0-11.0-0.0-1.6","null","<span style='color:GreenYellow; font-size: 70px;'>正确! </span>","null","","","","","","","","","","","","","","","","","","","","","","","feedback_test"
"","","","","","psychophysics","173","540449","0.0-11.0-0.0-0.7","756","","j","","","","","","","","","","","","","key","j","16.66599999999938","720","446","j","true","img/C_ambi40.png","圆形","prac_simultaneous",""
"","","","","","html-keyboard-response","174","540762","0.0-11.0-0.0-1.7","null","<span style='color:GreenYellow; font-size: 70px;'>正确! </span>","null","","","","","","","","","","","","","","","","","","","","","","","feedback_test"
"","","","","","psychophysics","175","542843","0.0-11.0-0.0-0.8","1075","","f","","","","","","","","","","","","","key","f","16.66599999999932","720","446","f","true","img/T_ambi40.png","方形","prac_simultaneous",""
"","","","","","html-keyboard-response","176","543154","0.0-11.0-0.0-1.8","null","<span style='color:GreenYellow; font-size: 70px;'>正确! </span>","null","","","","","","","","","","","","","","","","","","","","","","","feedback_test"
"","","","","","psychophysics","177","545030","0.0-11.0-0.0-0.9","872","","f","","","","","","","","","","","","","key","f","16.666000000000558","720","446","f","true","img/S_ambi40.png","三角","prac_simultaneous",""
"","","","","","html-keyboard-response","178","545338","0.0-11.0-0.0-1.9","null","<span style='color:GreenYellow; font-size: 70px;'>正确! </span>","null","","","","","","","","","","","","","","","","","","","","","","","feedback_test"
"","","","","","psychophysics","179","547047","0.0-11.0-0.0-0.10","706","","j","","","","","","","","","","","","","key","j","16.671186274509903","720","446","j","true","img/T_ambi40.png","三角","prac_simultaneous",""
"","","","","","html-keyboard-response","180","547350","0.0-11.0-0.0-1.10","null","<span style='color:GreenYellow; font-size: 70px;'>正确! </span>","null","","","","","","","","","","","","","","","","","","","","","","","feedback_test"
"","","","","","psychophysics","181","549199","0.0-11.0-0.0-0.11","841","","j","","","","","","","","","","","","","key","j","16.666000000000086","720","446","j","true","img/T_ambi40.png","三角","prac_simultaneous",""
"","","","","","html-keyboard-response","182","549506","0.0-11.0-0.0-1.11","null","<span style='color:GreenYellow; font-size: 70px;'>正确! </span>","null","","","","","","","","","","","","","","","","","","","","","","","feedback_test"
"","","","","","psychophysics","183","551919","0.0-11.0-0.0-0.12","1410","","j","","","","","","","","","","","","","key","j","16.665999999999272","720","446","j","true","img/C_ambi40.png","圆形","prac_simultaneous",""
"","","","","","html-keyboard-response","184","552226","0.0-11.0-0.0-1.12","null","<span style='color:GreenYellow; font-size: 70px;'>正确! </span>","null","","","","","","","","","","","","","","","","","","","","","","","feedback_test"
"","","","","","psychophysics","185","554313","0.0-11.0-0.0-0.13","1083","","f","","","","","","","","","","","","","key","f","16.666000000000256","720","446","f","true","img/T_ambi40.png","方形","prac_simultaneous",""
"","","","","","html-keyboard-response","186","554618","0.0-11.0-0.0-1.13","null","<span style='color:GreenYellow; font-size: 70px;'>正确! </span>","null","","","","","","","","","","","","","","","","","","","","","","","feedback_test"
"","","","","","psychophysics","187","556421","0.0-11.0-0.0-0.14","799","","f","","","","","","","","","","","","","key","f","16.665999999999887","720","446","f","true","img/S_ambi40.png","三角","prac_simultaneous",""
"","","","","","html-keyboard-response","188","556727","0.0-11.0-0.0-1.14","null","<span style='color:GreenYellow; font-size: 70px;'>正确! </span>","null","","","","","","","","","","","","","","","","","","","","","","","feedback_test"
"","","","","","psychophysics","189","558431","0.0-11.0-0.0-0.15","694","","j","","","","","","","","","","","","","key","j","16.666000000000608","720","446","j","true","img/T_ambi40.png","三角","prac_simultaneous",""
"","","","","","html-keyboard-response","190","558738","0.0-11.0-0.0-1.15","null","<span style='color:GreenYellow; font-size: 70px;'>正确! </span>","null","","","","","","","","","","","","","","","","","","","","","","","feedback_test"
"","","","","","psychophysics","191","560581","0.0-11.0-0.0-0.16","839","","f","","","","","","","","","","","","","key","f","16.666000000000086","720","446","j","false","img/C_ambi40.png","圆形","prac_simultaneous",""
"","","","","","html-keyboard-response","192","560886","0.0-11.0-0.0-1.16","null","<span style='color:red; font-size: 70px;'>错误! </span>","null","","","","","","","","","","","","","","","","","","","","","","","feedback_test"
"","","","","","psychophysics","193","562900","0.0-11.0-0.0-0.17","1010","","f","","","","","","","","","","","","","key","f","16.66600000000035","720","446","j","false","img/S_ambi40.png","方形","prac_simultaneous",""
"","","","","","html-keyboard-response","194","563210","0.0-11.0-0.0-1.17","null","<span style='color:red; font-size: 70px;'>错误! </span>","null","","","","","","","","","","","","","","","","","","","","","","","feedback_test"
"","","","","","psychophysics","195","565216","0.0-11.0-0.0-0.18","1001","","f","","","","","","","","","","","","","key","f","16.66599999999964","720","446","f","true","img/T_ambi40.png","圆形","prac_simultaneous",""
"","","","","","html-keyboard-response","196","565520","0.0-11.0-0.0-1.18","null","<span style='color:GreenYellow; font-size: 70px;'>正确! </span>","null","","","","","","","","","","","","","","","","","","","","","","","feedback_test"
"","","","","","psychophysics","197","567326","0.0-11.0-0.0-0.19","801","","f","","","","","","","","","","","","","key","f","16.67088888888894","720","446","f","true","img/C_ambi40.png","三角","prac_simultaneous",""
"","","","","","html-keyboard-response","198","567633","0.0-11.0-0.0-1.19","null","<span style='color:GreenYellow; font-size: 70px;'>正确! </span>","null","","","","","","","","","","","","","","","","","","","","","","","feedback_test"
"","","","","","psychophysics","199","569684","0.0-11.0-0.0-0.20","1043","","j","","","","","","","","","","","","","key","j","16.665999999999823","720","446","f","false","img/S_ambi40.png","圆形","prac_simultaneous",""
"","","","","","html-keyboard-response","200","569990","0.0-11.0-0.0-1.20","null","<span style='color:red; font-size: 70px;'>错误! </span>","null","","","","","","","","","","","","","","","","","","","","","","","feedback_test"
"","","","","","psychophysics","201","572057","0.0-11.0-0.0-0.21","1066","","f","","","","","","","","","","","","","key","f","16.66600000000078","720","446","j","false","img/S_ambi40.png","方形","prac_simultaneous",""
"","","","","","html-keyboard-response","202","572370","0.0-11.0-0.0-1.21","null","<span style='color:red; font-size: 70px;'>错误! </span>","null","","","","","","","","","","","","","","","","","","","","","","","feedback_test"
"","","","","","psychophysics","203","574777","0.0-11.0-0.0-0.22","1402","","f","","","","","","","","","","","","","key","f","16.665999999999865","720","446","f","true","img/C_ambi40.png","方形","prac_simultaneous",""
"","","","","","html-keyboard-response","204","575089","0.0-11.0-0.0-1.22","null","<span style='color:GreenYellow; font-size: 70px;'>正确! </span>","null","","","","","","","","","","","","","","","","","","","","","","","feedback_test"
"","","","","","psychophysics","205","576815","0.0-11.0-0.0-0.23","722","","j","","","","","","","","","","","","","key","j","16.665999999999983","720","446","j","true","img/T_ambi40.png","三角","prac_simultaneous",""
"","","","","","html-keyboard-response","206","577122","0.0-11.0-0.0-1.23","null","<span style='color:GreenYellow; font-size: 70px;'>正确! </span>","null","","","","","","","","","","","","","","","","","","","","","","","feedback_test"
"","","","","","html-keyboard-response","207","582137","0.0-12.0","5010","<style>.context{color:white; font-size: 35px; line-height:40px}</style>                            <div><p class='context'>您正确回答了67% 的试次。</p><p class='context'>您的平均反应时为968毫秒。</p><p class='context'>恭喜您完成练习。按任意键进入正式实验。</p><p class='footer' style='font-size: 35px; line-height:40px;'>请在进入正式实验实验之前将您的<span style='color: lightgreen;'>食指</span>放在电脑键盘的相应键位上进行按键。</p>"," ","","","","","","","","","","","","","","","","","","","","","","",""
"","","","","","html-keyboard-response","208","583230","0.0-13.0-0.0-0.0","1088","
    <p>请您将手指放在按键上，准备进入呈现顺序为<span style='color: yellow;'>先图形后文字条件</span>的正式匹配任务</p>
    <p> <div style = ""color: green""><按任意键进入下一阶段的匹配任务></div></p>
    "," ","","","","","","","","","","","","","","","","","","","","","","",""
"","","","","","psychophysics","209","585891","0.0-13.0-0.0-1.0-0.0-0.0","null","","null","","","","","","","","","","","","","key","null","16.669316455696805","720","446","j","false","img/S_ambi40.png","方形","image_first",""
"","","","","","html-keyboard-response","210","586200","0.0-13.0-0.0-1.0-0.0-1.0","null","<span class='add_' style='color:yellow; font-size: 70px;'> 太慢! </span>","null","","","","","","","","","","","","","","","","","","","","","","","feedback_test"
"","","","","","psychophysics","211","588226","0.0-13.0-0.0-1.0-0.0-0.1","868","","j","","","","","","","","","","","","","key","j","16.666000000000086","720","446","j","true","img/T_ambi40.png","三角","image_first",""
"","","","","","html-keyboard-response","212","588536","0.0-13.0-0.0-1.0-0.0-1.1","null","<span style='color:GreenYellow; font-size: 70px;'>正确! </span>","null","","","","","","","","","","","","","","","","","","","","","","","feedback_test"
"","","","","","psychophysics","213","590347","0.0-13.0-0.0-1.0-0.0-0.2","657","","j","","","","","","","","","","","","","key","j","16.665999999999595","720","446","j","true","img/C_ambi40.png","圆形","image_first",""
"","","","","","html-keyboard-response","214","590651","0.0-13.0-0.0-1.0-0.0-1.2","null","<span style='color:GreenYellow; font-size: 70px;'>正确! </span>","null","","","","","","","","","","","","","","","","","","","","","","","feedback_test"
"","","","","","psychophysics","215","592490","0.0-13.0-0.0-1.0-0.0-0.3","682","","f","","","","","","","","","","","","","key","f","16.665999999999308","720","446","f","true","img/C_ambi40.png","三角","image_first",""
"","","","","","html-keyboard-response","216","592799","0.0-13.0-0.0-1.0-0.0-1.3","null","<span style='color:GreenYellow; font-size: 70px;'>正确! </span>","null","","","","","","","","","","","","","","","","","","","","","","","feedback_test"
"","","","","","psychophysics","217","594740","0.0-13.0-0.0-1.0-0.0-0.4","789","","f","","","","","","","","","","","","","key","f","16.665999999999716","720","446","f","true","img/C_ambi40.png","方形","image_first",""
"","","","","","html-keyboard-response","218","595048","0.0-13.0-0.0-1.0-0.0-1.4","null","<span style='color:GreenYellow; font-size: 70px;'>正确! </span>","null","","","","","","","","","","","","","","","","","","","","","","","feedback_test"
"","","","","","psychophysics","219","597058","0.0-13.0-0.0-1.0-0.0-0.5","852","","f","","","","","","","","","","","","","key","f","16.66600000000035","720","446","f","true","img/T_ambi40.png","圆形","image_first",""
"","","","","","html-keyboard-response","220","597366","0.0-13.0-0.0-1.0-0.0-1.5","null","<span style='color:GreenYellow; font-size: 70px;'>正确! </span>","null","","","","","","","","","","","","","","","","","","","","","","","feedback_test"
"","","","","","psychophysics","221","599117","0.0-13.0-0.0-1.0-0.0-0.6","599","","j","","","","","","","","","","","","","key","j","16.666000000000796","720","446","j","true","img/C_ambi40.png","圆形","image_first",""
"","","","","","html-keyboard-response","222","599425","0.0-13.0-0.0-1.0-0.0-1.6","null","<span style='color:GreenYellow; font-size: 70px;'>正确! </span>","null","","","","","","","","","","","","","","","","","","","","","","","feedback_test"
"","","","","","psychophysics","223","601256","0.0-13.0-0.0-1.0-0.0-0.7","679","","f","","","","","","","","","","","","","key","f","16.665999999999595","720","446","f","true","img/S_ambi40.png","三角","image_first",""
"","","","","","html-keyboard-response","224","601563","0.0-13.0-0.0-1.0-0.0-1.7","null","<span style='color:GreenYellow; font-size: 70px;'>正确! </span>","null","","","","","","","","","","","","","","","","","","","","","","","feedback_test"
"","","","","","psychophysics","225","603502","0.0-13.0-0.0-1.0-0.0-0.8","780","","f","","","","","","","","","","","","","key","f","16.665999999999716","720","446","f","true","img/S_ambi40.png","圆形","image_first",""
"","","","","","html-keyboard-response","226","603811","0.0-13.0-0.0-1.0-0.0-1.8","null","<span style='color:GreenYellow; font-size: 70px;'>正确! </span>","null","","","","","","","","","","","","","","","","","","","","","","","feedback_test"
"","","","","","psychophysics","227","605621","0.0-13.0-0.0-1.0-0.0-0.9","654","","j","","","","","","","","","","","","","key","j","16.666000000000974","720","446","j","true","img/T_ambi40.png","三角","image_first",""
"","","","","","html-keyboard-response","228","605931","0.0-13.0-0.0-1.0-0.0-1.9","null","<span style='color:GreenYellow; font-size: 70px;'>正确! </span>","null","","","","","","","","","","","","","","","","","","","","","","","feedback_test"
"","","","","","psychophysics","229","608058","0.0-13.0-0.0-1.0-0.0-0.10","970","","f","","","","","","","","","","","","","key","f","16.666000000000672","720","446","f","true","img/T_ambi40.png","方形","image_first",""
"","","","","","html-keyboard-response","230","608369","0.0-13.0-0.0-1.0-0.0-1.10","null","<span style='color:GreenYellow; font-size: 70px;'>正确! </span>","null","","","","","","","","","","","","","","","","","","","","","","","feedback_test"
"","","","","","psychophysics","231","610519","0.0-13.0-0.0-1.0-0.0-0.11","995","","f","","","","","","","","","","","","","key","f","16.666000000000167","720","446","j","false","img/S_ambi40.png","方形","image_first",""
"","","","","","html-keyboard-response","232","610827","0.0-13.0-0.0-1.0-0.0-1.11","null","<span style='color:red; font-size: 70px;'>错误! </span>","null","","","","","","","","","","","","","","","","","","","","","","","feedback_test"
"","","","","","psychophysics","233","612965","0.0-13.0-0.0-1.0-0.0-0.12","981","","f","","","","","","","","","","","","","key","f","16.66600000000042","720","446","f","true","img/S_ambi40.png","三角","image_first",""
"","","","","","html-keyboard-response","234","613275","0.0-13.0-0.0-1.0-0.0-1.12","null","<span style='color:GreenYellow; font-size: 70px;'>正确! </span>","null","","","","","","","","","","","","","","","","","","","","","","","feedback_test"
"","","","","","psychophysics","235","615028","0.0-13.0-0.0-1.0-0.0-0.13","602","","j","","","","","","","","","","","","","key","j","16.665999999999677","720","446","j","true","img/C_ambi40.png","圆形","image_first",""
"","","","","","html-keyboard-response","236","615339","0.0-13.0-0.0-1.0-0.0-1.13","null","<span style='color:GreenYellow; font-size: 70px;'>正确! </span>","null","","","","","","","","","","","","","","","","","","","","","","","feedback_test"
"","","","","","psychophysics","237","617372","0.0-13.0-0.0-1.0-0.0-0.14","879","","f","","","","","","","","","","","","","key","f","16.66600000000035","720","446","f","true","img/T_ambi40.png","方形","image_first",""
"","","","","","html-keyboard-response","238","617683","0.0-13.0-0.0-1.0-0.0-1.14","null","<span style='color:GreenYellow; font-size: 70px;'>正确! </span>","null","","","","","","","","","","","","","","","","","","","","","","","feedback_test"
"","","","","","psychophysics","239","619663","0.0-13.0-0.0-1.0-0.0-0.15","824","","f","","","","","","","","","","","","","key","f","16.665999999999904","720","446","f","true","img/S_ambi40.png","圆形","image_first",""
"","","","","","html-keyboard-response","240","619971","0.0-13.0-0.0-1.0-0.0-1.15","null","<span style='color:GreenYellow; font-size: 70px;'>正确! </span>","null","","","","","","","","","","","","","","","","","","","","","","","feedback_test"
"","","","","","psychophysics","241","621781","0.0-13.0-0.0-1.0-0.0-0.16","656","","j","","","","","","","","","","","","","key","j","16.666000000000672","720","446","j","true","img/C_ambi40.png","圆形","image_first",""
"","","","","","html-keyboard-response","242","622091","0.0-13.0-0.0-1.0-0.0-1.16","null","<span style='color:GreenYellow; font-size: 70px;'>正确! </span>","null","","","","","","","","","","","","","","","","","","","","","","","feedback_test"
"","","","","","psychophysics","243","624200","0.0-13.0-0.0-1.0-0.0-0.17","958","","f","","","","","","","","","","","","","key","f","16.666","720","446","j","false","img/S_ambi40.png","方形","image_first",""
"","","","","","html-keyboard-response","244","624503","0.0-13.0-0.0-1.0-0.0-1.17","null","<span style='color:red; font-size: 70px;'>错误! </span>","null","","","","","","","","","","","","","","","","","","","","","","","feedback_test"
"","","","","","psychophysics","245","626711","0.0-13.0-0.0-1.0-0.0-0.18","1052","","j","","","","","","","","","","","","","key","j","16.669962121212546","720","446","j","true","img/T_ambi40.png","三角","image_first",""
"","","","","","html-keyboard-response","246","627014","0.0-13.0-0.0-1.0-0.0-1.18","null","<span style='color:GreenYellow; font-size: 70px;'>正确! </span>","null","","","","","","","","","","","","","","","","","","","","","","","feedback_test"
"","","","","","psychophysics","247","628950","0.0-13.0-0.0-1.0-0.0-0.19","782","","j","","","","","","","","","","","","","key","j","16.665999999999716","720","446","j","true","img/S_ambi40.png","方形","image_first",""
"","","","","","html-keyboard-response","248","629256","0.0-13.0-0.0-1.0-0.0-1.19","null","<span style='color:GreenYellow; font-size: 70px;'>正确! </span>","null","","","","","","","","","","","","","","","","","","","","","","","feedback_test"
"","","","","","psychophysics","249","631245","0.0-13.0-0.0-1.0-0.0-0.20","836","","f","","","","","","","","","","","","","key","f","16.665999999999904","720","446","f","true","img/C_ambi40.png","三角","image_first",""
"","","","","","html-keyboard-response","250","631555","0.0-13.0-0.0-1.0-0.0-1.20","null","<span style='color:GreenYellow; font-size: 70px;'>正确! </span>","null","","","","","","","","","","","","","","","","","","","","","","","feedback_test"
"","","","","","psychophysics","251","633372","0.0-13.0-0.0-1.0-0.0-0.21","663","","j","","","","","","","","","","","","","key","j","16.665999999999595","720","446","j","true","img/T_ambi40.png","三角","image_first",""
"","","","","","html-keyboard-response","252","633683","0.0-13.0-0.0-1.0-0.0-1.21","null","<span style='color:GreenYellow; font-size: 70px;'>正确! </span>","null","","","","","","","","","","","","","","","","","","","","","","","feedback_test"
"","","","","","psychophysics","253","635748","0.0-13.0-0.0-1.0-0.0-0.22","907","","f","","","","","","","","","","","","","key","f","16.665999999999567","720","446","f","true","img/C_ambi40.png","方形","image_first",""
"","","","","","html-keyboard-response","254","636055","0.0-13.0-0.0-1.0-0.0-1.22","null","<span style='color:GreenYellow; font-size: 70px;'>正确! </span>","null","","","","","","","","","","","","","","","","","","","","","","","feedback_test"
"","","","","","psychophysics","255","638026","0.0-13.0-0.0-1.0-0.0-0.23","818","","f","","","","","","","","","","","","","key","f","16.665999999999904","720","446","f","true","img/T_ambi40.png","圆形","image_first",""
"","","","","","html-keyboard-response","256","638339","0.0-13.0-0.0-1.0-0.0-1.23","null","<span style='color:GreenYellow; font-size: 70px;'>正确! </span>","null","","","","","","","","","","","","","","","","","","","","","","","feedback_test"
"","","","","","psychophysics","257","640113","0.0-13.0-0.0-1.0-0.0-0.24","621","","j","","","","","","","","","","","","","key","j","16.66599999999938","720","446","j","true","img/T_ambi40.png","三角","image_first",""
"","","","","","html-keyboard-response","258","640415","0.0-13.0-0.0-1.0-0.0-1.24","null","<span style='color:GreenYellow; font-size: 70px;'>正确! </span>","null","","","","","","","","","","","","","","","","","","","","","","","feedback_test"
"","","","","","psychophysics","259","642327","0.0-13.0-0.0-1.0-0.0-0.25","759","","f","","","","","","","","","","","","","key","f","16.665999999999993","720","446","f","true","img/S_ambi40.png","圆形","image_first",""
"","","","","","html-keyboard-response","260","642635","0.0-13.0-0.0-1.0-0.0-1.25","null","<span style='color:GreenYellow; font-size: 70px;'>正确! </span>","null","","","","","","","","","","","","","","","","","","","","","","","feedback_test"
"","","","","","psychophysics","261","644694","0.0-13.0-0.0-1.0-0.0-0.26","904","","f","","","","","","","","","","","","","key","f","16.665999999999567","720","446","j","false","img/S_ambi40.png","方形","image_first",""
"","","","","","html-keyboard-response","262","644998","0.0-13.0-0.0-1.0-0.0-1.26","null","<span style='color:red; font-size: 70px;'>错误! </span>","null","","","","","","","","","","","","","","","","","","","","","","","feedback_test"
"","","","","","psychophysics","263","646860","0.0-13.0-0.0-1.0-0.0-0.27","706","","f","","","","","","","","","","","","","key","f","16.67072072072135","720","446","f","true","img/T_ambi40.png","方形","image_first",""
"","","","","","html-keyboard-response","264","647172","0.0-13.0-0.0-1.0-0.0-1.27","null","<span style='color:GreenYellow; font-size: 70px;'>正确! </span>","null","","","","","","","","","","","","","","","","","","","","","","","feedback_test"
"","","","","","psychophysics","265","649134","0.0-13.0-0.0-1.0-0.0-0.28","809","","f","","","","","","","","","","","","","key","f","16.666000000000174","720","446","f","true","img/S_ambi40.png","三角","image_first",""
"","","","","","html-keyboard-response","266","649441","0.0-13.0-0.0-1.0-0.0-1.28","null","<span style='color:GreenYellow; font-size: 70px;'>正确! </span>","null","","","","","","","","","","","","","","","","","","","","","","","feedback_test"
"","","","","","psychophysics","267","651326","0.0-13.0-0.0-1.0-0.0-0.29","734","","f","","","","","","","","","","","","","key","f","16.666000000000558","720","446","f","true","img/C_ambi40.png","三角","image_first",""
"","","","","","html-keyboard-response","268","651636","0.0-13.0-0.0-1.0-0.0-1.29","null","<span style='color:GreenYellow; font-size: 70px;'>正确! </span>","null","","","","","","","","","","","","","","","","","","","","","","","feedback_test"
"","","","","","psychophysics","269","654087","0.0-13.0-0.0-1.0-0.0-0.30","1295","","f","","","","","","","","","","","","","key","f","16.66600000000023","720","446","f","true","img/C_ambi40.png","方形","image_first",""
"","","","","","html-keyboard-response","270","654398","0.0-13.0-0.0-1.0-0.0-1.30","null","<span style='color:GreenYellow; font-size: 70px;'>正确! </span>","null","","","","","","","","","","","","","","","","","","","","","","","feedback_test"
"","","","","","psychophysics","271","656311","0.0-13.0-0.0-1.0-0.0-0.31","751","","f","","","","","","","","","","","","","key","f","16.66600000000027","720","446","f","true","img/T_ambi40.png","圆形","image_first",""
"","","","","","html-keyboard-response","272","656613","0.0-13.0-0.0-1.0-0.0-1.31","null","<span style='color:GreenYellow; font-size: 70px;'>正确! </span>","null","","","","","","","","","","","","","","","","","","","","","","","feedback_test"
"","","","","","psychophysics","273","658428","0.0-13.0-0.0-1.0-0.0-0.32","661","","j","","","","","","","","","","","","","key","j","16.665999999999887","720","446","j","true","img/C_ambi40.png","圆形","image_first",""
"","","","","","html-keyboard-response","274","658737","0.0-13.0-0.0-1.0-0.0-1.32","null","<span style='color:GreenYellow; font-size: 70px;'>正确! </span>","null","","","","","","","","","","","","","","","","","","","","","","","feedback_test"
"","","","","","psychophysics","275","661060","0.0-13.0-0.0-1.0-0.0-0.33","1162","","j","","","","","","","","","","","","","key","j","16.66599999999955","720","446","j","true","img/S_ambi40.png","方形","image_first",""
"","","","","","html-keyboard-response","276","661367","0.0-13.0-0.0-1.0-0.0-1.33","null","<span style='color:GreenYellow; font-size: 70px;'>正确! </span>","null","","","","","","","","","","","","","","","","","","","","","","","feedback_test"
"","","","","","psychophysics","277","663137","0.0-13.0-0.0-1.0-0.0-0.34","616","","j","","","","","","","","","","","","","key","j","16.66599999999938","720","446","j","true","img/C_ambi40.png","圆形","image_first",""
"","","","","","html-keyboard-response","278","663444","0.0-13.0-0.0-1.0-0.0-1.34","null","<span style='color:GreenYellow; font-size: 70px;'>正确! </span>","null","","","","","","","","","","","","","","","","","","","","","","","feedback_test"
"","","","","","psychophysics","279","665328","0.0-13.0-0.0-1.0-0.0-0.35","730","","j","","","","","","","","","","","","","key","j","16.666000000000558","720","446","j","true","img/T_ambi40.png","三角","image_first",""
"","","","","","html-keyboard-response","280","665629","0.0-13.0-0.0-1.0-0.0-1.35","null","<span style='color:GreenYellow; font-size: 70px;'>正确! </span>","null","","","","","","","","","","","","","","","","","","","","","","","feedback_test"
"","","","","","psychophysics","281","667315","0.0-13.0-0.0-1.0-0.0-0.36","533","","f","","","","","","","","","","","","","key","f","16.671230000000214","720","446","f","true","img/C_ambi40.png","三角","image_first",""
"","","","","","html-keyboard-response","282","667626","0.0-13.0-0.0-1.0-0.0-1.36","null","<span style='color:GreenYellow; font-size: 70px;'>正确! </span>","null","","","","","","","","","","","","","","","","","","","","","","","feedback_test"
"","","","","","psychophysics","283","669326","0.0-13.0-0.0-1.0-0.0-0.37","540","","j","","","","","","","","","","","","","key","j","16.666000000000608","720","446","j","true","img/C_ambi40.png","圆形","image_first",""
"","","","","","html-keyboard-response","284","669637","0.0-13.0-0.0-1.0-0.0-1.37","null","<span style='color:GreenYellow; font-size: 70px;'>正确! </span>","null","","","","","","","","","","","","","","","","","","","","","","","feedback_test"
"","","","","","psychophysics","285","671332","0.0-13.0-0.0-1.0-0.0-0.38","539","","f","","","","","","","","","","","","","key","f","16.665999999999457","720","446","j","false","img/S_ambi40.png","方形","image_first",""
"","","","","","html-keyboard-response","286","671638","0.0-13.0-0.0-1.0-0.0-1.38","null","<span style='color:red; font-size: 70px;'>错误! </span>","null","","","","","","","","","","","","","","","","","","","","","","","feedback_test"
"","","","","","psychophysics","287","673527","0.0-13.0-0.0-1.0-0.0-0.39","732","","f","","","","","","","","","","","","","key","f","16.665999999999517","720","446","f","true","img/S_ambi40.png","三角","image_first",""
"","","","","","html-keyboard-response","288","673836","0.0-13.0-0.0-1.0-0.0-1.39","null","<span style='color:GreenYellow; font-size: 70px;'>正确! </span>","null","","","","","","","","","","","","","","","","","","","","","","","feedback_test"
"","","","","","psychophysics","289","675609","0.0-13.0-0.0-1.0-0.0-0.40","614","","j","","","","","","","","","","","","","key","j","16.66599999999938","720","446","j","true","img/T_ambi40.png","三角","image_first",""
"","","","","","html-keyboard-response","290","675926","0.0-13.0-0.0-1.0-0.0-1.40","null","<span style='color:GreenYellow; font-size: 70px;'>正确! </span>","null","","","","","","","","","","","","","","","","","","","","","","","feedback_test"
"","","","","","psychophysics","291","677629","0.0-13.0-0.0-1.0-0.0-0.41","549","","j","","","","","","","","","","","","","key","j","16.66868999999948","720","446","j","true","img/C_ambi40.png","圆形","image_first",""
"","","","","","html-keyboard-response","292","677937","0.0-13.0-0.0-1.0-0.0-1.41","null","<span style='color:GreenYellow; font-size: 70px;'>正确! </span>","null","","","","","","","","","","","","","","","","","","","","","","","feedback_test"
"","","","","","psychophysics","293","679689","0.0-13.0-0.0-1.0-0.0-0.42","594","","j","","","","","","","","","","","","","key","j","16.665999999999677","720","446","j","true","img/T_ambi40.png","三角","image_first",""
"","","","","","html-keyboard-response","294","679998","0.0-13.0-0.0-1.0-0.0-1.42","null","<span style='color:GreenYellow; font-size: 70px;'>正确! </span>","null","","","","","","","","","","","","","","","","","","","","","","","feedback_test"
"","","","","","psychophysics","295","681752","0.0-13.0-0.0-1.0-0.0-0.43","599","","f","","","","","","","","","","","","","key","f","16.666000000000796","720","446","f","true","img/T_ambi40.png","圆形","image_first",""
"","","","","","html-keyboard-response","296","682054","0.0-13.0-0.0-1.0-0.0-1.43","null","<span style='color:GreenYellow; font-size: 70px;'>正确! </span>","null","","","","","","","","","","","","","","","","","","","","","","","feedback_test"
"","","","","","psychophysics","297","683898","0.0-13.0-0.0-1.0-0.0-0.44","690","","j","","","","","","","","","","","","","key","j","16.666000000000086","720","446","j","true","img/S_ambi40.png","方形","image_first",""
"","","","","","html-keyboard-response","298","684211","0.0-13.0-0.0-1.0-0.0-1.44","null","<span style='color:GreenYellow; font-size: 70px;'>正确! </span>","null","","","","","","","","","","","","","","","","","","","","","","","feedback_test"
"","","","","","psychophysics","299","686180","0.0-13.0-0.0-1.0-0.0-0.45","814","","f","","","","","","","","","","","","","key","f","16.666000000000174","720","446","f","true","img/C_ambi40.png","方形","image_first",""
"","","","","","html-keyboard-response","300","686492","0.0-13.0-0.0-1.0-0.0-1.45","null","<span style='color:GreenYellow; font-size: 70px;'>正确! </span>","null","","","","","","","","","","","","","","","","","","","","","","","feedback_test"
"","","","","","psychophysics","301","688335","0.0-13.0-0.0-1.0-0.0-0.46","688","","f","","","","","","","","","","","","","key","f","16.666000000000086","720","446","f","true","img/S_ambi40.png","圆形","image_first",""
"","","","","","html-keyboard-response","302","688642","0.0-13.0-0.0-1.0-0.0-1.46","null","<span style='color:GreenYellow; font-size: 70px;'>正确! </span>","null","","","","","","","","","","","","","","","","","","","","","","","feedback_test"
"","","","","","psychophysics","303","690844","0.0-13.0-0.0-1.0-0.0-0.47","1044","","f","","","","","","","","","","","","","key","f","16.666000000000327","720","446","f","true","img/T_ambi40.png","方形","image_first",""
"","","","","","html-keyboard-response","304","691155","0.0-13.0-0.0-1.0-0.0-1.47","null","<span style='color:GreenYellow; font-size: 70px;'>正确! </span>","null","","","","","","","","","","","","","","","","","","","","","","","feedback_test"
"","","","","","psychophysics","305","693079","0.0-13.0-0.0-1.0-0.0-0.48","766","","j","","","","","","","","","","","","","key","j","16.665999999999993","720","446","j","true","img/T_ambi40.png","三角","image_first",""
"","","","","","html-keyboard-response","306","693389","0.0-13.0-0.0-1.0-0.0-1.48","null","<span style='color:GreenYellow; font-size: 70px;'>正确! </span>","null","","","","","","","","","","","","","","","","","","","","","","","feedback_test"
"","","","","","psychophysics","307","695075","0.0-13.0-0.0-1.0-0.0-0.49","526","","j","","","","","","","","","","","","","key","j","16.665999999999766","720","446","j","true","img/T_ambi40.png","三角","image_first",""
"","","","","","html-keyboard-response","308","695376","0.0-13.0-0.0-1.0-0.0-1.49","null","<span style='color:GreenYellow; font-size: 70px;'>正确! </span>","null","","","","","","","","","","","","","","","","","","","","","","","feedback_test"
"","","","","","psychophysics","309","697145","0.0-13.0-0.0-1.0-0.0-0.50","617","","j","","","","","","","","","","","","","key","j","16.670990476190735","720","446","j","true","img/S_ambi40.png","方形","image_first",""
"","","","","","html-keyboard-response","310","697449","0.0-13.0-0.0-1.0-0.0-1.50","null","<span style='color:GreenYellow; font-size: 70px;'>正确! </span>","null","","","","","","","","","","","","","","","","","","","","","","","feedback_test"
"","","","","","psychophysics","311","699107","0.0-13.0-0.0-1.0-0.0-0.51","507","","f","","","","","","","","","","","","","key","f","16.66600000000041","720","446","f","true","img/T_ambi40.png","方形","image_first",""
"","","","","","html-keyboard-response","312","699414","0.0-13.0-0.0-1.0-0.0-1.51","null","<span style='color:GreenYellow; font-size: 70px;'>正确! </span>","null","","","","","","","","","","","","","","","","","","","","","","","feedback_test"
"","","","","","psychophysics","313","701342","0.0-13.0-0.0-1.0-0.0-0.52","774","","f","","","","","","","","","","","","","key","f","16.66600000000073","720","446","f","true","img/S_ambi40.png","三角","image_first",""
"","","","","","html-keyboard-response","314","701650","0.0-13.0-0.0-1.0-0.0-1.52","null","<span style='color:GreenYellow; font-size: 70px;'>正确! </span>","null","","","","","","","","","","","","","","","","","","","","","","","feedback_test"
"","","","","","psychophysics","315","703349","0.0-13.0-0.0-1.0-0.0-0.53","546","","j","","","","","","","","","","","","","key","j","16.665999999999766","720","446","j","true","img/C_ambi40.png","圆形","image_first",""
"","","","","","html-keyboard-response","316","703657","0.0-13.0-0.0-1.0-0.0-1.53","null","<span style='color:GreenYellow; font-size: 70px;'>正确! </span>","null","","","","","","","","","","","","","","","","","","","","","","","feedback_test"
"","","","","","psychophysics","317","705447","0.0-13.0-0.0-1.0-0.0-0.54","638","","f","","","","","","","","","","","","","key","f","16.665999999999087","720","446","f","true","img/C_ambi40.png","三角","image_first",""
"","","","","","html-keyboard-response","318","705758","0.0-13.0-0.0-1.0-0.0-1.54","null","<span style='color:GreenYellow; font-size: 70px;'>正确! </span>","null","","","","","","","","","","","","","","","","","","","","","","","feedback_test"
"","","","","","psychophysics","319","707392","0.0-13.0-0.0-1.0-0.0-0.55","478","","j","","","","","","","","","","","","","key","j","16.66599999999954","720","446","j","true","img/C_ambi40.png","圆形","image_first",""
"","","","","","html-keyboard-response","320","707702","0.0-13.0-0.0-1.0-0.0-1.55","null","<span style='color:GreenYellow; font-size: 70px;'>正确! </span>","null","","","","","","","","","","","","","","","","","","","","","","","feedback_test"
"","","","","","psychophysics","321","709537","0.0-13.0-0.0-1.0-0.0-0.56","678","","f","","","","","","","","","","","","","key","f","16.665999999999308","720","446","f","true","img/T_ambi40.png","圆形","image_first",""
"","","","","","html-keyboard-response","322","709846","0.0-13.0-0.0-1.0-0.0-1.56","null","<span style='color:GreenYellow; font-size: 70px;'>正确! </span>","null","","","","","","","","","","","","","","","","","","","","","","","feedback_test"
"","","","","","psychophysics","323","711842","0.0-13.0-0.0-1.0-0.0-0.57","842","","f","","","","","","","","","","","","","key","f","16.66599999999964","720","446","f","true","img/C_ambi40.png","方形","image_first",""
"","","","","","html-keyboard-response","324","712151","0.0-13.0-0.0-1.0-0.0-1.57","null","<span style='color:GreenYellow; font-size: 70px;'>正确! </span>","null","","","","","","","","","","","","","","","","","","","","","","","feedback_test"
"","","","","","psychophysics","325","713916","0.0-13.0-0.0-1.0-0.0-0.58","615","","j","","","","","","","","","","","","","key","j","16.666000000000796","720","446","j","true","img/S_ambi40.png","方形","image_first",""
"","","","","","html-keyboard-response","326","714220","0.0-13.0-0.0-1.0-0.0-1.58","null","<span style='color:GreenYellow; font-size: 70px;'>正确! </span>","null","","","","","","","","","","","","","","","","","","","","","","","feedback_test"
"","","","","","psychophysics","327","715970","0.0-13.0-0.0-1.0-0.0-0.59","590","","f","","","","","","","","","","","","","key","f","16.665999999999677","720","446","f","true","img/S_ambi40.png","圆形","image_first",""
"","","","","","html-keyboard-response","328","716275","0.0-13.0-0.0-1.0-0.0-1.59","null","<span style='color:GreenYellow; font-size: 70px;'>正确! </span>","null","","","","","","","","","","","","","","","","","","","","","","","feedback_test"
"","","","","","html-keyboard-response","329","718853","0.0-13.0-0.0-1.0-1.0","2575","<style>.context{color:white; font-size: 35px; line-height:40px}</style>                            <div><p class='context'>您正确回答了92% 的试次。</p><p class='context'>您的平均反应时为734毫秒。</p><p class='context'>请按任意键进入休息</p></div>"," ","","","","","","","","","","","","","","","","","","","","","","",""
"","","","","","html-button-response","330","765449","0.0-13.0-0.0-1.0-2.0","46590","
                    <p>您当前还剩余3组实验</p>
                    <p>现在是休息时间，当您结束休息后，您可以点击 结束休息 按钮 继续</p>
                    <p>建议休息时间还剩余<span id=""iii"">60</span>秒</p>","0","","","","","","","","","","","","","","","","","","","","","","",""
"","","","","","psychophysics","331","767426","0.0-13.0-0.0-1.0-0.1-0.60","824","","f","","","","","","","","","","","","","key","f","16.665999999999904","720","446","f","true","img/S_ambi40.png","圆形","image_first",""
"","","","","","html-keyboard-response","332","767736","0.0-13.0-0.0-1.0-0.1-1.60","null","<span style='color:GreenYellow; font-size: 70px;'>正确! </span>","null","","","","","","","","","","","","","","","","","","","","","","","feedback_test"
"","","","","","psychophysics","333","769511","0.0-13.0-0.0-1.0-0.1-0.61","623","","f","","","","","","","","","","","","","key","f","16.66599999999938","720","446","f","true","img/C_ambi40.png","三角","image_first",""
"","","","","","html-keyboard-response","334","769820","0.0-13.0-0.0-1.0-0.1-1.61","null","<span style='color:GreenYellow; font-size: 70px;'>正确! </span>","null","","","","","","","","","","","","","","","","","","","","","","","feedback_test"
"","","","","","psychophysics","335","771525","0.0-13.0-0.0-1.0-0.1-0.62","553","","j","","","","","","","","","","","","","key","j","16.665999999999457","720","446","j","true","img/T_ambi40.png","三角","image_first",""
"","","","","","html-keyboard-response","336","771832","0.0-13.0-0.0-1.0-0.1-1.62","null","<span style='color:GreenYellow; font-size: 70px;'>正确! </span>","null","","","","","","","","","","","","","","","","","","","","","","","feedback_test"
"","","","","","psychophysics","337","773602","0.0-13.0-0.0-1.0-0.1-0.63","616","","f","","","","","","","","","","","","","key","f","16.665999999999087","720","446","f","true","img/T_ambi40.png","圆形","image_first",""
"","","","","","html-keyboard-response","338","773907","0.0-13.0-0.0-1.0-0.1-1.63","null","<span style='color:GreenYellow; font-size: 70px;'>正确! </span>","null","","","","","","","","","","","","","","","","","","","","","","","feedback_test"
"","","","","","psychophysics","339","775600","0.0-13.0-0.0-1.0-0.1-0.64","541","","j","","","","","","","","","","","","","key","j","16.665999999999766","720","446","j","true","img/C_ambi40.png","圆形","image_first",""
"","","","","","html-keyboard-response","340","775907","0.0-13.0-0.0-1.0-0.1-1.64","null","<span style='color:GreenYellow; font-size: 70px;'>正确! </span>","null","","","","","","","","","","","","","","","","","","","","","","","feedback_test"
"","","","","","psychophysics","341","777901","0.0-13.0-0.0-1.0-0.1-0.65","838","","f","","","","","","","","","","","","","key","f","16.665999999999904","720","446","f","true","img/T_ambi40.png","方形","image_first",""
"","","","","","html-keyboard-response","342","778208","0.0-13.0-0.0-1.0-0.1-1.65","null","<span style='color:GreenYellow; font-size: 70px;'>正确! </span>","null","","","","","","","","","","","","","","","","","","","","","","","feedback_test"
"","","","","","psychophysics","343","780002","0.0-13.0-0.0-1.0-0.1-0.66","634","","f","","","","","","","","","","","","","key","f","16.670897196261343","720","446","f","true","img/S_ambi40.png","三角","image_first",""
"","","","","","html-keyboard-response","344","780312","0.0-13.0-0.0-1.0-0.1-1.66","null","<span style='color:GreenYellow; font-size: 70px;'>正确! </span>","null","","","","","","","","","","","","","","","","","","","","","","","feedback_test"
"","","","","","psychophysics","345","782002","0.0-13.0-0.0-1.0-0.1-0.67","535","","j","","","","","","","","","","","","","key","j","16.666000000000608","720","446","j","true","img/T_ambi40.png","三角","image_first",""
"","","","","","html-keyboard-response","346","782312","0.0-13.0-0.0-1.0-0.1-1.67","null","<span style='color:GreenYellow; font-size: 70px;'>正确! </span>","null","","","","","","","","","","","","","","","","","","","","","","","feedback_test"
"","","","","","psychophysics","347","784090","0.0-13.0-0.0-1.0-0.1-0.68","622","","j","","","","","","","","","","","","","key","j","16.666000000000185","720","446","j","true","img/C_ambi40.png","圆形","image_first",""
"","","","","","html-keyboard-response","348","784400","0.0-13.0-0.0-1.0-0.1-1.68","null","<span style='color:GreenYellow; font-size: 70px;'>正确! </span>","null","","","","","","","","","","","","","","","","","","","","","","","feedback_test"
"","","","","","psychophysics","349","786153","0.0-13.0-0.0-1.0-0.1-0.69","600","","f","","","","","","","","","","","","","key","f","16.665999999999677","720","446","j","false","img/S_ambi40.png","方形","image_first",""
"","","","","","html-keyboard-response","350","786464","0.0-13.0-0.0-1.0-0.1-1.69","null","<span style='color:red; font-size: 70px;'>错误! </span>","null","","","","","","","","","","","","","","","","","","","","","","","feedback_test"
"","","","","","psychophysics","351","788307","0.0-13.0-0.0-1.0-0.1-0.70","690","","j","","","","","","","","","","","","","key","j","16.665999999999027","720","446","j","true","img/S_ambi40.png","方形","image_first",""
"","","","","","html-keyboard-response","352","788616","0.0-13.0-0.0-1.0-0.1-1.70","null","<span style='color:GreenYellow; font-size: 70px;'>正确! </span>","null","","","","","","","","","","","","","","","","","","","","","","","feedback_test"
"","","","","","psychophysics","353","790561","0.0-13.0-0.0-1.0-0.1-0.71","792","","f","","","","","","","","","","","","","key","f","16.665999999999716","720","446","f","true","img/C_ambi40.png","方形","image_first",""
"","","","","","html-keyboard-response","354","790870","0.0-13.0-0.0-1.0-0.1-1.71","null","<span style='color:GreenYellow; font-size: 70px;'>正确! </span>","null","","","","","","","","","","","","","","","","","","","","","","","feedback_test"
"","","","","","psychophysics","355","792735","0.0-13.0-0.0-1.0-0.1-0.72","706","","f","","","","","","","","","","","","","key","f","16.665999999999798","720","446","f","true","img/C_ambi40.png","方形","image_first",""
"","","","","","html-keyboard-response","356","793037","0.0-13.0-0.0-1.0-0.1-1.72","null","<span style='color:GreenYellow; font-size: 70px;'>正确! </span>","null","","","","","","","","","","","","","","","","","","","","","","","feedback_test"
"","","","","","psychophysics","357","794796","0.0-13.0-0.0-1.0-0.1-0.73","597","","j","","","","","","","","","","","","","key","j","16.665999999999677","720","446","j","true","img/T_ambi40.png","三角","image_first",""
"","","","","","html-keyboard-response","358","795100","0.0-13.0-0.0-1.0-0.1-1.73","null","<span style='color:GreenYellow; font-size: 70px;'>正确! </span>","null","","","","","","","","","","","","","","","","","","","","","","","feedback_test"
"","","","","","psychophysics","359","796911","0.0-13.0-0.0-1.0-0.1-0.74","659","","f","","","","","","","","","","","","","key","f","16.665999999999887","720","446","f","true","img/C_ambi40.png","三角","image_first",""
"","","","","","html-keyboard-response","360","797224","0.0-13.0-0.0-1.0-0.1-1.74","null","<span style='color:GreenYellow; font-size: 70px;'>正确! </span>","null","","","","","","","","","","","","","","","","","","","","","","","feedback_test"
"","","","","","psychophysics","361","798997","0.0-13.0-0.0-1.0-0.1-0.75","614","","j","","","","","","","","","","","","","key","j","16.670980952380756","720","446","j","true","img/C_ambi40.png","圆形","image_first",""
"","","","","","html-keyboard-response","362","799300","0.0-13.0-0.0-1.0-0.1-1.75","null","<span style='color:GreenYellow; font-size: 70px;'>正确! </span>","null","","","","","","","","","","","","","","","","","","","","","","","feedback_test"
"","","","","","psychophysics","363","801441","0.0-13.0-0.0-1.0-0.1-0.76","989","","f","","","","","","","","","","","","","key","f","16.665999999999503","720","446","j","false","img/S_ambi40.png","方形","image_first",""
"","","","","","html-keyboard-response","364","801753","0.0-13.0-0.0-1.0-0.1-1.76","null","<span style='color:red; font-size: 70px;'>错误! </span>","null","","","","","","","","","","","","","","","","","","","","","","","feedback_test"
"","","","","","psychophysics","365","803504","0.0-13.0-0.0-1.0-0.1-0.77","593","","j","","","","","","","","","","","","","key","j","16.665999999999677","720","446","j","true","img/T_ambi40.png","三角","image_first",""
"","","","","","html-keyboard-response","366","803813","0.0-13.0-0.0-1.0-0.1-1.77","null","<span style='color:GreenYellow; font-size: 70px;'>正确! </span>","null","","","","","","","","","","","","","","","","","","","","","","","feedback_test"
"","","","","","psychophysics","367","806074","0.0-13.0-0.0-1.0-0.1-0.78","1105","","f","","","","","","","","","","","","","key","f","16.666000000000242","720","446","f","true","img/S_ambi40.png","圆形","image_first",""
"","","","","","html-keyboard-response","368","806385","0.0-13.0-0.0-1.0-0.1-1.78","null","<span style='color:GreenYellow; font-size: 70px;'>正确! </span>","null","","","","","","","","","","","","","","","","","","","","","","","feedback_test"
"","","","","","psychophysics","369","808258","0.0-13.0-0.0-1.0-0.1-0.79","722","","f","","","","","","","","","","","","","key","f","16.666000000000846","720","446","f","true","img/S_ambi40.png","三角","image_first",""
"","","","","","html-keyboard-response","370","808565","0.0-13.0-0.0-1.0-0.1-1.79","null","<span style='color:GreenYellow; font-size: 70px;'>正确! </span>","null","","","","","","","","","","","","","","","","","","","","","","","feedback_test"
"","","","","","psychophysics","371","810766","0.0-13.0-0.0-1.0-0.1-0.80","1048","","j","","","","","","","","","","","","","key","j","16.66599999999944","720","446","j","true","img/S_ambi40.png","方形","image_first",""
"","","","","","html-keyboard-response","372","811068","0.0-13.0-0.0-1.0-0.1-1.80","null","<span style='color:GreenYellow; font-size: 70px;'>正确! </span>","null","","","","","","","","","","","","","","","","","","","","","","","feedback_test"
"","","","","","psychophysics","373","813194","0.0-13.0-0.0-1.0-0.1-0.81","972","","j","","","","","","","","","","","","","key","j","16.665999999999748","720","446","f","false","img/T_ambi40.png","方形","image_first",""
"","","","","","html-keyboard-response","374","813505","0.0-13.0-0.0-1.0-0.1-1.81","null","<span style='color:red; font-size: 70px;'>错误! </span>","null","","","","","","","","","","","","","","","","","","","","","","","feedback_test"
"","","","","","psychophysics","375","815733","0.0-13.0-0.0-1.0-0.1-0.82","1072","","f","","","","","","","","","","","","","key","f","16.666000000000086","720","446","f","true","img/T_ambi40.png","圆形","image_first",""
"","","","","","html-keyboard-response","376","816036","0.0-13.0-0.0-1.0-0.1-1.82","null","<span style='color:GreenYellow; font-size: 70px;'>正确! </span>","null","","","","","","","","","","","","","","","","","","","","","","","feedback_test"
"","","","","","psychophysics","377","817993","0.0-13.0-0.0-1.0-0.1-0.83","803","","j","","","","","","","","","","","","","key","j","16.666000000000448","720","446","j","true","img/C_ambi40.png","圆形","image_first",""
"","","","","","html-keyboard-response","378","818305","0.0-13.0-0.0-1.0-0.1-1.83","null","<span style='color:GreenYellow; font-size: 70px;'>正确! </span>","null","","","","","","","","","","","","","","","","","","","","","","","feedback_test"
"","","","","","psychophysics","379","820318","0.0-13.0-0.0-1.0-0.1-0.84","857","","j","","","","","","","","","","","","","key","j","16.670403361344952","720","446","j","true","img/S_ambi40.png","方形","image_first",""
"","","","","","html-keyboard-response","380","820621","0.0-13.0-0.0-1.0-0.1-1.84","null","<span style='color:GreenYellow; font-size: 70px;'>正确! </span>","null","","","","","","","","","","","","","","","","","","","","","","","feedback_test"
"","","","","","psychophysics","381","822456","0.0-13.0-0.0-1.0-0.1-0.85","679","","f","","","","","","","","","","","","","key","f","16.666000000000377","720","446","f","true","img/C_ambi40.png","三角","image_first",""
"","","","","","html-keyboard-response","382","822769","0.0-13.0-0.0-1.0-0.1-1.85","null","<span style='color:GreenYellow; font-size: 70px;'>正确! </span>","null","","","","","","","","","","","","","","","","","","","","","","","feedback_test"
"","","","","","psychophysics","383","824736","0.0-13.0-0.0-1.0-0.1-0.86","815","","f","","","","","","","","","","","","","key","f","16.666000000000174","720","446","f","true","img/S_ambi40.png","圆形","image_first",""
"","","","","","html-keyboard-response","384","825049","0.0-13.0-0.0-1.0-0.1-1.86","null","<span style='color:GreenYellow; font-size: 70px;'>正确! </span>","null","","","","","","","","","","","","","","","","","","","","","","","feedback_test"
"","","","","","psychophysics","385","826832","0.0-13.0-0.0-1.0-0.1-0.87","630","","j","","","","","","","","","","","","","key","j","16.666000000000185","720","446","j","true","img/C_ambi40.png","圆形","image_first",""
"","","","","","html-keyboard-response","386","827145","0.0-13.0-0.0-1.0-0.1-1.87","null","<span style='color:GreenYellow; font-size: 70px;'>正确! </span>","null","","","","","","","","","","","","","","","","","","","","","","","feedback_test"
"","","","","","psychophysics","387","828974","0.0-13.0-0.0-1.0-0.1-0.88","672","","f","","","","","","","","","","","","","key","f","16.666000000000377","720","446","f","true","img/S_ambi40.png","三角","image_first",""
"","","","","","html-keyboard-response","388","829277","0.0-13.0-0.0-1.0-0.1-1.88","null","<span style='color:GreenYellow; font-size: 70px;'>正确! </span>","null","","","","","","","","","","","","","","","","","","","","","","","feedback_test"
"","","","","","psychophysics","389","831028","0.0-13.0-0.0-1.0-0.1-0.89","595","","j","","","","","","","","","","","","","key","j","16.665999999999677","720","446","j","true","img/T_ambi40.png","三角","image_first",""
"","","","","","html-keyboard-response","390","831333","0.0-13.0-0.0-1.0-0.1-1.89","null","<span style='color:GreenYellow; font-size: 70px;'>正确! </span>","null","","","","","","","","","","","","","","","","","","","","","","","feedback_test"
"","","","","","psychophysics","391","833107","0.0-13.0-0.0-1.0-0.1-0.90","622","","j","","","","","","","","","","","","","key","j","16.66599999999938","720","446","j","true","img/S_ambi40.png","方形","image_first",""
"","","","","","html-keyboard-response","392","833412","0.0-13.0-0.0-1.0-0.1-1.90","null","<span style='color:GreenYellow; font-size: 70px;'>正确! </span>","null","","","","","","","","","","","","","","","","","","","","","","","feedback_test"
"","","","","","psychophysics","393","835346","0.0-13.0-0.0-1.0-0.1-0.91","778","","f","","","","","","","","","","","","","key","f","16.665999999999716","720","446","f","true","img/T_ambi40.png","方形","image_first",""
"","","","","","html-keyboard-response","394","835656","0.0-13.0-0.0-1.0-0.1-1.91","null","<span style='color:GreenYellow; font-size: 70px;'>正确! </span>","null","","","","","","","","","","","","","","","","","","","","","","","feedback_test"
"","","","","","psychophysics","395","837550","0.0-13.0-0.0-1.0-0.1-0.92","737","","j","","","","","","","","","","","","","key","j","16.666000000000558","720","446","j","true","img/T_ambi40.png","三角","image_first",""
"","","","","","html-keyboard-response","396","837853","0.0-13.0-0.0-1.0-0.1-1.92","null","<span style='color:GreenYellow; font-size: 70px;'>正确! </span>","null","","","","","","","","","","","","","","","","","","","","","","","feedback_test"
"","","","","","psychophysics","397","839666","0.0-13.0-0.0-1.0-0.1-0.93","651","","f","","","","","","","","","","","","","key","f","16.67089719626243","720","446","f","true","img/T_ambi40.png","圆形","image_first",""
"","","","","","html-keyboard-response","398","839973","0.0-13.0-0.0-1.0-0.1-1.93","null","<span style='color:GreenYellow; font-size: 70px;'>正确! </span>","null","","","","","","","","","","","","","","","","","","","","","","","feedback_test"
"","","","","","psychophysics","399","841925","0.0-13.0-0.0-1.0-0.1-0.94","790","","f","","","","","","","","","","","","","key","f","16.666000000000448","720","446","f","true","img/C_ambi40.png","方形","image_first",""
"","","","","","html-keyboard-response","400","842241","0.0-13.0-0.0-1.0-0.1-1.94","null","<span style='color:GreenYellow; font-size: 70px;'>正确! </span>","null","","","","","","","","","","","","","","","","","","","","","","","feedback_test"
"","","","","","psychophysics","401","843991","0.0-13.0-0.0-1.0-0.1-0.95","593","","j","","","","","","","","","","","","","key","j","16.665999999999677","720","446","j","true","img/C_ambi40.png","圆形","image_first",""
"","","","","","html-keyboard-response","402","844296","0.0-13.0-0.0-1.0-0.1-1.95","null","<span style='color:GreenYellow; font-size: 70px;'>正确! </span>","null","","","","","","","","","","","","","","","","","","","","","","","feedback_test"
"","","","","","psychophysics","403","846127","0.0-13.0-0.0-1.0-0.1-0.96","675","","f","","","","","","","","","","","","","key","f","16.666000000000377","720","446","f","true","img/C_ambi40.png","方形","image_first",""
"","","","","","html-keyboard-response","404","846433","0.0-13.0-0.0-1.0-0.1-1.96","null","<span style='color:GreenYellow; font-size: 70px;'>正确! </span>","null","","","","","","","","","","","","","","","","","","","","","","","feedback_test"
"","","","","","psychophysics","405","848512","0.0-13.0-0.0-1.0-0.1-0.97","926","","f","","","","","","","","","","","","","key","f","16.665999999999567","720","446","f","true","img/S_ambi40.png","三角","image_first",""
"","","","","","html-keyboard-response","406","848824","0.0-13.0-0.0-1.0-0.1-1.97","null","<span style='color:GreenYellow; font-size: 70px;'>正确! </span>","null","","","","","","","","","","","","","","","","","","","","","","","feedback_test"
"","","","","","psychophysics","407","850590","0.0-13.0-0.0-1.0-0.1-0.98","606","","j","","","","","","","","","","","","","key","j","16.666000000000487","720","446","j","true","img/S_ambi40.png","方形","image_first",""
"","","","","","html-keyboard-response","408","850893","0.0-13.0-0.0-1.0-0.1-1.98","null","<span style='color:GreenYellow; font-size: 70px;'>正确! </span>","null","","","","","","","","","","","","","","","","","","","","","","","feedback_test"
"","","","","","psychophysics","409","852876","0.0-13.0-0.0-1.0-0.1-0.99","824","","j","","","","","","","","","","","","","key","j","16.665999999999904","720","446","j","true","img/T_ambi40.png","三角","image_first",""
"","","","","","html-keyboard-response","410","853181","0.0-13.0-0.0-1.0-0.1-1.99","null","<span style='color:GreenYellow; font-size: 70px;'>正确! </span>","null","","","","","","","","","","","","","","","","","","","","","","","feedback_test"
"","","","","","psychophysics","411","855027","0.0-13.0-0.0-1.0-0.1-0.100","692","","f","","","","","","","","","","","","","key","f","16.666000000000086","720","446","f","true","img/T_ambi40.png","方形","image_first",""
"","","","","","html-keyboard-response","412","855337","0.0-13.0-0.0-1.0-0.1-1.100","null","<span style='color:GreenYellow; font-size: 70px;'>正确! </span>","null","","","","","","","","","","","","","","","","","","","","","","","feedback_test"
"","","","","","psychophysics","413","857317","0.0-13.0-0.0-1.0-0.1-0.101","821","","j","","","","","","","","","","","","","key","j","16.665999999999904","720","446","j","true","img/C_ambi40.png","圆形","image_first",""
"","","","","","html-keyboard-response","414","857625","0.0-13.0-0.0-1.0-0.1-1.101","null","<span style='color:GreenYellow; font-size: 70px;'>正确! </span>","null","","","","","","","","","","","","","","","","","","","","","","","feedback_test"
"","","","","","psychophysics","415","859511","0.0-13.0-0.0-1.0-0.1-0.102","727","","j","","","","","","","","","","","","","key","j","16.67066964285706","720","446","j","true","img/C_ambi40.png","圆形","image_first",""
"","","","","","html-keyboard-response","416","859817","0.0-13.0-0.0-1.0-0.1-1.102","null","<span style='color:GreenYellow; font-size: 70px;'>正确! </span>","null","","","","","","","","","","","","","","","","","","","","","","","feedback_test"
"","","","","","psychophysics","417","861596","0.0-13.0-0.0-1.0-0.1-0.103","627","","j","","","","","","","","","","","","","key","j","16.66599999999938","720","446","j","true","img/T_ambi40.png","三角","image_first",""
"","","","","","html-keyboard-response","418","861904","0.0-13.0-0.0-1.0-0.1-1.103","null","<span style='color:GreenYellow; font-size: 70px;'>正确! </span>","null","","","","","","","","","","","","","","","","","","","","","","","feedback_test"
"","","","","","psychophysics","419","863787","0.0-13.0-0.0-1.0-0.1-0.104","723","","f","","","","","","","","","","","","","key","f","16.665999999999517","720","446","f","true","img/S_ambi40.png","圆形","image_first",""
"","","","","","html-keyboard-response","420","864097","0.0-13.0-0.0-1.0-0.1-1.104","null","<span style='color:GreenYellow; font-size: 70px;'>正确! </span>","null","","","","","","","","","","","","","","","","","","","","","","","feedback_test"
"","","","","","psychophysics","421","865984","0.0-13.0-0.0-1.0-0.1-0.105","732","","f","","","","","","","","","","","","","key","f","16.666000000000558","720","446","f","true","img/C_ambi40.png","三角","image_first",""
"","","","","","html-keyboard-response","422","866294","0.0-13.0-0.0-1.0-0.1-1.105","null","<span style='color:GreenYellow; font-size: 70px;'>正确! </span>","null","","","","","","","","","","","","","","","","","","","","","","","feedback_test"
"","","","","","psychophysics","423","868102","0.0-13.0-0.0-1.0-0.1-0.106","651","","f","","","","","","","","","","","","","key","f","16.665999999999595","720","446","f","true","img/T_ambi40.png","圆形","image_first",""
"","","","","","html-keyboard-response","424","868410","0.0-13.0-0.0-1.0-0.1-1.106","null","<span style='color:GreenYellow; font-size: 70px;'>正确! </span>","null","","","","","","","","","","","","","","","","","","","","","","","feedback_test"
"","","","","","psychophysics","425","870140","0.0-13.0-0.0-1.0-0.1-0.107","574","","j","","","","","","","","","","","","","key","j","16.665999999999983","720","446","j","true","img/S_ambi40.png","方形","image_first",""
"","","","","","html-keyboard-response","426","870450","0.0-13.0-0.0-1.0-0.1-1.107","null","<span style='color:GreenYellow; font-size: 70px;'>正确! </span>","null","","","","","","","","","","","","","","","","","","","","","","","feedback_test"
"","","","","","psychophysics","427","872244","0.0-13.0-0.0-1.0-0.1-0.108","641","","j","","","","","","","","","","","","","key","j","16.666000000000185","720","446","j","true","img/S_ambi40.png","方形","image_first",""
"","","","","","html-keyboard-response","428","872554","0.0-13.0-0.0-1.0-0.1-1.108","null","<span style='color:GreenYellow; font-size: 70px;'>正确! </span>","null","","","","","","","","","","","","","","","","","","","","","","","feedback_test"
"","","","","","psychophysics","429","874393","0.0-13.0-0.0-1.0-0.1-0.109","682","","f","","","","","","","","","","","","","key","f","16.666000000000377","720","446","f","true","img/S_ambi40.png","圆形","image_first",""
"","","","","","html-keyboard-response","430","874703","0.0-13.0-0.0-1.0-0.1-1.109","null","<span style='color:GreenYellow; font-size: 70px;'>正确! </span>","null","","","","","","","","","","","","","","","","","","","","","","","feedback_test"
"","","","","","psychophysics","431","876475","0.0-13.0-0.0-1.0-0.1-0.110","610","","j","","","","","","","","","","","","","key","j","16.666000000000487","720","446","j","true","img/C_ambi40.png","圆形","image_first",""
"","","","","","html-keyboard-response","432","876786","0.0-13.0-0.0-1.0-0.1-1.110","null","<span style='color:GreenYellow; font-size: 70px;'>正确! </span>","null","","","","","","","","","","","","","","","","","","","","","","","feedback_test"
"","","","","","psychophysics","433","878765","0.0-13.0-0.0-1.0-0.1-0.111","828","","j","","","","","","","","","","","","","key","j","16.666000000000174","720","446","j","true","img/S_ambi40.png","方形","image_first",""
