"success","timeout","failed_images","failed_audio","failed_video","trial_type","trial_index","time_elapsed","internal_node_id","rt","stimulus","response","value","item_width_mm","item_height_mm","item_width_px","px2mm","view_dist_mm","item_width_deg","px2deg","scale_factor","win_width_deg","win_height_deg","view_history","response_type","key_press","avg_frame_time","center_x","center_y","correct_response","correct","Image","word","condition","screen_id"
"true","false","[]","[]","[]","preload","0","22964","0.0-0.0","","","","","","","","","","","","","","","","","","","","","","","","","",""
"","","","","","html-keyboard-response","1","42955","0.0-1.0","19991","
   <p>您好，欢迎参加本次实验。</p>
   <p>为充分保障您的权利，请确保您已经知晓并同意《参与实验同意书》以及《数据公开知情同意书》。</p>
   <p>如果您未见过上述内容，请咨询实验员。</p>
   <p>如果您选择继续实验，则表示您已经清楚两份知情同意书的内容并同意。</p>
   <p> <div style = ""color: green""><按任意键至下页></div> </p>
   "," ","","","","","","","","","","","","","","","","","","","","","","",""
"","","","","","html-keyboard-response","2","45162","0.0-2.0","2206","
   <p>本实验首先需要您填写一些基本个人信息。</p>
   <p> <div style = ""color: green""><按任意键至下页></div></p>
   "," ","","","","","","","","","","","","","","","","","","","","","","",""
"","","","","","call-function","3","45163","0.0-3.0-0.0","","","","","","","","","","","","","","","","","","","","","","","","","",""
"","","","","","survey-html-form","4","54742","0.0-3.0-1.0","9558","","{""Q0"":""26""}","","","","","","","","","","","","","","","","","","","","","","",""
"","","","","","html-button-response","5","55759","0.0-3.0-2.0","1015","<p style = 'color : white'>您的性别</p>","0","","","","","","","","","","","","","","","","","","","","","","",""
"","","","","","survey-html-form","6","65045","0.0-3.0-3.0","6914","","{""Q0"":""2001""}","","","","","","","","","","","","","","","","","","","","","","",""
"","","","","","survey-html-form","7","73064","0.0-3.0-4.0","8018","","{""Q0"":""5""}","","","","","","","","","","","","","","","","","","","","","","",""
"","","","","","virtual-chinrest","8","210295","0.0-4.0","137229","","","","85.6","53.98","334.2307836457521","3.9011164021743943","732.87","6.684615672915043","50","0.948446449313254","37.46","19.22","","","","","","","","","","","",""
"true","","","","","fullscreen","9","213347","0.0-5.0","","","","","","","","","","","","","","","","","","","","","","","","","",""
"","","","","","instructions","10","242652","0.0-6.0","29304","","","","","","","","","","","","","","[{""page_index"":0,""viewing_time"":2998},{""page_index"":1,""viewing_time"":19609},{""page_index"":2,""viewing_time"":4783},{""page_index"":3,""viewing_time"":1914}]","","","","","","","","","","",""
"","","","","","psychophysics","11","245157","0.0-7.0-0.0-0.0","1353","","f","","","","","","","","","","","","","key","f","6.983207865168532","960","536","j","false","img/C_ambi40.png","方形","prac_image_first",""
"","","","","","html-keyboard-response","12","245459","0.0-7.0-0.0-1.0","null","<span style='color:red; font-size: 70px;'>错误! </span>","null","","","","","","","","","","","","","","","","","","","","","","","feedback_test"
"","","","","","psychophysics","13","248112","0.0-7.0-0.0-0.1","null","","null","","","","","","","","","","","","","key","null","6.9440026315788455","960","536","f","false","img/S_ambi40.png","方形","prac_image_first",""
"","","","","","html-keyboard-response","14","248416","0.0-7.0-0.0-1.1","null","<span class='add_' style='color:yellow; font-size: 70px;'> 太慢! </span>","null","","","","","","","","","","","","","","","","","","","","","","","feedback_test"
"","","","","","psychophysics","15","251068","0.0-7.0-0.0-0.2","null","","null","","","","","","","","","","","","","key","null","6.944456692913509","960","536","f","false","img/T_ambi40.png","三角","prac_image_first",""
"","","","","","html-keyboard-response","16","251369","0.0-7.0-0.0-1.2","null","<span class='add_' style='color:yellow; font-size: 70px;'> 太慢! </span>","null","","","","","","","","","","","","","","","","","","","","","","","feedback_test"
"","","","","","psychophysics","17","252789","0.0-7.0-0.0-0.3","268","","f","","","","","","","","","","","","","key","f","6.942192118226383","960","536","j","false","img/S_ambi40.png","圆形","prac_image_first",""
"","","","","","html-keyboard-response","18","253091","0.0-7.0-0.0-1.3","null","<span style='color:red; font-size: 70px;'>错误! </span>","null","","","","","","","","","","","","","","","","","","","","","","","feedback_test"
"","","","","","psychophysics","19","254970","0.0-7.0-0.0-0.4","727","","f","","","","","","","","","","","","","key","f","6.944077777777609","960","536","f","true","img/C_ambi40.png","圆形","prac_image_first",""
"","","","","","html-keyboard-response","20","255270","0.0-7.0-0.0-1.4","null","<span style='color:GreenYellow; font-size: 70px;'>正确! </span>","null","","","","","","","","","","","","","","","","","","","","","","","feedback_test"
"","","","","","psychophysics","21","257007","0.0-7.0-0.0-0.5","585","","f","","","","","","","","","","","","","key","f","6.944830645161405","960","536","f","true","img/T_ambi40.png","三角","prac_image_first",""
"","","","","","html-keyboard-response","22","257307","0.0-7.0-0.0-1.5","null","<span style='color:GreenYellow; font-size: 70px;'>正确! </span>","null","","","","","","","","","","","","","","","","","","","","","","","feedback_test"
"","","","","","psychophysics","23","259249","0.0-7.0-0.0-0.6","789","","f","","","","","","","","","","","","","key","f","6.944183453237437","960","536","f","true","img/S_ambi40.png","方形","prac_image_first",""
"","","","","","html-keyboard-response","24","259550","0.0-7.0-0.0-1.6","null","<span style='color:GreenYellow; font-size: 70px;'>正确! </span>","null","","","","","","","","","","","","","","","","","","","","","","","feedback_test"
"","","","","","psychophysics","25","261509","0.0-7.0-0.0-0.7","807","","j","","","","","","","","","","","","","key","j","6.943917857142722","960","536","j","true","img/S_ambi40.png","三角","prac_image_first",""
"","","","","","html-keyboard-response","26","261810","0.0-7.0-0.0-1.7","null","<span style='color:GreenYellow; font-size: 70px;'>正确! </span>","null","","","","","","","","","","","","","","","","","","","","","","","feedback_test"
"","","","","","psychophysics","27","263897","0.0-7.0-0.0-0.8","936","","j","","","","","","","","","","","","","key","j","6.944033444816064","960","536","j","true","img/C_ambi40.png","三角","prac_image_first",""
"","","","","","html-keyboard-response","28","264199","0.0-7.0-0.0-1.8","null","<span style='color:GreenYellow; font-size: 70px;'>正确! </span>","null","","","","","","","","","","","","","","","","","","","","","","","feedback_test"
"","","","","","psychophysics","29","265965","0.0-7.0-0.0-0.9","614","","f","","","","","","","","","","","","","key","f","6.944826086956627","960","536","j","false","img/T_ambi40.png","圆形","prac_image_first",""
"","","","","","html-keyboard-response","30","266267","0.0-7.0-0.0-1.9","null","<span style='color:red; font-size: 70px;'>错误! </span>","null","","","","","","","","","","","","","","","","","","","","","","","feedback_test"
"","","","","","psychophysics","31","268381","0.0-7.0-0.0-0.10","962","","f","","","","","","","","","","","","","key","f","6.94373267326733","960","536","f","true","img/C_ambi40.png","圆形","prac_image_first",""
"","","","","","html-keyboard-response","32","268682","0.0-7.0-0.0-1.10","null","<span style='color:GreenYellow; font-size: 70px;'>正确! </span>","null","","","","","","","","","","","","","","","","","","","","","","","feedback_test"
"","","","","","psychophysics","33","270483","0.0-7.0-0.0-0.11","650","","j","","","","","","","","","","","","","key","j","6.944228682170447","960","536","j","true","img/T_ambi40.png","方形","prac_image_first",""
"","","","","","html-keyboard-response","34","270785","0.0-7.0-0.0-1.11","null","<span style='color:GreenYellow; font-size: 70px;'>正确! </span>","null","","","","","","","","","","","","","","","","","","","","","","","feedback_test"
"","","","","","psychophysics","35","272615","0.0-7.0-0.0-0.12","677","","j","","","","","","","","","","","","","key","j","6.944266159695833","960","536","j","true","img/T_ambi40.png","方形","prac_image_first",""
"","","","","","html-keyboard-response","36","272916","0.0-7.0-0.0-1.12","null","<span style='color:GreenYellow; font-size: 70px;'>正确! </span>","null","","","","","","","","","","","","","","","","","","","","","","","feedback_test"
"","","","","","psychophysics","37","274741","0.0-7.0-0.0-0.13","673","","f","","","","","","","","","","","","","key","f","6.94475954198474","960","536","f","true","img/C_ambi40.png","圆形","prac_image_first",""
"","","","","","html-keyboard-response","38","275043","0.0-7.0-0.0-1.13","null","<span style='color:GreenYellow; font-size: 70px;'>正确! </span>","null","","","","","","","","","","","","","","","","","","","","","","","feedback_test"
"","","","","","psychophysics","39","276880","0.0-7.0-0.0-0.14","686","","f","","","","","","","","","","","","","key","f","6.93968821292767","960","536","f","true","img/T_ambi40.png","三角","prac_image_first",""
"","","","","","html-keyboard-response","40","277181","0.0-7.0-0.0-1.14","null","<span style='color:GreenYellow; font-size: 70px;'>正确! </span>","null","","","","","","","","","","","","","","","","","","","","","","","feedback_test"
"","","","","","psychophysics","41","278789","0.0-7.0-0.0-0.15","457","","f","","","","","","","","","","","","","key","f","6.941430434782776","960","536","f","true","img/T_ambi40.png","三角","prac_image_first",""
"","","","","","html-keyboard-response","42","279089","0.0-7.0-0.0-1.15","null","<span style='color:GreenYellow; font-size: 70px;'>正确! </span>","null","","","","","","","","","","","","","","","","","","","","","","","feedback_test"
"","","","","","psychophysics","43","280937","0.0-7.0-0.0-0.16","696","","f","","","","","","","","","","","","","key","f","6.944467924528466","960","536","f","true","img/S_ambi40.png","方形","prac_image_first",""
"","","","","","html-keyboard-response","44","281238","0.0-7.0-0.0-1.16","null","<span style='color:GreenYellow; font-size: 70px;'>正确! </span>","null","","","","","","","","","","","","","","","","","","","","","","","feedback_test"
"","","","","","psychophysics","45","283180","0.0-7.0-0.0-0.17","791","","j","","","","","","","","","","","","","key","j","6.944302158273393","960","536","j","true","img/T_ambi40.png","圆形","prac_image_first",""
"","","","","","html-keyboard-response","46","283481","0.0-7.0-0.0-1.17","null","<span style='color:GreenYellow; font-size: 70px;'>正确! </span>","null","","","","","","","","","","","","","","","","","","","","","","","feedback_test"
"","","","","","psychophysics","47","285362","0.0-7.0-0.0-0.18","731","","f","","","","","","","","","","","","","key","f","6.9441152416357035","960","536","f","true","img/C_ambi40.png","圆形","prac_image_first",""
"","","","","","html-keyboard-response","48","285664","0.0-7.0-0.0-1.18","null","<span style='color:GreenYellow; font-size: 70px;'>正确! </span>","null","","","","","","","","","","","","","","","","","","","","","","","feedback_test"
"","","","","","psychophysics","49","287511","0.0-7.0-0.0-0.19","696","","j","","","","","","","","","","","","","key","j","6.944226415094234","960","536","j","true","img/C_ambi40.png","三角","prac_image_first",""
"","","","","","html-keyboard-response","50","287813","0.0-7.0-0.0-1.19","null","<span style='color:GreenYellow; font-size: 70px;'>正确! </span>","null","","","","","","","","","","","","","","","","","","","","","","","feedback_test"
"","","","","","psychophysics","51","289839","0.0-7.0-0.0-0.20","875","","f","","","","","","","","","","","","","key","f","6.942562068965494","960","536","f","true","img/S_ambi40.png","方形","prac_image_first",""
"","","","","","html-keyboard-response","52","290140","0.0-7.0-0.0-1.20","null","<span style='color:GreenYellow; font-size: 70px;'>正确! </span>","null","","","","","","","","","","","","","","","","","","","","","","","feedback_test"
"","","","","","psychophysics","53","292441","0.0-7.0-0.0-0.21","1149","","j","","","","","","","","","","","","","key","j","6.944093939393872","960","536","j","true","img/S_ambi40.png","圆形","prac_image_first",""
"","","","","","html-keyboard-response","54","292743","0.0-7.0-0.0-1.21","null","<span style='color:GreenYellow; font-size: 70px;'>正确! </span>","null","","","","","","","","","","","","","","","","","","","","","","","feedback_test"
"","","","","","psychophysics","55","295102","0.0-7.0-0.0-0.22","1208","","j","","","","","","","","","","","","","key","j","6.944106194690168","960","536","j","true","img/C_ambi40.png","方形","prac_image_first",""
"","","","","","html-keyboard-response","56","295404","0.0-7.0-0.0-1.22","null","<span style='color:GreenYellow; font-size: 70px;'>正确! </span>","null","","","","","","","","","","","","","","","","","","","","","","","feedback_test"
"","","","","","psychophysics","57","297292","0.0-7.0-0.0-0.23","737","","j","","","","","","","","","","","","","key","j","6.944081481481488","960","536","j","true","img/S_ambi40.png","三角","prac_image_first",""
"","","","","","html-keyboard-response","58","297594","0.0-7.0-0.0-1.23","null","<span style='color:GreenYellow; font-size: 70px;'>正确! </span>","null","","","","","","","","","","","","","","","","","","","","","","","feedback_test"
"","","","","","html-keyboard-response","59","305581","0.0-8.0","7986","<style>.context{color:white; font-size: 35px; line-height:40px}</style>                            <div><p class='context'>您正确回答了79% 的试次。</p><p class='context'>您的平均反应时为781毫秒。</p><p class='context'>恭喜您完成这一阶段的练习。按任意键进入<span style='color: yellow;'>先文字后图形条件</span>的练习。</p></div>"," ","","","","","","","","","","","","","","","","","","","","","","",""
"","","","","","psychophysics","60","307488","0.0-9.0-0.0-0.0","753","","j","","","","","","","","","","","","","key","j","6.944237226277443","960","536","j","true","img/T_ambi40.png","圆形","prac_word_first",""
"","","","","","html-keyboard-response","61","307789","0.0-9.0-0.0-1.0","null","<span style='color:GreenYellow; font-size: 70px;'>正确! </span>","null","","","","","","","","","","","","","","","","","","","","","","","feedback_test"
"","","","","","psychophysics","62","309716","0.0-9.0-0.0-0.1","776","","f","","","","","","","","","","","","","key","f","6.9443949275362","960","536","f","true","img/T_ambi40.png","三角","prac_word_first",""
"","","","","","html-keyboard-response","63","310017","0.0-9.0-0.0-1.1","null","<span style='color:GreenYellow; font-size: 70px;'>正确! </span>","null","","","","","","","","","","","","","","","","","","","","","","","feedback_test"
"","","","","","psychophysics","64","312102","0.0-9.0-0.0-0.2","934","","f","","","","","","","","","","","","","key","f","6.944879598662306","960","536","f","true","img/S_ambi40.png","方形","prac_word_first",""
"","","","","","html-keyboard-response","65","312404","0.0-9.0-0.0-1.2","null","<span style='color:GreenYellow; font-size: 70px;'>正确! </span>","null","","","","","","","","","","","","","","","","","","","","","","","feedback_test"
"","","","","","psychophysics","66","314100","0.0-9.0-0.0-0.3","546","","f","","","","","","","","","","","","","key","f","6.944362139917859","960","536","f","true","img/C_ambi40.png","圆形","prac_word_first",""
"","","","","","html-keyboard-response","67","314402","0.0-9.0-0.0-1.3","null","<span style='color:GreenYellow; font-size: 70px;'>正确! </span>","null","","","","","","","","","","","","","","","","","","","","","","","feedback_test"
"","","","","","psychophysics","68","315917","0.0-9.0-0.0-0.4","363","","f","","","","","","","","","","","","","key","f","6.942453703703736","960","536","f","true","img/C_ambi40.png","圆形","prac_word_first",""
"","","","","","html-keyboard-response","69","316218","0.0-9.0-0.0-1.4","null","<span style='color:GreenYellow; font-size: 70px;'>正确! </span>","null","","","","","","","","","","","","","","","","","","","","","","","feedback_test"
"","","","","","psychophysics","70","318059","0.0-9.0-0.0-0.5","690","","j","","","","","","","","","","","","","key","j","6.944170454545449","960","536","j","true","img/T_ambi40.png","方形","prac_word_first",""
"","","","","","html-keyboard-response","71","318361","0.0-9.0-0.0-1.5","null","<span style='color:GreenYellow; font-size: 70px;'>正确! </span>","null","","","","","","","","","","","","","","","","","","","","","","","feedback_test"
"","","","","","psychophysics","72","320129","0.0-9.0-0.0-0.6","616","","f","","","","","","","","","","","","","key","f","6.942897233201638","960","536","f","true","img/T_ambi40.png","三角","prac_word_first",""
"","","","","","html-keyboard-response","73","320431","0.0-9.0-0.0-1.6","null","<span style='color:GreenYellow; font-size: 70px;'>正确! </span>","null","","","","","","","","","","","","","","","","","","","","","","","feedback_test"
"","","","","","psychophysics","74","322295","0.0-9.0-0.0-0.7","711","","j","","","","","","","","","","","","","key","j","6.943857677902439","960","536","j","true","img/S_ambi40.png","圆形","prac_word_first",""
"","","","","","html-keyboard-response","75","322595","0.0-9.0-0.0-1.7","null","<span style='color:GreenYellow; font-size: 70px;'>正确! </span>","null","","","","","","","","","","","","","","","","","","","","","","","feedback_test"
"","","","","","psychophysics","76","324306","0.0-9.0-0.0-0.8","559","","f","","","","","","","","","","","","","key","f","6.9442612244897255","960","536","j","false","img/S_ambi40.png","三角","prac_word_first",""
"","","","","","html-keyboard-response","77","324608","0.0-9.0-0.0-1.8","null","<span style='color:red; font-size: 70px;'>错误! </span>","null","","","","","","","","","","","","","","","","","","","","","","","feedback_test"
"","","","","","psychophysics","78","326476","0.0-9.0-0.0-0.9","718","","f","","","","","","","","","","","","","key","f","6.943705223880599","960","536","f","true","img/S_ambi40.png","方形","prac_word_first",""
"","","","","","html-keyboard-response","79","326777","0.0-9.0-0.0-1.9","null","<span style='color:GreenYellow; font-size: 70px;'>正确! </span>","null","","","","","","","","","","","","","","","","","","","","","","","feedback_test"
"","","","","","psychophysics","80","328706","0.0-9.0-0.0-0.10","778","","j","","","","","","","","","","","","","key","j","6.944642599278074","960","536","j","true","img/C_ambi40.png","方形","prac_word_first",""
"","","","","","html-keyboard-response","81","329008","0.0-9.0-0.0-1.10","null","<span style='color:GreenYellow; font-size: 70px;'>正确! </span>","null","","","","","","","","","","","","","","","","","","","","","","","feedback_test"
"","","","","","psychophysics","82","330722","0.0-9.0-0.0-0.11","562","","j","","","","","","","","","","","","","key","j","6.944371428571366","960","536","j","true","img/C_ambi40.png","三角","prac_word_first",""
"","","","","","html-keyboard-response","83","331024","0.0-9.0-0.0-1.11","null","<span style='color:GreenYellow; font-size: 70px;'>正确! </span>","null","","","","","","","","","","","","","","","","","","","","","","","feedback_test"
"","","","","","psychophysics","84","332831","0.0-9.0-0.0-0.12","656","","f","","","","","","","","","","","","","key","f","6.944250965250915","960","536","f","true","img/S_ambi40.png","方形","prac_word_first",""
"","","","","","html-keyboard-response","85","333132","0.0-9.0-0.0-1.12","null","<span style='color:GreenYellow; font-size: 70px;'>正确! </span>","null","","","","","","","","","","","","","","","","","","","","","","","feedback_test"
"","","","","","psychophysics","86","334963","0.0-9.0-0.0-0.13","679","","j","","","","","","","","","","","","","key","j","6.944751908397035","960","536","j","true","img/T_ambi40.png","圆形","prac_word_first",""
"","","","","","html-keyboard-response","87","335263","0.0-9.0-0.0-1.13","null","<span style='color:GreenYellow; font-size: 70px;'>正确! </span>","null","","","","","","","","","","","","","","","","","","","","","","","feedback_test"
"","","","","","psychophysics","88","337143","0.0-9.0-0.0-0.14","729","","f","","","","","","","","","","","","","key","f","6.940271375464755","960","536","j","false","img/C_ambi40.png","三角","prac_word_first",""
"","","","","","html-keyboard-response","89","337447","0.0-9.0-0.0-1.14","null","<span style='color:red; font-size: 70px;'>错误! </span>","null","","","","","","","","","","","","","","","","","","","","","","","feedback_test"
"","","","","","psychophysics","90","339948","0.0-9.0-0.0-0.15","1350","","j","","","","","","","","","","","","","key","j","6.9439637883009215","960","536","j","true","img/C_ambi40.png","方形","prac_word_first",""
"","","","","","html-keyboard-response","91","340249","0.0-9.0-0.0-1.15","null","<span style='color:GreenYellow; font-size: 70px;'>正确! </span>","null","","","","","","","","","","","","","","","","","","","","","","","feedback_test"
"","","","","","psychophysics","92","342343","0.0-9.0-0.0-0.16","942","","j","","","","","","","","","","","","","key","j","6.9441495016611725","960","536","j","true","img/T_ambi40.png","方形","prac_word_first",""
"","","","","","html-keyboard-response","93","342645","0.0-9.0-0.0-1.16","null","<span style='color:GreenYellow; font-size: 70px;'>正确! </span>","null","","","","","","","","","","","","","","","","","","","","","","","feedback_test"
"","","","","","psychophysics","94","344780","0.0-9.0-0.0-0.17","983","","j","","","","","","","","","","","","","key","j","6.94573615635184","960","536","j","true","img/S_ambi40.png","圆形","prac_word_first",""
"","","","","","html-keyboard-response","95","345081","0.0-9.0-0.0-1.17","null","<span style='color:GreenYellow; font-size: 70px;'>正确! </span>","null","","","","","","","","","","","","","","","","","","","","","","","feedback_test"
"","","","","","psychophysics","96","346966","0.0-9.0-0.0-0.18","734","","f","","","","","","","","","","","","","key","f","6.944577777777859","960","536","f","true","img/T_ambi40.png","三角","prac_word_first",""
"","","","","","html-keyboard-response","97","347267","0.0-9.0-0.0-1.18","null","<span style='color:GreenYellow; font-size: 70px;'>正确! </span>","null","","","","","","","","","","","","","","","","","","","","","","","feedback_test"
"","","","","","psychophysics","98","349040","0.0-9.0-0.0-0.19","622","","f","","","","","","","","","","","","","key","f","6.94476771653551","960","536","f","true","img/C_ambi40.png","圆形","prac_word_first",""
"","","","","","html-keyboard-response","99","349342","0.0-9.0-0.0-1.19","null","<span style='color:GreenYellow; font-size: 70px;'>正确! </span>","null","","","","","","","","","","","","","","","","","","","","","","","feedback_test"
"","","","","","psychophysics","100","351044","0.0-9.0-0.0-0.20","551","","j","","","","","","","","","","","","","key","j","6.944086065573845","960","536","j","true","img/S_ambi40.png","三角","prac_word_first",""
"","","","","","html-keyboard-response","101","351346","0.0-9.0-0.0-1.20","null","<span style='color:GreenYellow; font-size: 70px;'>正确! </span>","null","","","","","","","","","","","","","","","","","","","","","","","feedback_test"
"","","","","","psychophysics","102","353182","0.0-9.0-0.0-0.21","684","","f","","","","","","","","","","","","","key","f","6.9410456273764085","960","536","f","true","img/C_ambi40.png","圆形","prac_word_first",""
"","","","","","html-keyboard-response","103","353483","0.0-9.0-0.0-1.21","null","<span style='color:GreenYellow; font-size: 70px;'>正确! </span>","null","","","","","","","","","","","","","","","","","","","","","","","feedback_test"
"","","","","","psychophysics","104","355260","0.0-9.0-0.0-0.22","626","","f","","","","","","","","","","","","","key","f","6.94447450980398","960","536","f","true","img/S_ambi40.png","方形","prac_word_first",""
"","","","","","html-keyboard-response","105","355562","0.0-9.0-0.0-1.22","null","<span style='color:GreenYellow; font-size: 70px;'>正确! </span>","null","","","","","","","","","","","","","","","","","","","","","","","feedback_test"
"","","","","","psychophysics","106","357266","0.0-9.0-0.0-0.23","552","","f","","","","","","","","","","","","","key","f","6.942959016393422","960","536","f","true","img/T_ambi40.png","三角","prac_word_first",""
"","","","","","html-keyboard-response","107","357567","0.0-9.0-0.0-1.23","null","<span style='color:GreenYellow; font-size: 70px;'>正确! </span>","null","","","","","","","","","","","","","","","","","","","","","","","feedback_test"
"","","","","","html-keyboard-response","108","363155","0.0-10.0","5586","<style>.context{color:white; font-size: 35px; line-height:40px}</style>                            <div><p class='context'>您正确回答了92% 的试次。</p><p class='context'>您的平均反应时为719毫秒。</p><p class='context'>恭喜您完成练习。按任意键进入<span style='color: yellow;'>图形和文字同时呈现条件</span>的练习。</p></div>"," ","","","","","","","","","","","","","","","","","","","","","","",""
"","","","","","psychophysics","109","364794","0.0-11.0-0.0-0.0","637","","f","","","","","","","","","","","","","key","f","6.944344680850949","960","536","f","true","img/C_ambi40.png","圆形","prac_simultaneous",""
"","","","","","html-keyboard-response","110","365095","0.0-11.0-0.0-1.0","null","<span style='color:GreenYellow; font-size: 70px;'>正确! </span>","null","","","","","","","","","","","","","","","","","","","","","","","feedback_test"
"","","","","","psychophysics","111","366844","0.0-11.0-0.0-0.1","749","","f","","","","","","","","","","","","","key","f","6.9445019920319","960","536","j","false","img/S_ambi40.png","圆形","prac_simultaneous",""
"","","","","","html-keyboard-response","112","367145","0.0-11.0-0.0-1.1","null","<span style='color:red; font-size: 70px;'>错误! </span>","null","","","","","","","","","","","","","","","","","","","","","","","feedback_test"
"","","","","","psychophysics","113","369383","0.0-11.0-0.0-0.2","1238","","j","","","","","","","","","","","","","key","j","6.943619937694709","960","536","f","false","img/C_ambi40.png","圆形","prac_simultaneous",""
"","","","","","html-keyboard-response","114","369684","0.0-11.0-0.0-1.2","null","<span style='color:red; font-size: 70px;'>错误! </span>","null","","","","","","","","","","","","","","","","","","","","","","","feedback_test"
"","","","","","psychophysics","115","371458","0.0-11.0-0.0-0.3","773","","f","","","","","","","","","","","","","key","f","6.944401574803252","960","536","f","true","img/T_ambi40.png","三角","prac_simultaneous",""
"","","","","","html-keyboard-response","116","371759","0.0-11.0-0.0-1.3","null","<span style='color:GreenYellow; font-size: 70px;'>正确! </span>","null","","","","","","","","","","","","","","","","","","","","","","","feedback_test"
"","","","","","psychophysics","117","373590","0.0-11.0-0.0-0.4","830","","j","","","","","","","","","","","","","key","j","6.943561068702469","960","536","j","true","img/T_ambi40.png","圆形","prac_simultaneous",""
"","","","","","html-keyboard-response","118","373892","0.0-11.0-0.0-1.4","null","<span style='color:GreenYellow; font-size: 70px;'>正确! </span>","null","","","","","","","","","","","","","","","","","","","","","","","feedback_test"
"","","","","","psychophysics","119","376239","0.0-11.0-0.0-0.5","1346","","f","","","","","","","","","","","","","key","f","6.944522255192889","960","536","j","false","img/C_ambi40.png","方形","prac_simultaneous",""
"","","","","","html-keyboard-response","120","376541","0.0-11.0-0.0-1.5","null","<span style='color:red; font-size: 70px;'>错误! </span>","null","","","","","","","","","","","","","","","","","","","","","","","feedback_test"
"","","","","","psychophysics","121","378578","0.0-11.0-0.0-0.6","1036","","f","","","","","","","","","","","","","key","f","6.942749999999986","960","536","f","true","img/S_ambi40.png","方形","prac_simultaneous",""
"","","","","","html-keyboard-response","122","378879","0.0-11.0-0.0-1.6","null","<span style='color:GreenYellow; font-size: 70px;'>正确! </span>","null","","","","","","","","","","","","","","","","","","","","","","","feedback_test"
"","","","","","psychophysics","123","380591","0.0-11.0-0.0-0.7","711","","f","","","","","","","","","","","","","key","f","6.944231707317143","960","536","j","false","img/C_ambi40.png","三角","prac_simultaneous",""
"","","","","","html-keyboard-response","124","380892","0.0-11.0-0.0-1.7","null","<span style='color:red; font-size: 70px;'>错误! </span>","null","","","","","","","","","","","","","","","","","","","","","","","feedback_test"
"","","","","","psychophysics","125","382578","0.0-11.0-0.0-0.8","685","","f","","","","","","","","","","","","","key","f","6.944247933884425","960","536","f","true","img/T_ambi40.png","三角","prac_simultaneous",""
"","","","","","html-keyboard-response","126","382881","0.0-11.0-0.0-1.8","null","<span style='color:GreenYellow; font-size: 70px;'>正确! </span>","null","","","","","","","","","","","","","","","","","","","","","","","feedback_test"
"","","","","","psychophysics","127","384599","0.0-11.0-0.0-0.9","717","","f","","","","","","","","","","","","","key","f","6.942479674796654","960","536","f","true","img/S_ambi40.png","方形","prac_simultaneous",""
"","","","","","html-keyboard-response","128","384900","0.0-11.0-0.0-1.9","null","<span style='color:GreenYellow; font-size: 70px;'>正确! </span>","null","","","","","","","","","","","","","","","","","","","","","","","feedback_test"
"","","","","","psychophysics","129","386554","0.0-11.0-0.0-0.10","652","","j","","","","","","","","","","","","","key","j","6.944219409282819","960","536","j","true","img/S_ambi40.png","三角","prac_simultaneous",""
"","","","","","html-keyboard-response","130","386855","0.0-11.0-0.0-1.10","null","<span style='color:GreenYellow; font-size: 70px;'>正确! </span>","null","","","","","","","","","","","","","","","","","","","","","","","feedback_test"
"","","","","","psychophysics","131","388773","0.0-11.0-0.0-0.11","917","","j","","","","","","","","","","","","","key","j","6.94372363636376","960","536","j","true","img/T_ambi40.png","方形","prac_simultaneous",""
"","","","","","html-keyboard-response","132","389074","0.0-11.0-0.0-1.11","null","<span style='color:GreenYellow; font-size: 70px;'>正确! </span>","null","","","","","","","","","","","","","","","","","","","","","","","feedback_test"
"","","","","","psychophysics","133","390960","0.0-11.0-0.0-0.12","884","","j","","","","","","","","","","","","","key","j","6.94462361623601","960","536","j","true","img/T_ambi40.png","方形","prac_simultaneous",""
"","","","","","html-keyboard-response","134","391261","0.0-11.0-0.0-1.12","null","<span style='color:GreenYellow; font-size: 70px;'>正确! </span>","null","","","","","","","","","","","","","","","","","","","","","","","feedback_test"
"","","","","","psychophysics","135","393531","0.0-11.0-0.0-0.13","1270","","f","","","","","","","","","","","","","key","f","6.9445398773005635","960","536","f","true","img/S_ambi40.png","方形","prac_simultaneous",""
"","","","","","html-keyboard-response","136","393832","0.0-11.0-0.0-1.13","null","<span style='color:GreenYellow; font-size: 70px;'>正确! </span>","null","","","","","","","","","","","","","","","","","","","","","","","feedback_test"
"","","","","","psychophysics","137","395648","0.0-11.0-0.0-0.14","815","","f","","","","","","","","","","","","","key","f","6.942469230769068","960","536","f","true","img/C_ambi40.png","圆形","prac_simultaneous",""
"","","","","","html-keyboard-response","138","395950","0.0-11.0-0.0-1.14","null","<span style='color:GreenYellow; font-size: 70px;'>正确! </span>","null","","","","","","","","","","","","","","","","","","","","","","","feedback_test"
"","","","","","psychophysics","139","398072","0.0-11.0-0.0-0.15","1121","","j","","","","","","","","","","","","","key","j","6.942562499999966","960","536","j","true","img/C_ambi40.png","方形","prac_simultaneous",""
"","","","","","html-keyboard-response","140","398374","0.0-11.0-0.0-1.15","null","<span style='color:GreenYellow; font-size: 70px;'>正确! </span>","null","","","","","","","","","","","","","","","","","","","","","","","feedback_test"
"","","","","","psychophysics","141","400016","0.0-11.0-0.0-0.16","641","","f","","","","","","","","","","","","","key","f","6.944178723404431","960","536","j","false","img/C_ambi40.png","三角","prac_simultaneous",""
"","","","","","html-keyboard-response","142","400317","0.0-11.0-0.0-1.16","null","<span style='color:red; font-size: 70px;'>错误! </span>","null","","","","","","","","","","","","","","","","","","","","","","","feedback_test"
"","","","","","psychophysics","143","401967","0.0-11.0-0.0-0.17","648","","f","","","","","","","","","","","","","key","f","6.9442109704640975","960","536","f","true","img/T_ambi40.png","三角","prac_simultaneous",""
"","","","","","html-keyboard-response","144","402269","0.0-11.0-0.0-1.17","null","<span style='color:GreenYellow; font-size: 70px;'>正确! </span>","null","","","","","","","","","","","","","","","","","","","","","","","feedback_test"
"","","","","","psychophysics","145","404129","0.0-11.0-0.0-0.18","859","","f","","","","","","","","","","","","","key","f","6.94434082397013","960","536","f","true","img/S_ambi40.png","方形","prac_simultaneous",""
"","","","","","html-keyboard-response","146","404430","0.0-11.0-0.0-1.18","null","<span style='color:GreenYellow; font-size: 70px;'>正确! </span>","null","","","","","","","","","","","","","","","","","","","","","","","feedback_test"
"","","","","","psychophysics","147","406428","0.0-11.0-0.0-0.19","997","","j","","","","","","","","","","","","","key","j","6.9416445993030615","960","536","j","true","img/S_ambi40.png","圆形","prac_simultaneous",""
"","","","","","html-keyboard-response","148","406730","0.0-11.0-0.0-1.19","null","<span style='color:GreenYellow; font-size: 70px;'>正确! </span>","null","","","","","","","","","","","","","","","","","","","","","","","feedback_test"
"","","","","","psychophysics","149","408335","0.0-11.0-0.0-0.20","603","","f","","","","","","","","","","","","","key","f","6.943478260869565","960","536","f","true","img/T_ambi40.png","三角","prac_simultaneous",""
"","","","","","html-keyboard-response","150","408637","0.0-11.0-0.0-1.20","null","<span style='color:GreenYellow; font-size: 70px;'>正确! </span>","null","","","","","","","","","","","","","","","","","","","","","","","feedback_test"
"","","","","","psychophysics","151","410796","0.0-11.0-0.0-0.21","1158","","j","","","","","","","","","","","","","key","j","6.943993548387211","960","536","j","true","img/T_ambi40.png","圆形","prac_simultaneous",""
"","","","","","html-keyboard-response","152","411098","0.0-11.0-0.0-1.21","null","<span style='color:GreenYellow; font-size: 70px;'>正确! </span>","null","","","","","","","","","","","","","","","","","","","","","","","feedback_test"
"","","","","","psychophysics","153","413088","0.0-11.0-0.0-0.22","989","","f","","","","","","","","","","","","","key","f","6.943663157894595","960","536","f","true","img/C_ambi40.png","圆形","prac_simultaneous",""
"","","","","","html-keyboard-response","154","413390","0.0-11.0-0.0-1.22","null","<span style='color:GreenYellow; font-size: 70px;'>正确! </span>","null","","","","","","","","","","","","","","","","","","","","","","","feedback_test"
"","","","","","psychophysics","155","415067","0.0-11.0-0.0-0.23","677","","j","","","","","","","","","","","","","key","j","6.943654166666723","960","536","j","true","img/S_ambi40.png","三角","prac_simultaneous",""
"","","","","","html-keyboard-response","156","415369","0.0-11.0-0.0-1.23","null","<span style='color:GreenYellow; font-size: 70px;'>正确! </span>","null","","","","","","","","","","","","","","","","","","","","","","","feedback_test"
"","","","","","html-keyboard-response","157","416634","0.0-12.0","1264","<style>.context{color:white; font-size: 35px; line-height:40px}</style>                            <div><p class='context'>您正确回答了79% 的试次。</p><p class='context'>您的平均反应时为856毫秒。</p><p class='context'>恭喜您完成练习。按任意键进入正式实验。</p><p class='footer' style='font-size: 35px; line-height:40px;'>请在进入正式实验实验之前将您的<span style='color: lightgreen;'>食指</span>放在电脑键盘的相应键位上进行按键。</p>"," ","","","","","","","","","","","","","","","","","","","","","","",""
"","","","","","html-keyboard-response","158","418376","0.0-13.0-1.0-0.0","1739","
    <p>请您将手指放在按键上，准备进入呈现顺序为<span style='color: yellow;'>先文字后图形条件</span>的正式匹配任务</p>
    <p> <div style = ""color: green""><按任意键进入下一阶段的匹配任务></div></p>
    "," ","","","","","","","","","","","","","","","","","","","","","","",""
"","","","","","psychophysics","159","420374","0.0-13.0-1.0-1.0-0.0-0.0","847","","j","","","","","","","","","","","","","key","j","6.9440454545455665","960","536","j","true","img/T_ambi40.png","圆形","word_first",""
"","","","","","html-keyboard-response","160","420676","0.0-13.0-1.0-1.0-0.0-1.0","null","<span style='color:GreenYellow; font-size: 70px;'>正确! </span>","null","","","","","","","","","","","","","","","","","","","","","","","feedback_test"
"","","","","","psychophysics","161","422349","0.0-13.0-1.0-1.0-0.0-0.1","522","","f","","","","","","","","","","","","","key","f","6.9444541666666435","960","536","f","true","img/S_ambi40.png","方形","word_first",""
"","","","","","html-keyboard-response","162","422651","0.0-13.0-1.0-1.0-0.0-1.1","null","<span style='color:GreenYellow; font-size: 70px;'>正确! </span>","null","","","","","","","","","","","","","","","","","","","","","","","feedback_test"
"","","","","","psychophysics","163","424297","0.0-13.0-1.0-1.0-0.0-0.2","495","","f","","","","","","","","","","","","","key","f","6.941893617021158","960","536","f","true","img/T_ambi40.png","三角","word_first",""
"","","","","","html-keyboard-response","164","424598","0.0-13.0-1.0-1.0-0.0-1.2","null","<span style='color:GreenYellow; font-size: 70px;'>正确! </span>","null","","","","","","","","","","","","","","","","","","","","","","","feedback_test"
"","","","","","psychophysics","165","426352","0.0-13.0-1.0-1.0-0.0-0.3","603","","f","","","","","","","","","","","","","key","f","6.944752988047699","960","536","f","true","img/C_ambi40.png","圆形","word_first",""
"","","","","","html-keyboard-response","166","426654","0.0-13.0-1.0-1.0-0.0-1.3","null","<span style='color:GreenYellow; font-size: 70px;'>正确! </span>","null","","","","","","","","","","","","","","","","","","","","","","","feedback_test"
"","","","","","psychophysics","167","428446","0.0-13.0-1.0-1.0-0.0-0.4","641","","f","","","","","","","","","","","","","key","f","6.944311284046785","960","536","f","true","img/S_ambi40.png","方形","word_first",""
"","","","","","html-keyboard-response","168","428748","0.0-13.0-1.0-1.0-0.0-1.4","null","<span style='color:GreenYellow; font-size: 70px;'>正确! </span>","null","","","","","","","","","","","","","","","","","","","","","","","feedback_test"
"","","","","","psychophysics","169","430370","0.0-13.0-1.0-1.0-0.0-0.5","469","","f","","","","","","","","","","","","","key","f","6.942517241379266","960","536","f","true","img/T_ambi40.png","三角","word_first",""
"","","","","","html-keyboard-response","170","430670","0.0-13.0-1.0-1.0-0.0-1.5","null","<span style='color:GreenYellow; font-size: 70px;'>正确! </span>","null","","","","","","","","","","","","","","","","","","","","","","","feedback_test"
"","","","","","psychophysics","171","432427","0.0-13.0-1.0-1.0-0.0-0.6","606","","j","","","","","","","","","","","","","key","j","6.944436507936362","960","536","j","true","img/S_ambi40.png","圆形","word_first",""
"","","","","","html-keyboard-response","172","432729","0.0-13.0-1.0-1.0-0.0-1.6","null","<span style='color:GreenYellow; font-size: 70px;'>正确! </span>","null","","","","","","","","","","","","","","","","","","","","","","","feedback_test"
"","","","","","psychophysics","173","434680","0.0-13.0-1.0-1.0-0.0-0.7","800","","j","","","","","","","","","","","","","key","j","6.9441928571428955","960","536","j","true","img/C_ambi40.png","三角","word_first",""
"","","","","","html-keyboard-response","174","434981","0.0-13.0-1.0-1.0-0.0-1.7","null","<span style='color:GreenYellow; font-size: 70px;'>正确! </span>","null","","","","","","","","","","","","","","","","","","","","","","","feedback_test"
"","","","","","psychophysics","175","436600","0.0-13.0-1.0-1.0-0.0-0.8","469","","f","","","","","","","","","","","","","key","f","6.944038793103416","960","536","j","false","img/S_ambi40.png","三角","word_first",""
"","","","","","html-keyboard-response","176","436902","0.0-13.0-1.0-1.0-0.0-1.8","null","<span style='color:red; font-size: 70px;'>错误! </span>","null","","","","","","","","","","","","","","","","","","","","","","","feedback_test"
"","","","","","psychophysics","177","438753","0.0-13.0-1.0-1.0-0.0-0.9","699","","j","","","","","","","","","","","","","key","j","6.944324528301829","960","536","j","true","img/C_ambi40.png","方形","word_first",""
"","","","","","html-keyboard-response","178","439054","0.0-13.0-1.0-1.0-0.0-1.9","null","<span style='color:GreenYellow; font-size: 70px;'>正确! </span>","null","","","","","","","","","","","","","","","","","","","","","","","feedback_test"
"","","","","","psychophysics","179","440880","0.0-13.0-1.0-1.0-0.0-0.10","673","","f","","","","","","","","","","","","","key","f","6.944888888889035","960","536","j","false","img/T_ambi40.png","方形","word_first",""
"","","","","","html-keyboard-response","180","441180","0.0-13.0-1.0-1.0-0.0-1.10","null","<span style='color:red; font-size: 70px;'>错误! </span>","null","","","","","","","","","","","","","","","","","","","","","","","feedback_test"
"","","","","","psychophysics","181","442908","0.0-13.0-1.0-1.0-0.0-0.11","575","","f","","","","","","","","","","","","","key","f","6.944271255060672","960","536","f","true","img/C_ambi40.png","圆形","word_first",""
"","","","","","html-keyboard-response","182","443209","0.0-13.0-1.0-1.0-0.0-1.11","null","<span style='color:GreenYellow; font-size: 70px;'>正确! </span>","null","","","","","","","","","","","","","","","","","","","","","","","feedback_test"
"","","","","","psychophysics","183","444994","0.0-13.0-1.0-1.0-0.0-0.12","633","","f","","","","","","","","","","","","","key","f","6.944437500000049","960","536","f","true","img/C_ambi40.png","圆形","word_first",""
"","","","","","html-keyboard-response","184","445295","0.0-13.0-1.0-1.0-0.0-1.12","null","<span style='color:GreenYellow; font-size: 70px;'>正确! </span>","null","","","","","","","","","","","","","","","","","","","","","","","feedback_test"
"","","","","","psychophysics","185","446996","0.0-13.0-1.0-1.0-0.0-0.13","550","","j","","","","","","","","","","","","","key","j","6.94412295081959","960","536","j","true","img/S_ambi40.png","圆形","word_first",""
"","","","","","html-keyboard-response","186","447298","0.0-13.0-1.0-1.0-0.0-1.13","null","<span style='color:GreenYellow; font-size: 70px;'>正确! </span>","null","","","","","","","","","","","","","","","","","","","","","","","feedback_test"
"","","","","","psychophysics","187","448904","0.0-13.0-1.0-1.0-0.0-0.14","455","","f","","","","","","","","","","","","","key","f","6.944282608695642","960","536","f","true","img/T_ambi40.png","三角","word_first",""
"","","","","","html-keyboard-response","188","449206","0.0-13.0-1.0-1.0-0.0-1.14","null","<span style='color:GreenYellow; font-size: 70px;'>正确! </span>","null","","","","","","","","","","","","","","","","","","","","","","","feedback_test"
"","","","","","psychophysics","189","450993","0.0-13.0-1.0-1.0-0.0-0.15","636","","f","","","","","","","","","","","","","key","f","6.971609374999844","960","536","f","true","img/S_ambi40.png","方形","word_first",""
"","","","","","html-keyboard-response","190","451295","0.0-13.0-1.0-1.0-0.0-1.15","null","<span style='color:GreenYellow; font-size: 70px;'>正确! </span>","null","","","","","","","","","","","","","","","","","","","","","","","feedback_test"
"","","","","","psychophysics","191","452941","0.0-13.0-1.0-1.0-0.0-0.16","495","","j","","","","","","","","","","","","","key","j","6.944792372881439","960","536","j","true","img/S_ambi40.png","三角","word_first",""
"","","","","","html-keyboard-response","192","453242","0.0-13.0-1.0-1.0-0.0-1.16","null","<span style='color:GreenYellow; font-size: 70px;'>正确! </span>","null","","","","","","","","","","","","","","","","","","","","","","","feedback_test"
"","","","","","psychophysics","193","455035","0.0-13.0-1.0-1.0-0.0-0.17","642","","f","","","","","","","","","","","","","key","f","6.943610894941528","960","536","f","true","img/C_ambi40.png","圆形","word_first",""
"","","","","","html-keyboard-response","194","455335","0.0-13.0-1.0-1.0-0.0-1.17","null","<span style='color:GreenYellow; font-size: 70px;'>正确! </span>","null","","","","","","","","","","","","","","","","","","","","","","","feedback_test"
"","","","","","psychophysics","195","456959","0.0-13.0-1.0-1.0-0.0-0.18","473","","f","","","","","","","","","","","","","key","f","7.004701298701343","960","536","f","true","img/T_ambi40.png","三角","word_first",""
"","","","","","html-keyboard-response","196","457261","0.0-13.0-1.0-1.0-0.0-1.18","null","<span style='color:GreenYellow; font-size: 70px;'>正确! </span>","null","","","","","","","","","","","","","","","","","","","","","","","feedback_test"
"","","","","","psychophysics","197","458970","0.0-13.0-1.0-1.0-0.0-0.19","558","","j","","","","","","","","","","","","","key","j","6.9441387755102575","960","536","j","true","img/C_ambi40.png","三角","word_first",""
"","","","","","html-keyboard-response","198","459271","0.0-13.0-1.0-1.0-0.0-1.19","null","<span style='color:GreenYellow; font-size: 70px;'>正确! </span>","null","","","","","","","","","","","","","","","","","","","","","","","feedback_test"
"","","","","","psychophysics","199","461055","0.0-13.0-1.0-1.0-0.0-0.20","633","","j","","","","","","","","","","","","","key","j","6.944328124999856","960","536","j","true","img/C_ambi40.png","方形","word_first",""
"","","","","","html-keyboard-response","200","461356","0.0-13.0-1.0-1.0-0.0-1.20","null","<span style='color:GreenYellow; font-size: 70px;'>正确! </span>","null","","","","","","","","","","","","","","","","","","","","","","","feedback_test"
"","","","","","psychophysics","201","463044","0.0-13.0-1.0-1.0-0.0-0.21","536","","f","","","","","","","","","","","","","key","f","6.943859504132189","960","536","j","false","img/T_ambi40.png","圆形","word_first",""
"","","","","","html-keyboard-response","202","463345","0.0-13.0-1.0-1.0-0.0-1.21","null","<span style='color:red; font-size: 70px;'>错误! </span>","null","","","","","","","","","","","","","","","","","","","","","","","feedback_test"
"","","","","","psychophysics","203","465242","0.0-13.0-1.0-1.0-0.0-0.22","747","","f","","","","","","","","","","","","","key","f","6.943775735294313","960","536","f","true","img/S_ambi40.png","方形","word_first",""
"","","","","","html-keyboard-response","204","465545","0.0-13.0-1.0-1.0-0.0-1.22","null","<span style='color:GreenYellow; font-size: 70px;'>正确! </span>","null","","","","","","","","","","","","","","","","","","","","","","","feedback_test"
"","","","","","psychophysics","205","467769","0.0-13.0-1.0-1.0-0.0-0.23","1073","","j","","","","","","","","","","","","","key","j","6.944443750000028","960","536","j","true","img/T_ambi40.png","方形","word_first",""
"","","","","","html-keyboard-response","206","468070","0.0-13.0-1.0-1.0-0.0-1.23","null","<span style='color:GreenYellow; font-size: 70px;'>正确! </span>","null","","","","","","","","","","","","","","","","","","","","","","","feedback_test"
"","","","","","psychophysics","207","469807","0.0-13.0-1.0-1.0-0.0-0.24","586","","j","","","","","","","","","","","","","key","j","6.944313253011895","960","536","j","true","img/T_ambi40.png","圆形","word_first",""
"","","","","","html-keyboard-response","208","470107","0.0-13.0-1.0-1.0-0.0-1.24","null","<span style='color:GreenYellow; font-size: 70px;'>正确! </span>","null","","","","","","","","","","","","","","","","","","","","","","","feedback_test"
"","","","","","psychophysics","209","472062","0.0-13.0-1.0-1.0-0.0-0.25","803","","j","","","","","","","","","","","","","key","j","6.944309608541012","960","536","j","true","img/T_ambi40.png","方形","word_first",""
"","","","","","html-keyboard-response","210","472364","0.0-13.0-1.0-1.0-0.0-1.25","null","<span style='color:GreenYellow; font-size: 70px;'>正确! </span>","null","","","","","","","","","","","","","","","","","","","","","","","feedback_test"
"","","","","","psychophysics","211","474173","0.0-13.0-1.0-1.0-0.0-0.26","657","","j","","","","","","","","","","","","","key","j","6.944184615384662","960","536","j","true","img/S_ambi40.png","三角","word_first",""
"","","","","","html-keyboard-response","212","474474","0.0-13.0-1.0-1.0-0.0-1.26","null","<span style='color:GreenYellow; font-size: 70px;'>正确! </span>","null","","","","","","","","","","","","","","","","","","","","","","","feedback_test"
"","","","","","psychophysics","213","476205","0.0-13.0-1.0-1.0-0.0-0.27","579","","j","","","","","","","","","","","","","key","j","6.9441854838709505","960","536","j","true","img/C_ambi40.png","三角","word_first",""
"","","","","","html-keyboard-response","214","476506","0.0-13.0-1.0-1.0-0.0-1.27","null","<span style='color:GreenYellow; font-size: 70px;'>正确! </span>","null","","","","","","","","","","","","","","","","","","","","","","","feedback_test"
"","","","","","psychophysics","215","478778","0.0-13.0-1.0-1.0-0.0-0.28","1121","","f","","","","","","","","","","","","","key","f","6.944312883435464","960","536","f","true","img/S_ambi40.png","方形","word_first",""
"","","","","","html-keyboard-response","216","479079","0.0-13.0-1.0-1.0-0.0-1.28","null","<span style='color:GreenYellow; font-size: 70px;'>正确! </span>","null","","","","","","","","","","","","","","","","","","","","","","","feedback_test"
"","","","","","psychophysics","217","480862","0.0-13.0-1.0-1.0-0.0-0.29","632","","f","","","","","","","","","","","","","key","f","6.944054687500056","960","536","f","true","img/S_ambi40.png","方形","word_first",""
"","","","","","html-keyboard-response","218","481163","0.0-13.0-1.0-1.0-0.0-1.29","null","<span style='color:GreenYellow; font-size: 70px;'>正确! </span>","null","","","","","","","","","","","","","","","","","","","","","","","feedback_test"
"","","","","","psychophysics","219","482945","0.0-13.0-1.0-1.0-0.0-0.30","632","","f","","","","","","","","","","","","","key","f","6.944535156249913","960","536","f","true","img/T_ambi40.png","三角","word_first",""
"","","","","","html-keyboard-response","220","483246","0.0-13.0-1.0-1.0-0.0-1.30","null","<span style='color:GreenYellow; font-size: 70px;'>正确! </span>","null","","","","","","","","","","","","","","","","","","","","","","","feedback_test"
"","","","","","psychophysics","221","485090","0.0-13.0-1.0-1.0-0.0-0.31","694","","j","","","","","","","","","","","","","key","j","6.944577358490656","960","536","j","true","img/C_ambi40.png","方形","word_first",""
"","","","","","html-keyboard-response","222","485391","0.0-13.0-1.0-1.0-0.0-1.31","null","<span style='color:GreenYellow; font-size: 70px;'>正确! </span>","null","","","","","","","","","","","","","","","","","","","","","","","feedback_test"
"","","","","","psychophysics","223","487107","0.0-13.0-1.0-1.0-0.0-0.32","564","","f","","","","","","","","","","","","","key","f","6.9444552845528875","960","536","f","true","img/T_ambi40.png","三角","word_first",""
"","","","","","html-keyboard-response","224","487408","0.0-13.0-1.0-1.0-0.0-1.32","null","<span style='color:GreenYellow; font-size: 70px;'>正确! </span>","null","","","","","","","","","","","","","","","","","","","","","","","feedback_test"
"","","","","","psychophysics","225","489135","0.0-13.0-1.0-1.0-0.0-0.33","575","","j","","","","","","","","","","","","","key","j","6.94478947368426","960","536","j","true","img/S_ambi40.png","圆形","word_first",""
"","","","","","html-keyboard-response","226","489437","0.0-13.0-1.0-1.0-0.0-1.33","null","<span style='color:GreenYellow; font-size: 70px;'>正确! </span>","null","","","","","","","","","","","","","","","","","","","","","","","feedback_test"
"","","","","","psychophysics","227","491015","0.0-13.0-1.0-1.0-0.0-0.34","428","","f","","","","","","","","","","","","","key","f","6.944221238937925","960","536","f","true","img/C_ambi40.png","圆形","word_first",""
"","","","","","html-keyboard-response","228","491317","0.0-13.0-1.0-1.0-0.0-1.34","null","<span style='color:GreenYellow; font-size: 70px;'>正确! </span>","null","","","","","","","","","","","","","","","","","","","","","","","feedback_test"
"","","","","","psychophysics","229","492918","0.0-13.0-1.0-1.0-0.0-0.35","450","","f","","","","","","","","","","","","","key","f","6.94435371179032","960","536","f","true","img/C_ambi40.png","圆形","word_first",""
"","","","","","html-keyboard-response","230","493219","0.0-13.0-1.0-1.0-0.0-1.35","null","<span style='color:GreenYellow; font-size: 70px;'>正确! </span>","null","","","","","","","","","","","","","","","","","","","","","","","feedback_test"
"","","","","","psychophysics","231","495007","0.0-13.0-1.0-1.0-0.0-0.36","637","","f","","","","","","","","","","","","","key","f","6.944402343749971","960","536","f","true","img/T_ambi40.png","三角","word_first",""
"","","","","","html-keyboard-response","232","495309","0.0-13.0-1.0-1.0-0.0-1.36","null","<span style='color:GreenYellow; font-size: 70px;'>正确! </span>","null","","","","","","","","","","","","","","","","","","","","","","","feedback_test"
"","","","","","psychophysics","233","496942","0.0-13.0-1.0-1.0-0.0-0.37","482","","f","","","","","","","","","","","","","key","f","6.9441659574471215","960","536","f","true","img/C_ambi40.png","圆形","word_first",""
"","","","","","html-keyboard-response","234","497243","0.0-13.0-1.0-1.0-0.0-1.37","null","<span style='color:GreenYellow; font-size: 70px;'>正确! </span>","null","","","","","","","","","","","","","","","","","","","","","","","feedback_test"
"","","","","","psychophysics","235","499111","0.0-13.0-1.0-1.0-0.0-0.38","718","","j","","","","","","","","","","","","","key","j","6.944347014925668","960","536","j","true","img/T_ambi40.png","圆形","word_first",""
"","","","","","html-keyboard-response","236","499412","0.0-13.0-1.0-1.0-0.0-1.38","null","<span style='color:GreenYellow; font-size: 70px;'>正确! </span>","null","","","","","","","","","","","","","","","","","","","","","","","feedback_test"
"","","","","","psychophysics","237","501083","0.0-13.0-1.0-1.0-0.0-0.39","519","","f","","","","","","","","","","","","","key","f","6.944058333333427","960","536","j","false","img/C_ambi40.png","方形","word_first",""
"","","","","","html-keyboard-response","238","501384","0.0-13.0-1.0-1.0-0.0-1.39","null","<span style='color:red; font-size: 70px;'>错误! </span>","null","","","","","","","","","","","","","","","","","","","","","","","feedback_test"
"","","","","","psychophysics","239","503374","0.0-13.0-1.0-1.0-0.0-0.40","838","","f","","","","","","","","","","","","","key","f","6.944153846154019","960","536","f","true","img/S_ambi40.png","方形","word_first",""
"","","","","","html-keyboard-response","240","503675","0.0-13.0-1.0-1.0-0.0-1.40","null","<span style='color:GreenYellow; font-size: 70px;'>正确! </span>","null","","","","","","","","","","","","","","","","","","","","","","","feedback_test"
"","","","","","psychophysics","241","505335","0.0-13.0-1.0-1.0-0.0-0.41","509","","j","","","","","","","","","","","","","key","j","6.943516806722325","960","536","j","true","img/S_ambi40.png","三角","word_first",""
"","","","","","html-keyboard-response","242","505636","0.0-13.0-1.0-1.0-0.0-1.41","null","<span style='color:GreenYellow; font-size: 70px;'>正确! </span>","null","","","","","","","","","","","","","","","","","","","","","","","feedback_test"
"","","","","","psychophysics","243","507705","0.0-13.0-1.0-1.0-0.0-0.42","918","","j","","","","","","","","","","","","","key","j","6.944162162162389","960","536","j","true","img/S_ambi40.png","圆形","word_first",""
"","","","","","html-keyboard-response","244","508006","0.0-13.0-1.0-1.0-0.0-1.42","null","<span style='color:GreenYellow; font-size: 70px;'>正确! </span>","null","","","","","","","","","","","","","","","","","","","","","","","feedback_test"
"","","","","","psychophysics","245","510104","0.0-13.0-1.0-1.0-0.0-0.43","947","","f","","","","","","","","","","","","","key","f","6.944518272425017","960","536","f","true","img/S_ambi40.png","方形","word_first",""
"","","","","","html-keyboard-response","246","510405","0.0-13.0-1.0-1.0-0.0-1.43","null","<span style='color:GreenYellow; font-size: 70px;'>正确! </span>","null","","","","","","","","","","","","","","","","","","","","","","","feedback_test"
"","","","","","psychophysics","247","512298","0.0-13.0-1.0-1.0-0.0-0.44","742","","j","","","","","","","","","","","","","key","j","6.94406250000012","960","536","j","true","img/T_ambi40.png","方形","word_first",""
"","","","","","html-keyboard-response","248","512599","0.0-13.0-1.0-1.0-0.0-1.44","null","<span style='color:GreenYellow; font-size: 70px;'>正确! </span>","null","","","","","","","","","","","","","","","","","","","","","","","feedback_test"
"","","","","","psychophysics","249","514440","0.0-13.0-1.0-1.0-0.0-0.45","690","","j","","","","","","","","","","","","","key","j","6.944852272727241","960","536","j","true","img/C_ambi40.png","三角","word_first",""
"","","","","","html-keyboard-response","250","514741","0.0-13.0-1.0-1.0-0.0-1.45","null","<span style='color:GreenYellow; font-size: 70px;'>正确! </span>","null","","","","","","","","","","","","","","","","","","","","","","","feedback_test"
"","","","","","psychophysics","251","516681","0.0-13.0-1.0-1.0-0.0-0.46","788","","f","","","","","","","","","","","","","key","f","6.944205035971018","960","536","f","true","img/T_ambi40.png","三角","word_first",""
"","","","","","html-keyboard-response","252","516982","0.0-13.0-1.0-1.0-0.0-1.46","null","<span style='color:GreenYellow; font-size: 70px;'>正确! </span>","null","","","","","","","","","","","","","","","","","","","","","","","feedback_test"
"","","","","","psychophysics","253","519025","0.0-13.0-1.0-1.0-0.0-0.47","893","","f","","","","","","","","","","","","","key","f","6.941582191780956","960","536","f","true","img/C_ambi40.png","圆形","word_first",""
"","","","","","html-keyboard-response","254","519326","0.0-13.0-1.0-1.0-0.0-1.47","null","<span style='color:GreenYellow; font-size: 70px;'>正确! </span>","null","","","","","","","","","","","","","","","","","","","","","","","feedback_test"
"","","","","","psychophysics","255","520946","0.0-13.0-1.0-1.0-0.0-0.48","469","","f","","","","","","","","","","","","","key","f","6.944254310344494","960","536","f","true","img/C_ambi40.png","圆形","word_first",""
"","","","","","html-keyboard-response","256","521247","0.0-13.0-1.0-1.0-0.0-1.48","null","<span style='color:GreenYellow; font-size: 70px;'>正确! </span>","null","","","","","","","","","","","","","","","","","","","","","","","feedback_test"
"","","","","","psychophysics","257","523134","0.0-13.0-1.0-1.0-0.0-0.49","735","","f","","","","","","","","","","","","","key","f","6.944333333333661","960","536","f","true","img/S_ambi40.png","方形","word_first",""
"","","","","","html-keyboard-response","258","523434","0.0-13.0-1.0-1.0-0.0-1.49","null","<span style='color:GreenYellow; font-size: 70px;'>正确! </span>","null","","","","","","","","","","","","","","","","","","","","","","","feedback_test"
"","","","","","psychophysics","259","525311","0.0-13.0-1.0-1.0-0.0-0.50","725","","j","","","","","","","","","","","","","key","j","6.94449814126375","960","536","j","true","img/T_ambi40.png","方形","word_first",""
"","","","","","html-keyboard-response","260","525612","0.0-13.0-1.0-1.0-0.0-1.50","null","<span style='color:GreenYellow; font-size: 70px;'>正确! </span>","null","","","","","","","","","","","","","","","","","","","","","","","feedback_test"
"","","","","","psychophysics","261","527374","0.0-13.0-1.0-1.0-0.0-0.51","611","","j","","","","","","","","","","","","","key","j","6.944525691699476","960","536","j","true","img/T_ambi40.png","圆形","word_first",""
"","","","","","html-keyboard-response","262","527675","0.0-13.0-1.0-1.0-0.0-1.51","null","<span style='color:GreenYellow; font-size: 70px;'>正确! </span>","null","","","","","","","","","","","","","","","","","","","","","","","feedback_test"
"","","","","","psychophysics","263","529561","0.0-13.0-1.0-1.0-0.0-0.52","736","","j","","","","","","","","","","","","","key","j","6.9443357933576415","960","536","j","true","img/S_ambi40.png","圆形","word_first",""
"","","","","","html-keyboard-response","264","529864","0.0-13.0-1.0-1.0-0.0-1.52","null","<span style='color:GreenYellow; font-size: 70px;'>正确! </span>","null","","","","","","","","","","","","","","","","","","","","","","","feedback_test"
"","","","","","psychophysics","265","531864","0.0-13.0-1.0-1.0-0.0-0.53","849","","j","","","","","","","","","","","","","key","j","6.939769230769146","960","536","j","true","img/S_ambi40.png","三角","word_first",""
"","","","","","html-keyboard-response","266","532166","0.0-13.0-1.0-1.0-0.0-1.53","null","<span style='color:GreenYellow; font-size: 70px;'>正确! </span>","null","","","","","","","","","","","","","","","","","","","","","","","feedback_test"
"","","","","","psychophysics","267","534298","0.0-13.0-1.0-1.0-0.0-0.54","981","","f","","","","","","","","","","","","","key","f","6.944258169934543","960","536","j","false","img/C_ambi40.png","方形","word_first",""
"","","","","","html-keyboard-response","268","534600","0.0-13.0-1.0-1.0-0.0-1.54","null","<span style='color:red; font-size: 70px;'>错误! </span>","null","","","","","","","","","","","","","","","","","","","","","","","feedback_test"
"","","","","","psychophysics","269","536618","0.0-13.0-1.0-1.0-0.0-0.55","867","","f","","","","","","","","","","","","","key","f","6.966617241379371","960","536","f","true","img/C_ambi40.png","圆形","word_first",""
"","","","","","html-keyboard-response","270","536919","0.0-13.0-1.0-1.0-0.0-1.55","null","<span style='color:GreenYellow; font-size: 70px;'>正确! </span>","null","","","","","","","","","","","","","","","","","","","","","","","feedback_test"
"","","","","","psychophysics","271","539153","0.0-13.0-1.0-1.0-0.0-0.56","1081","","f","","","","","","","","","","","","","key","f","6.943449999999939","960","536","f","true","img/T_ambi40.png","三角","word_first",""
"","","","","","html-keyboard-response","272","539455","0.0-13.0-1.0-1.0-0.0-1.56","null","<span style='color:GreenYellow; font-size: 70px;'>正确! </span>","null","","","","","","","","","","","","","","","","","","","","","","","feedback_test"
"","","","","","psychophysics","273","541475","0.0-13.0-1.0-1.0-0.0-0.57","870","","f","","","","","","","","","","","","","key","f","6.944384083044667","960","536","f","true","img/S_ambi40.png","方形","word_first",""
"","","","","","html-keyboard-response","274","541776","0.0-13.0-1.0-1.0-0.0-1.57","null","<span style='color:GreenYellow; font-size: 70px;'>正确! </span>","null","","","","","","","","","","","","","","","","","","","","","","","feedback_test"
"","","","","","psychophysics","275","543477","0.0-13.0-1.0-1.0-0.0-0.58","550","","j","","","","","","","","","","","","","key","j","6.944733606557434","960","536","j","true","img/C_ambi40.png","三角","word_first",""
"","","","","","html-keyboard-response","276","543779","0.0-13.0-1.0-1.0-0.0-1.58","null","<span style='color:GreenYellow; font-size: 70px;'>正确! </span>","null","","","","","","","","","","","","","","","","","","","","","","","feedback_test"
"","","","","","psychophysics","277","545675","0.0-13.0-1.0-1.0-0.0-0.59","745","","f","","","","","","","","","","","","","key","f","6.944220588235218","960","536","f","true","img/T_ambi40.png","三角","word_first",""
"","","","","","html-keyboard-response","278","545977","0.0-13.0-1.0-1.0-0.0-1.59","null","<span style='color:GreenYellow; font-size: 70px;'>正确! </span>","null","","","","","","","","","","","","","","","","","","","","","","","feedback_test"
"","","","","","html-keyboard-response","279","547542","0.0-13.0-1.0-1.0-1.0","1562","<style>.context{color:white; font-size: 35px; line-height:40px}</style>                            <div><p class='context'>您正确回答了92% 的试次。</p><p class='context'>您的平均反应时为678毫秒。</p><p class='context'>请按任意键进入休息</p></div>"," ","","","","","","","","","","","","","","","","","","","","","","",""
"","","","","","html-button-response","280","550676","0.0-13.0-1.0-1.0-2.0","3132","
                    <p>您当前还剩余3组实验</p>
                    <p>现在是休息时间，当您结束休息后，您可以点击 结束休息 按钮 继续</p>
                    <p>建议休息时间还剩余<span id=""iii"">60</span>秒</p>","0","","","","","","","","","","","","","","","","","","","","","","",""
"","","","","","psychophysics","281","552669","0.0-13.0-1.0-1.0-0.1-0.60","841","","f","","","","","","","","","","","","","key","f","6.944312280701604","960","536","f","true","img/C_ambi40.png","圆形","word_first",""
"","","","","","html-keyboard-response","282","552971","0.0-13.0-1.0-1.0-0.1-1.60","null","<span style='color:GreenYellow; font-size: 70px;'>正确! </span>","null","","","","","","","","","","","","","","","","","","","","","","","feedback_test"
"","","","","","psychophysics","283","554495","0.0-13.0-1.0-1.0-0.1-0.61","373","","f","","","","","","","","","","","","","key","f","6.944353211008935","960","536","j","false","img/S_ambi40.png","圆形","word_first",""
"","","","","","html-keyboard-response","284","554797","0.0-13.0-1.0-1.0-0.1-1.61","null","<span style='color:red; font-size: 70px;'>错误! </span>","null","","","","","","","","","","","","","","","","","","","","","","","feedback_test"
"","","","","","psychophysics","285","556572","0.0-13.0-1.0-1.0-0.1-0.62","623","","j","","","","","","","","","","","","","key","j","6.944783464567296","960","536","j","true","img/S_ambi40.png","三角","word_first",""
"","","","","","html-keyboard-response","286","556873","0.0-13.0-1.0-1.0-0.1-1.62","null","<span style='color:GreenYellow; font-size: 70px;'>正确! </span>","null","","","","","","","","","","","","","","","","","","","","","","","feedback_test"
"","","","","","psychophysics","287","559064","0.0-13.0-1.0-1.0-0.1-0.63","1040","","f","","","","","","","","","","","","","key","f","6.943993630573216","960","536","f","true","img/S_ambi40.png","方形","word_first",""
"","","","","","html-keyboard-response","288","559366","0.0-13.0-1.0-1.0-0.1-1.63","null","<span style='color:GreenYellow; font-size: 70px;'>正确! </span>","null","","","","","","","","","","","","","","","","","","","","","","","feedback_test"
"","","","","","psychophysics","289","561300","0.0-13.0-1.0-1.0-0.1-0.64","782","","j","","","","","","","","","","","","","key","j","6.944382671480293","960","536","j","true","img/T_ambi40.png","圆形","word_first",""
"","","","","","html-keyboard-response","290","561601","0.0-13.0-1.0-1.0-0.1-1.64","null","<span style='color:GreenYellow; font-size: 70px;'>正确! </span>","null","","","","","","","","","","","","","","","","","","","","","","","feedback_test"
"","","","","","psychophysics","291","563545","0.0-13.0-1.0-1.0-0.1-0.65","793","","j","","","","","","","","","","","","","key","j","6.943453237410172","960","536","j","true","img/C_ambi40.png","三角","word_first",""
"","","","","","html-keyboard-response","292","563846","0.0-13.0-1.0-1.0-0.1-1.65","null","<span style='color:GreenYellow; font-size: 70px;'>正确! </span>","null","","","","","","","","","","","","","","","","","","","","","","","feedback_test"
"","","","","","psychophysics","293","565925","0.0-13.0-1.0-1.0-0.1-0.66","928","","f","","","","","","","","","","","","","key","f","6.944167785235171","960","536","f","true","img/S_ambi40.png","方形","word_first",""
"","","","","","html-keyboard-response","294","566227","0.0-13.0-1.0-1.0-0.1-1.66","null","<span style='color:GreenYellow; font-size: 70px;'>正确! </span>","null","","","","","","","","","","","","","","","","","","","","","","","feedback_test"
"","","","","","psychophysics","295","567941","0.0-13.0-1.0-1.0-0.1-0.67","562","","f","","","","","","","","","","","","","key","f","6.94391428571413","960","536","f","true","img/T_ambi40.png","三角","word_first",""
"","","","","","html-keyboard-response","296","568241","0.0-13.0-1.0-1.0-0.1-1.67","null","<span style='color:GreenYellow; font-size: 70px;'>正确! </span>","null","","","","","","","","","","","","","","","","","","","","","","","feedback_test"
"","","","","","psychophysics","297","569832","0.0-13.0-1.0-1.0-0.1-0.68","439","","f","","","","","","","","","","","","","key","f","6.943469298245761","960","536","f","true","img/T_ambi40.png","三角","word_first",""
"","","","","","html-keyboard-response","298","570134","0.0-13.0-1.0-1.0-0.1-1.68","null","<span style='color:GreenYellow; font-size: 70px;'>正确! </span>","null","","","","","","","","","","","","","","","","","","","","","","","feedback_test"
"","","","","","psychophysics","299","571718","0.0-13.0-1.0-1.0-0.1-0.69","431","","f","","","","","","","","","","","","","key","f","6.94434361233497","960","536","f","true","img/C_ambi40.png","圆形","word_first",""
"","","","","","html-keyboard-response","300","572019","0.0-13.0-1.0-1.0-0.1-1.69","null","<span style='color:GreenYellow; font-size: 70px;'>正确! </span>","null","","","","","","","","","","","","","","","","","","","","","","","feedback_test"
"","","","","","psychophysics","301","573675","0.0-13.0-1.0-1.0-0.1-0.70","505","","j","","","","","","","","","","","","","key","j","6.9443080168780345","960","536","j","true","img/C_ambi40.png","方形","word_first",""
"","","","","","html-keyboard-response","302","573976","0.0-13.0-1.0-1.0-0.1-1.70","null","<span style='color:GreenYellow; font-size: 70px;'>正确! </span>","null","","","","","","","","","","","","","","","","","","","","","","","feedback_test"
"","","","","","psychophysics","303","575874","0.0-13.0-1.0-1.0-0.1-0.71","747","","j","","","","","","","","","","","","","key","j","6.94457142857149","960","536","j","true","img/T_ambi40.png","方形","word_first",""
"","","","","","html-keyboard-response","304","576176","0.0-13.0-1.0-1.0-0.1-1.71","null","<span style='color:GreenYellow; font-size: 70px;'>正确! </span>","null","","","","","","","","","","","","","","","","","","","","","","","feedback_test"
"","","","","","psychophysics","305","577770","0.0-13.0-1.0-1.0-0.1-0.72","442","","f","","","","","","","","","","","","","key","f","6.943811403508829","960","536","f","true","img/C_ambi40.png","圆形","word_first",""
"","","","","","html-keyboard-response","306","578071","0.0-13.0-1.0-1.0-0.1-1.72","null","<span style='color:GreenYellow; font-size: 70px;'>正确! </span>","null","","","","","","","","","","","","","","","","","","","","","","","feedback_test"
"","","","","","psychophysics","307","579749","0.0-13.0-1.0-1.0-0.1-0.73","528","","f","","","","","","","","","","","","","key","f","6.944954356846701","960","536","f","true","img/S_ambi40.png","方形","word_first",""
"","","","","","html-keyboard-response","308","580050","0.0-13.0-1.0-1.0-0.1-1.73","null","<span style='color:GreenYellow; font-size: 70px;'>正确! </span>","null","","","","","","","","","","","","","","","","","","","","","","","feedback_test"
"","","","","","psychophysics","309","581707","0.0-13.0-1.0-1.0-0.1-0.74","504","","j","","","","","","","","","","","","","key","j","6.944319327731183","960","536","j","true","img/S_ambi40.png","三角","word_first",""
"","","","","","html-keyboard-response","310","582008","0.0-13.0-1.0-1.0-0.1-1.74","null","<span style='color:GreenYellow; font-size: 70px;'>正确! </span>","null","","","","","","","","","","","","","","","","","","","","","","","feedback_test"
"","","","","","psychophysics","311","583992","0.0-13.0-1.0-1.0-0.1-0.75","832","","j","","","","","","","","","","","","","key","j","6.94458245614037","960","536","j","true","img/T_ambi40.png","圆形","word_first",""
"","","","","","html-keyboard-response","312","584293","0.0-13.0-1.0-1.0-0.1-1.75","null","<span style='color:GreenYellow; font-size: 70px;'>正确! </span>","null","","","","","","","","","","","","","","","","","","","","","","","feedback_test"
"","","","","","psychophysics","313","586234","0.0-13.0-1.0-1.0-0.1-0.76","790","","j","","","","","","","","","","","","","key","j","6.944215053763394","960","536","j","true","img/T_ambi40.png","方形","word_first",""
"","","","","","html-keyboard-response","314","586536","0.0-13.0-1.0-1.0-0.1-1.76","null","<span style='color:GreenYellow; font-size: 70px;'>正确! </span>","null","","","","","","","","","","","","","","","","","","","","","","","feedback_test"
"","","","","","psychophysics","315","588322","0.0-13.0-1.0-1.0-0.1-0.77","635","","f","","","","","","","","","","","","","key","f","6.944472656250127","960","536","f","true","img/T_ambi40.png","三角","word_first",""
"","","","","","html-keyboard-response","316","588624","0.0-13.0-1.0-1.0-0.1-1.77","null","<span style='color:GreenYellow; font-size: 70px;'>正确! </span>","null","","","","","","","","","","","","","","","","","","","","","","","feedback_test"
"","","","","","psychophysics","317","590409","0.0-13.0-1.0-1.0-0.1-0.78","634","","j","","","","","","","","","","","","","key","j","6.944753906249844","960","536","j","true","img/C_ambi40.png","方形","word_first",""
"","","","","","html-keyboard-response","318","590710","0.0-13.0-1.0-1.0-0.1-1.78","null","<span style='color:GreenYellow; font-size: 70px;'>正确! </span>","null","","","","","","","","","","","","","","","","","","","","","","","feedback_test"
"","","","","","psychophysics","319","592521","0.0-13.0-1.0-1.0-0.1-0.79","659","","f","","","","","","","","","","","","","key","f","6.944438461538476","960","536","f","true","img/T_ambi40.png","三角","word_first",""
"","","","","","html-keyboard-response","320","592822","0.0-13.0-1.0-1.0-0.1-1.79","null","<span style='color:GreenYellow; font-size: 70px;'>正确! </span>","null","","","","","","","","","","","","","","","","","","","","","","","feedback_test"
"","","","","","psychophysics","321","594642","0.0-13.0-1.0-1.0-0.1-0.80","668","","j","","","","","","","","","","","","","key","j","6.943892307692351","960","536","f","false","img/S_ambi40.png","方形","word_first",""
"","","","","","html-keyboard-response","322","594944","0.0-13.0-1.0-1.0-0.1-1.80","null","<span style='color:red; font-size: 70px;'>错误! </span>","null","","","","","","","","","","","","","","","","","","","","","","","feedback_test"
"","","","","","psychophysics","323","596557","0.0-13.0-1.0-1.0-0.1-0.81","463","","f","","","","","","","","","","","","","key","f","6.944861471861625","960","536","f","true","img/C_ambi40.png","圆形","word_first",""
"","","","","","html-keyboard-response","324","596859","0.0-13.0-1.0-1.0-0.1-1.81","null","<span style='color:GreenYellow; font-size: 70px;'>正确! </span>","null","","","","","","","","","","","","","","","","","","","","","","","feedback_test"
"","","","","","psychophysics","325","598536","0.0-13.0-1.0-1.0-0.1-0.82","526","","j","","","","","","","","","","","","","key","j","6.944049999999697","960","536","j","true","img/C_ambi40.png","三角","word_first",""
"","","","","","html-keyboard-response","326","598838","0.0-13.0-1.0-1.0-0.1-1.82","null","<span style='color:GreenYellow; font-size: 70px;'>正确! </span>","null","","","","","","","","","","","","","","","","","","","","","","","feedback_test"
"","","","","","psychophysics","327","600568","0.0-13.0-1.0-1.0-0.1-0.83","579","","j","","","","","","","","","","","","","key","j","6.9444475806451536","960","536","j","true","img/S_ambi40.png","圆形","word_first",""
"","","","","","html-keyboard-response","328","600870","0.0-13.0-1.0-1.0-0.1-1.83","null","<span style='color:GreenYellow; font-size: 70px;'>正确! </span>","null","","","","","","","","","","","","","","","","","","","","","","","feedback_test"
"","","","","","psychophysics","329","602499","0.0-13.0-1.0-1.0-0.1-0.84","479","","f","","","","","","","","","","","","","key","f","6.944521367521041","960","536","j","false","img/C_ambi40.png","三角","word_first",""
"","","","","","html-keyboard-response","330","602801","0.0-13.0-1.0-1.0-0.1-1.84","null","<span style='color:red; font-size: 70px;'>错误! </span>","null","","","","","","","","","","","","","","","","","","","","","","","feedback_test"
"","","","","","psychophysics","331","604634","0.0-13.0-1.0-1.0-0.1-0.85","682","","j","","","","","","","","","","","","","key","j","6.940870229007751","960","536","j","true","img/T_ambi40.png","圆形","word_first",""
"","","","","","html-keyboard-response","332","604936","0.0-13.0-1.0-1.0-0.1-1.85","null","<span style='color:GreenYellow; font-size: 70px;'>正确! </span>","null","","","","","","","","","","","","","","","","","","","","","","","feedback_test"
"","","","","","psychophysics","333","606787","0.0-13.0-1.0-1.0-0.1-0.86","701","","j","","","","","","","","","","","","","key","j","6.944177358490767","960","536","j","true","img/S_ambi40.png","圆形","word_first",""
"","","","","","html-keyboard-response","334","607088","0.0-13.0-1.0-1.0-0.1-1.86","null","<span style='color:GreenYellow; font-size: 70px;'>正确! </span>","null","","","","","","","","","","","","","","","","","","","","","","","feedback_test"
"","","","","","psychophysics","335","609019","0.0-13.0-1.0-1.0-0.1-0.87","781","","f","","","","","","","","","","","","","key","f","6.943902527075849","960","536","f","true","img/T_ambi40.png","三角","word_first",""
"","","","","","html-keyboard-response","336","609321","0.0-13.0-1.0-1.0-0.1-1.87","null","<span style='color:GreenYellow; font-size: 70px;'>正确! </span>","null","","","","","","","","","","","","","","","","","","","","","","","feedback_test"
"","","","","","psychophysics","337","611428","0.0-13.0-1.0-1.0-0.1-0.88","957","","f","","","","","","","","","","","","","key","f","6.944006600660017","960","536","f","true","img/S_ambi40.png","方形","word_first",""
"","","","","","html-keyboard-response","338","611730","0.0-13.0-1.0-1.0-0.1-1.88","null","<span style='color:GreenYellow; font-size: 70px;'>正确! </span>","null","","","","","","","","","","","","","","","","","","","","","","","feedback_test"
"","","","","","psychophysics","339","613889","0.0-13.0-1.0-1.0-0.1-0.89","1009","","j","","","","","","","","","","","","","key","j","6.944090322580849","960","536","j","true","img/C_ambi40.png","方形","word_first",""
"","","","","","html-keyboard-response","340","614191","0.0-13.0-1.0-1.0-0.1-1.89","null","<span style='color:GreenYellow; font-size: 70px;'>正确! </span>","null","","","","","","","","","","","","","","","","","","","","","","","feedback_test"
"","","","","","psychophysics","341","615950","0.0-13.0-1.0-1.0-0.1-0.90","609","","f","","","","","","","","","","","","","key","f","6.945003968254212","960","536","f","true","img/C_ambi40.png","圆形","word_first",""
"","","","","","html-keyboard-response","342","616251","0.0-13.0-1.0-1.0-0.1-1.90","null","<span style='color:GreenYellow; font-size: 70px;'>正确! </span>","null","","","","","","","","","","","","","","","","","","","","","","","feedback_test"
"","","","","","psychophysics","343","617938","0.0-13.0-1.0-1.0-0.1-0.91","534","","f","","","","","","","","","","","","","key","f","6.944338842975322","960","536","f","true","img/T_ambi40.png","三角","word_first",""
"","","","","","html-keyboard-response","344","618240","0.0-13.0-1.0-1.0-0.1-1.91","null","<span style='color:GreenYellow; font-size: 70px;'>正确! </span>","null","","","","","","","","","","","","","","","","","","","","","","","feedback_test"
"","","","","","psychophysics","345","619907","0.0-13.0-1.0-1.0-0.1-0.92","517","","j","","","","","","","","","","","","","key","j","6.94586249999993","960","536","j","true","img/S_ambi40.png","三角","word_first",""
"","","","","","html-keyboard-response","346","620208","0.0-13.0-1.0-1.0-0.1-1.92","null","<span style='color:GreenYellow; font-size: 70px;'>正确! </span>","null","","","","","","","","","","","","","","","","","","","","","","","feedback_test"
"","","","","","psychophysics","347","622032","0.0-13.0-1.0-1.0-0.1-0.93","673","","j","","","","","","","","","","","","","key","j","6.944175572519347","960","536","j","true","img/T_ambi40.png","方形","word_first",""
"","","","","","html-keyboard-response","348","622333","0.0-13.0-1.0-1.0-0.1-1.93","null","<span style='color:GreenYellow; font-size: 70px;'>正确! </span>","null","","","","","","","","","","","","","","","","","","","","","","","feedback_test"
"","","","","","psychophysics","349","624273","0.0-13.0-1.0-1.0-0.1-0.94","789","","f","","","","","","","","","","","","","key","f","6.94540501792129","960","536","f","true","img/S_ambi40.png","方形","word_first",""
"","","","","","html-keyboard-response","350","624575","0.0-13.0-1.0-1.0-0.1-1.94","null","<span style='color:GreenYellow; font-size: 70px;'>正确! </span>","null","","","","","","","","","","","","","","","","","","","","","","","feedback_test"
"","","","","","psychophysics","351","626371","0.0-13.0-1.0-1.0-0.1-0.95","645","","f","","","","","","","","","","","","","key","f","6.944221789882961","960","536","f","true","img/C_ambi40.png","圆形","word_first",""
"","","","","","html-keyboard-response","352","626672","0.0-13.0-1.0-1.0-0.1-1.95","null","<span style='color:GreenYellow; font-size: 70px;'>正确! </span>","null","","","","","","","","","","","","","","","","","","","","","","","feedback_test"
"","","","","","psychophysics","353","628271","0.0-13.0-1.0-1.0-0.1-0.96","449","","f","","","","","","","","","","","","","key","f","6.944262008733771","960","536","f","true","img/C_ambi40.png","圆形","word_first",""
"","","","","","html-keyboard-response","354","628572","0.0-13.0-1.0-1.0-0.1-1.96","null","<span style='color:GreenYellow; font-size: 70px;'>正确! </span>","null","","","","","","","","","","","","","","","","","","","","","","","feedback_test"
"","","","","","psychophysics","355","630151","0.0-13.0-1.0-1.0-0.1-0.97","427","","f","","","","","","","","","","","","","key","f","6.94356637168109","960","536","f","true","img/C_ambi40.png","圆形","word_first",""
"","","","","","html-keyboard-response","356","630452","0.0-13.0-1.0-1.0-0.1-1.97","null","<span style='color:GreenYellow; font-size: 70px;'>正确! </span>","null","","","","","","","","","","","","","","","","","","","","","","","feedback_test"
"","","","","","psychophysics","357","632122","0.0-13.0-1.0-1.0-0.1-0.98","519","","j","","","","","","","","","","","","","key","j","6.944045833333318","960","536","j","true","img/S_ambi40.png","三角","word_first",""
"","","","","","html-keyboard-response","358","632424","0.0-13.0-1.0-1.0-0.1-1.98","null","<span style='color:GreenYellow; font-size: 70px;'>正确! </span>","null","","","","","","","","","","","","","","","","","","","","","","","feedback_test"
"","","","","","psychophysics","359","634360","0.0-13.0-1.0-1.0-0.1-0.99","786","","f","","","","","","","","","","","","","key","f","6.944226618705019","960","536","f","true","img/S_ambi40.png","方形","word_first",""
"","","","","","html-keyboard-response","360","634661","0.0-13.0-1.0-1.0-0.1-1.99","null","<span style='color:GreenYellow; font-size: 70px;'>正确! </span>","null","","","","","","","","","","","","","","","","","","","","","","","feedback_test"
"","","","","","psychophysics","361","636510","0.0-13.0-1.0-1.0-0.1-0.100","698","","f","","","","","","","","","","","","","key","f","6.942550943396493","960","536","f","true","img/T_ambi40.png","三角","word_first",""
"","","","","","html-keyboard-response","362","636812","0.0-13.0-1.0-1.0-0.1-1.100","null","<span style='color:GreenYellow; font-size: 70px;'>正确! </span>","null","","","","","","","","","","","","","","","","","","","","","","","feedback_test"
"","","","","","psychophysics","363","638576","0.0-13.0-1.0-1.0-0.1-0.101","612","","j","","","","","","","","","","","","","key","j","6.944517786561221","960","536","j","true","img/C_ambi40.png","三角","word_first",""
"","","","","","html-keyboard-response","364","638877","0.0-13.0-1.0-1.0-0.1-1.101","null","<span style='color:GreenYellow; font-size: 70px;'>正确! </span>","null","","","","","","","","","","","","","","","","","","","","","","","feedback_test"
"","","","","","psychophysics","365","640755","0.0-13.0-1.0-1.0-0.1-0.102","727","","f","","","","","","","","","","","","","key","f","6.9412899628254765","960","536","f","true","img/T_ambi40.png","三角","word_first",""
"","","","","","html-keyboard-response","366","641056","0.0-13.0-1.0-1.0-0.1-1.102","null","<span style='color:GreenYellow; font-size: 70px;'>正确! </span>","null","","","","","","","","","","","","","","","","","","","","","","","feedback_test"
"","","","","","psychophysics","367","642964","0.0-13.0-1.0-1.0-0.1-0.103","756","","f","","","","","","","","","","","","","key","f","6.944660583941392","960","536","f","true","img/S_ambi40.png","方形","word_first",""
"","","","","","html-keyboard-response","368","643265","0.0-13.0-1.0-1.0-0.1-1.103","null","<span style='color:GreenYellow; font-size: 70px;'>正确! </span>","null","","","","","","","","","","","","","","","","","","","","","","","feedback_test"
"","","","","","psychophysics","369","645022","0.0-13.0-1.0-1.0-0.1-0.104","605","","j","","","","","","","","","","","","","key","j","6.944678571428605","960","536","j","true","img/T_ambi40.png","方形","word_first",""
"","","","","","html-keyboard-response","370","645323","0.0-13.0-1.0-1.0-0.1-1.104","null","<span style='color:GreenYellow; font-size: 70px;'>正确! </span>","null","","","","","","","","","","","","","","","","","","","","","","","feedback_test"
"","","","","","psychophysics","371","647095","0.0-13.0-1.0-1.0-0.1-0.105","621","","j","","","","","","","","","","","","","key","j","6.944405511810855","960","536","j","true","img/T_ambi40.png","圆形","word_first",""
"","","","","","html-keyboard-response","372","647396","0.0-13.0-1.0-1.0-0.1-1.105","null","<span style='color:GreenYellow; font-size: 70px;'>正确! </span>","null","","","","","","","","","","","","","","","","","","","","","","","feedback_test"
"","","","","","psychophysics","373","649250","0.0-13.0-1.0-1.0-0.1-0.106","702","","j","","","","","","","","","","","","","key","j","6.943879699248285","960","536","j","true","img/S_ambi40.png","圆形","word_first",""
"","","","","","html-keyboard-response","374","649552","0.0-13.0-1.0-1.0-0.1-1.106","null","<span style='color:GreenYellow; font-size: 70px;'>正确! </span>","null","","","","","","","","","","","","","","","","","","","","","","","feedback_test"
"","","","","","psychophysics","375","651821","0.0-13.0-1.0-1.0-0.1-0.107","1117","","j","","","","","","","","","","","","","key","j","6.944757668711416","960","536","j","true","img/C_ambi40.png","方形","word_first",""
"","","","","","html-keyboard-response","376","652122","0.0-13.0-1.0-1.0-0.1-1.107","null","<span style='color:GreenYellow; font-size: 70px;'>正确! </span>","null","","","","","","","","","","","","","","","","","","","","","","","feedback_test"
"","","","","","psychophysics","377","654055","0.0-13.0-1.0-1.0-0.1-0.108","782","","f","","","","","","","","","","","","","key","f","6.9442851985556775","960","536","f","true","img/S_ambi40.png","方形","word_first",""
"","","","","","html-keyboard-response","378","654355","0.0-13.0-1.0-1.0-0.1-1.108","null","<span style='color:GreenYellow; font-size: 70px;'>正确! </span>","null","","","","","","","","","","","","","","","","","","","","","","","feedback_test"
"","","","","","psychophysics","379","656044","0.0-13.0-1.0-1.0-0.1-0.109","538","","f","","","","","","","","","","","","","key","f","6.9407842323653535","960","536","f","true","img/C_ambi40.png","圆形","word_first",""
"","","","","","html-keyboard-response","380","656344","0.0-13.0-1.0-1.0-0.1-1.109","null","<span style='color:GreenYellow; font-size: 70px;'>正确! </span>","null","","","","","","","","","","","","","","","","","","","","","","","feedback_test"
"","","","","","psychophysics","381","657995","0.0-13.0-1.0-1.0-0.1-0.110","499","","j","","","","","","","","","","","","","key","j","6.944491525423827","960","536","j","true","img/S_ambi40.png","三角","word_first",""
"","","","","","html-keyboard-response","382","658296","0.0-13.0-1.0-1.0-0.1-1.110","null","<span style='color:GreenYellow; font-size: 70px;'>正确! </span>","null","","","","","","","","","","","","","","","","","","","","","","","feedback_test"
"","","","","","psychophysics","383","660045","0.0-13.0-1.0-1.0-0.1-0.111","598","","j","","","","","","","","","","","","","key","j","6.944318725099505","960","536","f","false","img/S_ambi40.png","方形","word_first",""
"","","","","","html-keyboard-response","384","660347","0.0-13.0-1.0-1.0-0.1-1.111","null","<span style='color:red; font-size: 70px;'>错误! </span>","null","","","","","","","","","","","","","","","","","","","","","","","feedback_test"
"","","","","","psychophysics","385","662085","0.0-13.0-1.0-1.0-0.1-0.112","587","","j","","","","","","","","","","","","","key","j","6.9446184738959005","960","536","j","true","img/S_ambi40.png","圆形","word_first",""
"","","","","","html-keyboard-response","386","662385","0.0-13.0-1.0-1.0-0.1-1.112","null","<span style='color:GreenYellow; font-size: 70px;'>正确! </span>","null","","","","","","","","","","","","","","","","","","","","","","","feedback_test"
"","","","","","psychophysics","387","664229","0.0-13.0-1.0-1.0-0.1-0.113","693","","j","","","","","","","","","","","","","key","j","6.944238636363562","960","536","j","true","img/C_ambi40.png","三角","word_first",""
"","","","","","html-keyboard-response","388","664530","0.0-13.0-1.0-1.0-0.1-1.113","null","<span style='color:GreenYellow; font-size: 70px;'>正确! </span>","null","","","","","","","","","","","","","","","","","","","","","","","feedback_test"
"","","","","","psychophysics","389","666359","0.0-13.0-1.0-1.0-0.1-0.114","677","","j","","","","","","","","","","","","","key","j","6.944793893129632","960","536","j","true","img/T_ambi40.png","圆形","word_first",""
"","","","","","html-keyboard-response","390","666660","0.0-13.0-1.0-1.0-0.1-1.114","null","<span style='color:GreenYellow; font-size: 70px;'>正确! </span>","null","","","","","","","","","","","","","","","","","","","","","","","feedback_test"
"","","","","","psychophysics","391","668463","0.0-13.0-1.0-1.0-0.1-0.115","650","","f","","","","","","","","","","","","","key","f","6.93960077519386","960","536","f","true","img/C_ambi40.png","圆形","word_first",""
"","","","","","html-keyboard-response","392","668764","0.0-13.0-1.0-1.0-0.1-1.115","null","<span style='color:GreenYellow; font-size: 70px;'>正确! </span>","null","","","","","","","","","","","","","","","","","","","","","","","feedback_test"
"","","","","","psychophysics","393","670512","0.0-13.0-1.0-1.0-0.1-0.116","597","","f","","","","","","","","","","","","","key","f","6.944573705179702","960","536","f","true","img/T_ambi40.png","三角","word_first",""
"","","","","","html-keyboard-response","394","670813","0.0-13.0-1.0-1.0-0.1-1.116","null","<span style='color:GreenYellow; font-size: 70px;'>正确! </span>","null","","","","","","","","","","","","","","","","","","","","","","","feedback_test"
"","","","","","psychophysics","395","672469","0.0-13.0-1.0-1.0-0.1-0.117","504","","f","","","","","","","","","","","","","key","f","6.941421940928141","960","536","f","true","img/T_ambi40.png","三角","word_first",""
"","","","","","html-keyboard-response","396","672771","0.0-13.0-1.0-1.0-0.1-1.117","null","<span style='color:GreenYellow; font-size: 70px;'>正确! </span>","null","","","","","","","","","","","","","","","","","","","","","","","feedback_test"
"","","","","","psychophysics","397","674538","0.0-13.0-1.0-1.0-0.1-0.118","617","","j","","","","","","","","","","","","","key","j","6.944149606299264","960","536","j","true","img/T_ambi40.png","方形","word_first",""
"","","","","","html-keyboard-response","398","674838","0.0-13.0-1.0-1.0-0.1-1.118","null","<span style='color:GreenYellow; font-size: 70px;'>正确! </span>","null","","","","","","","","","","","","","","","","","","","","","","","feedback_test"
"","","","","","psychophysics","399","676808","0.0-13.0-1.0-1.0-0.1-0.119","818","","j","","","","","","","","","","","","","key","j","6.944106007066832","960","536","j","true","img/C_ambi40.png","方形","word_first",""
"","","","","","html-keyboard-response","400","677109","0.0-13.0-1.0-1.0-0.1-1.119","null","<span style='color:GreenYellow; font-size: 70px;'>正确! </span>","null","","","","","","","","","","","","","","","","","","","","","","","feedback_test"
"","","","","","html-keyboard-response","401","682151","0.0-13.0-1.0-1.0-1.1","5041","<style>.context{color:white; font-size: 35px; line-height:40px}</style>                            <div><p class='context'>您正确回答了93% 的试次。</p><p class='context'>您的平均反应时为664毫秒。</p><p class='context'>请按任意键进入休息</p></div>"," ","","","","","","","","","","","","","","","","","","","","","","",""
"","","","","","html-button-response","402","683338","0.0-13.0-1.0-1.0-2.1","1185","
                    <p>您当前还剩余2组实验</p>
                    <p>现在是休息时间，当您结束休息后，您可以点击 结束休息 按钮 继续</p>
                    <p>建议休息时间还剩余<span id=""iii"">60</span>秒</p>","0","","","","","","","","","","","","","","","","","","","","","","",""
"","","","","","psychophysics","403","685193","0.0-13.0-1.0-1.0-0.2-0.120","704","","f","","","","","","","","","","","","","key","f","6.944379699247963","960","536","f","true","img/T_ambi40.png","三角","word_first",""
"","","","","","html-keyboard-response","404","685495","0.0-13.0-1.0-1.0-0.2-1.120","null","<span style='color:GreenYellow; font-size: 70px;'>正确! </span>","null","","","","","","","","","","","","","","","","","","","","","","","feedback_test"
"","","","","","psychophysics","405","687199","0.0-13.0-1.0-1.0-0.2-0.121","553","","f","","","","","","","","","","","","","key","f","6.943688524590202","960","536","f","true","img/C_ambi40.png","圆形","word_first",""
"","","","","","html-keyboard-response","406","687500","0.0-13.0-1.0-1.0-0.2-1.121","null","<span style='color:GreenYellow; font-size: 70px;'>正确! </span>","null","","","","","","","","","","","","","","","","","","","","","","","feedback_test"
"","","","","","psychophysics","407","689021","0.0-13.0-1.0-1.0-0.2-0.122","369","","f","","","","","","","","","","","","","key","f","6.942778801843245","960","536","f","true","img/T_ambi40.png","三角","word_first",""
"","","","","","html-keyboard-response","408","689322","0.0-13.0-1.0-1.0-0.2-1.122","null","<span style='color:GreenYellow; font-size: 70px;'>正确! </span>","null","","","","","","","","","","","","","","","","","","","","","","","feedback_test"
"","","","","","psychophysics","409","690892","0.0-13.0-1.0-1.0-0.2-0.123","419","","f","","","","","","","","","","","","","key","f","6.944360000000128","960","536","f","true","img/C_ambi40.png","圆形","word_first",""
"","","","","","html-keyboard-response","410","691194","0.0-13.0-1.0-1.0-0.2-1.123","null","<span style='color:GreenYellow; font-size: 70px;'>正确! </span>","null","","","","","","","","","","","","","","","","","","","","","","","feedback_test"
"","","","","","psychophysics","411","692941","0.0-13.0-1.0-1.0-0.2-0.124","596","","f","","","","","","","","","","","","","key","f","6.94423505976106","960","536","f","true","img/S_ambi40.png","方形","word_first",""
"","","","","","html-keyboard-response","412","693243","0.0-13.0-1.0-1.0-0.2-1.124","null","<span style='color:GreenYellow; font-size: 70px;'>正确! </span>","null","","","","","","","","","","","","","","","","","","","","","","","feedback_test"
"","","","","","psychophysics","413","694977","0.0-13.0-1.0-1.0-0.2-0.125","583","","j","","","","","","","","","","","","","key","j","6.94517741935476","960","536","j","true","img/C_ambi40.png","方形","word_first",""
"","","","","","html-keyboard-response","414","695279","0.0-13.0-1.0-1.0-0.2-1.125","null","<span style='color:GreenYellow; font-size: 70px;'>正确! </span>","null","","","","","","","","","","","","","","","","","","","","","","","feedback_test"
"","","","","","psychophysics","415","697581","0.0-13.0-1.0-1.0-0.2-0.126","1150","","f","","","","","","","","","","","","","key","f","6.9440393939395575","960","536","f","true","img/S_ambi40.png","方形","word_first",""
"","","","","","html-keyboard-response","416","697882","0.0-13.0-1.0-1.0-0.2-1.126","null","<span style='color:GreenYellow; font-size: 70px;'>正确! </span>","null","","","","","","","","","","","","","","","","","","","","","","","feedback_test"
"","","","","","psychophysics","417","699461","0.0-13.0-1.0-1.0-0.2-0.127","427","","f","","","","","","","","","","","","","key","f","6.944075221238571","960","536","j","false","img/T_ambi40.png","方形","word_first",""
"","","","","","html-keyboard-response","418","699762","0.0-13.0-1.0-1.0-0.2-1.127","null","<span style='color:red; font-size: 70px;'>错误! </span>","null","","","","","","","","","","","","","","","","","","","","","","","feedback_test"
"","","","","","psychophysics","419","701429","0.0-13.0-1.0-1.0-0.2-0.128","515","","j","","","","","","","","","","","","","key","j","6.94460251046029","960","536","j","true","img/S_ambi40.png","三角","word_first",""
"","","","","","html-keyboard-response","420","701731","0.0-13.0-1.0-1.0-0.2-1.128","null","<span style='color:GreenYellow; font-size: 70px;'>正确! </span>","null","","","","","","","","","","","","","","","","","","","","","","","feedback_test"
"","","","","","psychophysics","421","703484","0.0-13.0-1.0-1.0-0.2-0.129","603","","j","","","","","","","","","","","","","key","j","6.943996015936136","960","536","j","true","img/S_ambi40.png","圆形","word_first",""
"","","","","","html-keyboard-response","422","703785","0.0-13.0-1.0-1.0-0.2-1.129","null","<span style='color:GreenYellow; font-size: 70px;'>正确! </span>","null","","","","","","","","","","","","","","","","","","","","","","","feedback_test"
"","","","","","psychophysics","423","705677","0.0-13.0-1.0-1.0-0.2-0.130","740","","j","","","","","","","","","","","","","key","j","6.943704797048207","960","536","j","true","img/T_ambi40.png","圆形","word_first",""
"","","","","","html-keyboard-response","424","705979","0.0-13.0-1.0-1.0-0.2-1.130","null","<span style='color:GreenYellow; font-size: 70px;'>正确! </span>","null","","","","","","","","","","","","","","","","","","","","","","","feedback_test"
"","","","","","psychophysics","425","707971","0.0-13.0-1.0-1.0-0.2-0.131","841","","j","","","","","","","","","","","","","key","j","6.939985964912513","960","536","j","true","img/C_ambi40.png","三角","word_first",""
"","","","","","html-keyboard-response","426","708271","0.0-13.0-1.0-1.0-0.2-1.131","null","<span style='color:GreenYellow; font-size: 70px;'>正确! </span>","null","","","","","","","","","","","","","","","","","","","","","","","feedback_test"
"","","","","","psychophysics","427","710241","0.0-13.0-1.0-1.0-0.2-0.132","819","","f","","","","","","","","","","","","","key","f","6.9441382978726605","960","536","f","true","img/T_ambi40.png","三角","word_first",""
"","","","","","html-keyboard-response","428","710542","0.0-13.0-1.0-1.0-0.2-1.132","null","<span style='color:GreenYellow; font-size: 70px;'>正确! </span>","null","","","","","","","","","","","","","","","","","","","","","","","feedback_test"
"","","","","","psychophysics","429","712345","0.0-13.0-1.0-1.0-0.2-0.133","652","","j","","","","","","","","","","","","","key","j","6.944298449612237","960","536","j","true","img/T_ambi40.png","方形","word_first",""
"","","","","","html-keyboard-response","430","712647","0.0-13.0-1.0-1.0-0.2-1.133","null","<span style='color:GreenYellow; font-size: 70px;'>正确! </span>","null","","","","","","","","","","","","","","","","","","","","","","","feedback_test"
"","","","","","psychophysics","431","714389","0.0-13.0-1.0-1.0-0.2-0.134","591","","f","","","","","","","","","","","","","key","f","6.944028112449661","960","536","j","false","img/C_ambi40.png","三角","word_first",""
"","","","","","html-keyboard-response","432","714690","0.0-13.0-1.0-1.0-0.2-1.134","null","<span style='color:red; font-size: 70px;'>错误! </span>","null","","","","","","","","","","","","","","","","","","","","","","","feedback_test"
"","","","","","psychophysics","433","716292","0.0-13.0-1.0-1.0-0.2-0.135","451","","j","","","","","","","","","","","","","key","j","6.944602620087394","960","536","j","true","img/T_ambi40.png","圆形","word_first",""
