"success","timeout","failed_images","failed_audio","failed_video","trial_type","trial_index","time_elapsed","internal_node_id","rt","stimulus","response","value","item_width_mm","item_height_mm","item_width_px","px2mm","view_dist_mm","item_width_deg","px2deg","scale_factor","win_width_deg","win_height_deg","view_history","response_type","key_press","avg_frame_time","center_x","center_y","correct_response","correct","Image","word","condition","screen_id"
"true","false","[]","[]","[]","preload","0","10596","0.0-0.0","","","","","","","","","","","","","","","","","","","","","","","","","",""
"","","","","","html-keyboard-response","1","22555","0.0-1.0","11957","
   <p>您好，欢迎参加本次实验。</p>
   <p>为充分保障您的权利，请确保您已经知晓并同意《参与实验同意书》以及《数据公开知情同意书》。</p>
   <p>如果您未见过上述内容，请咨询实验员。</p>
   <p>如果您选择继续实验，则表示您已经清楚两份知情同意书的内容并同意。</p>
   <p> <div style = ""color: green""><按任意键至下页></div> </p>
   ","arrowright","","","","","","","","","","","","","","","","","","","","","","",""
"","","","","","html-keyboard-response","2","24797","0.0-2.0","2241","
   <p>本实验首先需要您填写一些基本个人信息。</p>
   <p> <div style = ""color: green""><按任意键至下页></div></p>
   ","arrowright","","","","","","","","","","","","","","","","","","","","","","",""
"","","","","","call-function","3","24799","0.0-3.0-0.0","","","","","","","","","","","","","","","","","","","","","","","","","",""
"","","","","","survey-html-form","4","30424","0.0-3.0-1.0","5621","","{""Q0"":""17""}","","","","","","","","","","","","","","","","","","","","","","",""
"","","","","","html-button-response","5","31386","0.0-3.0-2.0","961","<p style = 'color : white'>您的性别</p>","1","","","","","","","","","","","","","","","","","","","","","","",""
"","","","","","survey-html-form","6","39311","0.0-3.0-3.0","7924","","{""Q0"":""2002""}","","","","","","","","","","","","","","","","","","","","","","",""
"","","","","","survey-html-form","7","43338","0.0-3.0-4.0","4027","","{""Q0"":""5""}","","","","","","","","","","","","","","","","","","","","","","",""
"","","","","","virtual-chinrest","8","132535","0.0-4.0","89195","","","","85.6","53.98","547.8867630088124","6.404694799061348","446.22","10.957735260176246","50","0.788484097749687","27.86","15.28","","","","","","","","","","","",""
"true","","","","","fullscreen","9","137740","0.0-5.0","","","","","","","","","","","","","","","","","","","","","","","","","",""
"","","","","","instructions","10","179963","0.0-6.0","42222","","","","","","","","","","","","","","[{""page_index"":0,""viewing_time"":9290},{""page_index"":1,""viewing_time"":20768},{""page_index"":2,""viewing_time"":8452},{""page_index"":3,""viewing_time"":3713}]","","","","","","","","","","",""
"","","","","","psychophysics","11","182626","0.0-7.0-0.0-0.0","null","","null","","","","","","","","","","","","","key","null","16.666","720","446","j","false","img/S_ambi40.png","方形","prac_image_first",""
"","","","","","html-keyboard-response","12","182932","0.0-7.0-0.0-1.0","null","<span class='add_' style='color:yellow; font-size: 70px;'> 太慢! </span>","null","","","","","","","","","","","","","","","","","","","","","","","feedback_test"
"","","","","","psychophysics","13","184279","0.0-7.0-0.0-0.1","194","","j","","","","","","","","","","","","","key","j","16.66599999999965","720","446","f","false","img/T_ambi40.png","方形","prac_image_first",""
"","","","","","html-keyboard-response","14","184589","0.0-7.0-0.0-1.1","null","<span style='color:yellow; font-size: 70px;'>过快! </span>","null","","","","","","","","","","","","","","","","","","","","","","","feedback_test"
"","","","","","psychophysics","15","186021","0.0-7.0-0.0-0.2","275","","f","","","","","","","","","","","","","key","f","16.666000000000178","720","446","f","true","img/S_ambi40.png","三角","prac_image_first",""
"","","","","","html-keyboard-response","16","186331","0.0-7.0-0.0-1.2","null","<span style='color:GreenYellow; font-size: 70px;'>正确! </span>","null","","","","","","","","","","","","","","","","","","","","","","","feedback_test"
"","","","","","psychophysics","17","187739","0.0-7.0-0.0-0.3","256","","j","","","","","","","","","","","","","key","j","16.666000000000246","720","446","f","false","img/T_ambi40.png","圆形","prac_image_first",""
"","","","","","html-keyboard-response","18","188048","0.0-7.0-0.0-1.3","null","<span style='color:red; font-size: 70px;'>错误! </span>","null","","","","","","","","","","","","","","","","","","","","","","","feedback_test"
"","","","","","psychophysics","19","189913","0.0-7.0-0.0-0.4","714","","f","","","","","","","","","","","","","key","f","16.66599999999982","720","446","j","false","img/T_ambi40.png","三角","prac_image_first",""
"","","","","","html-keyboard-response","20","190221","0.0-7.0-0.0-1.4","null","<span style='color:red; font-size: 70px;'>错误! </span>","null","","","","","","","","","","","","","","","","","","","","","","","feedback_test"
"","","","","","psychophysics","21","192130","0.0-7.0-0.0-0.5","753","","j","","","","","","","","","","","","","key","j","16.666000000000015","720","446","j","true","img/C_ambi40.png","圆形","prac_image_first",""
"","","","","","html-keyboard-response","22","192436","0.0-7.0-0.0-1.5","null","<span style='color:GreenYellow; font-size: 70px;'>正确! </span>","null","","","","","","","","","","","","","","","","","","","","","","","feedback_test"
"","","","","","psychophysics","23","194282","0.0-7.0-0.0-0.6","689","","j","","","","","","","","","","","","","key","j","16.674816513761403","720","446","f","false","img/C_ambi40.png","方形","prac_image_first",""
"","","","","","html-keyboard-response","24","194588","0.0-7.0-0.0-1.6","null","<span style='color:red; font-size: 70px;'>错误! </span>","null","","","","","","","","","","","","","","","","","","","","","","","feedback_test"
"","","","","","psychophysics","25","196513","0.0-7.0-0.0-0.7","767","","j","","","","","","","","","","","","","key","j","16.665999999999993","720","446","j","true","img/C_ambi40.png","圆形","prac_image_first",""
"","","","","","html-keyboard-response","26","196821","0.0-7.0-0.0-1.7","null","<span style='color:GreenYellow; font-size: 70px;'>正确! </span>","null","","","","","","","","","","","","","","","","","","","","","","","feedback_test"
"","","","","","psychophysics","27","198925","0.0-7.0-0.0-0.8","948","","f","","","","","","","","","","","","","key","f","16.666","720","446","f","true","img/S_ambi40.png","圆形","prac_image_first",""
"","","","","","html-keyboard-response","28","199236","0.0-7.0-0.0-1.8","null","<span style='color:GreenYellow; font-size: 70px;'>正确! </span>","null","","","","","","","","","","","","","","","","","","","","","","","feedback_test"
"","","","","","psychophysics","29","201748","0.0-7.0-0.0-0.9","1355","","j","","","","","","","","","","","","","key","j","16.66599999999998","720","446","j","true","img/T_ambi40.png","三角","prac_image_first",""
"","","","","","html-keyboard-response","30","202059","0.0-7.0-0.0-1.9","null","<span style='color:GreenYellow; font-size: 70px;'>正确! </span>","null","","","","","","","","","","","","","","","","","","","","","","","feedback_test"
"","","","","","psychophysics","31","204030","0.0-7.0-0.0-0.10","816","","j","","","","","","","","","","","","","key","j","16.665999999999926","720","446","j","true","img/S_ambi40.png","方形","prac_image_first",""
"","","","","","html-keyboard-response","32","204337","0.0-7.0-0.0-1.10","null","<span style='color:GreenYellow; font-size: 70px;'>正确! </span>","null","","","","","","","","","","","","","","","","","","","","","","","feedback_test"
"","","","","","psychophysics","33","206258","0.0-7.0-0.0-0.11","759","","f","","","","","","","","","","","","","key","f","16.665999999999993","720","446","f","true","img/C_ambi40.png","三角","prac_image_first",""
"","","","","","html-keyboard-response","34","206560","0.0-7.0-0.0-1.11","null","<span style='color:GreenYellow; font-size: 70px;'>正确! </span>","null","","","","","","","","","","","","","","","","","","","","","","","feedback_test"
"","","","","","psychophysics","35","208624","0.0-7.0-0.0-0.12","908","","f","","","","","","","","","","","","","key","f","16.666000000000043","720","446","f","true","img/S_ambi40.png","圆形","prac_image_first",""
"","","","","","html-keyboard-response","36","208931","0.0-7.0-0.0-1.12","null","<span style='color:GreenYellow; font-size: 70px;'>正确! </span>","null","","","","","","","","","","","","","","","","","","","","","","","feedback_test"
"","","","","","psychophysics","37","210804","0.0-7.0-0.0-0.13","722","","j","","","","","","","","","","","","","key","j","16.66600000000006","720","446","j","true","img/S_ambi40.png","方形","prac_image_first",""
"","","","","","html-keyboard-response","38","211115","0.0-7.0-0.0-1.13","null","<span style='color:GreenYellow; font-size: 70px;'>正确! </span>","null","","","","","","","","","","","","","","","","","","","","","","","feedback_test"
"","","","","","psychophysics","39","212894","0.0-7.0-0.0-0.14","626","","j","","","","","","","","","","","","","key","j","16.665999999999933","720","446","j","true","img/T_ambi40.png","三角","prac_image_first",""
"","","","","","html-keyboard-response","40","213202","0.0-7.0-0.0-1.14","null","<span style='color:GreenYellow; font-size: 70px;'>正确! </span>","null","","","","","","","","","","","","","","","","","","","","","","","feedback_test"
"","","","","","psychophysics","41","214949","0.0-7.0-0.0-0.15","587","","j","","","","","","","","","","","","","key","j","16.67531067961166","720","446","f","false","img/S_ambi40.png","三角","prac_image_first",""
"","","","","","html-keyboard-response","42","215257","0.0-7.0-0.0-1.15","null","<span style='color:red; font-size: 70px;'>错误! </span>","null","","","","","","","","","","","","","","","","","","","","","","","feedback_test"
"","","","","","psychophysics","43","217158","0.0-7.0-0.0-0.16","744","","j","","","","","","","","","","","","","key","j","16.666000000000015","720","446","j","true","img/C_ambi40.png","圆形","prac_image_first",""
"","","","","","html-keyboard-response","44","217465","0.0-7.0-0.0-1.16","null","<span style='color:GreenYellow; font-size: 70px;'>正确! </span>","null","","","","","","","","","","","","","","","","","","","","","","","feedback_test"
"","","","","","psychophysics","45","219502","0.0-7.0-0.0-0.17","885","","f","","","","","","","","","","","","","key","f","16.666000000000086","720","446","f","true","img/C_ambi40.png","三角","prac_image_first",""
"","","","","","html-keyboard-response","46","219811","0.0-7.0-0.0-1.17","null","<span style='color:GreenYellow; font-size: 70px;'>正确! </span>","null","","","","","","","","","","","","","","","","","","","","","","","feedback_test"
"","","","","","psychophysics","47","221823","0.0-7.0-0.0-0.18","858","","f","","","","","","","","","","","","","key","f","16.665999999999865","720","446","f","true","img/C_ambi40.png","方形","prac_image_first",""
"","","","","","html-keyboard-response","48","222131","0.0-7.0-0.0-1.18","null","<span style='color:GreenYellow; font-size: 70px;'>正确! </span>","null","","","","","","","","","","","","","","","","","","","","","","","feedback_test"
"","","","","","psychophysics","49","224113","0.0-7.0-0.0-0.19","830","","f","","","","","","","","","","","","","key","f","16.665999999999926","720","446","f","true","img/T_ambi40.png","圆形","prac_image_first",""
"","","","","","html-keyboard-response","50","224419","0.0-7.0-0.0-1.19","null","<span style='color:GreenYellow; font-size: 70px;'>正确! </span>","null","","","","","","","","","","","","","","","","","","","","","","","feedback_test"
"","","","","","psychophysics","51","226418","0.0-7.0-0.0-0.20","841","","f","","","","","","","","","","","","","key","f","16.66600000000013","720","446","j","false","img/C_ambi40.png","圆形","prac_image_first",""
"","","","","","html-keyboard-response","52","226722","0.0-7.0-0.0-1.20","null","<span style='color:red; font-size: 70px;'>错误! </span>","null","","","","","","","","","","","","","","","","","","","","","","","feedback_test"
"","","","","","psychophysics","53","228710","0.0-7.0-0.0-0.21","829","","f","","","","","","","","","","","","","key","f","16.666000000000153","720","446","f","true","img/T_ambi40.png","方形","prac_image_first",""
"","","","","","html-keyboard-response","54","229019","0.0-7.0-0.0-1.21","null","<span style='color:GreenYellow; font-size: 70px;'>正确! </span>","null","","","","","","","","","","","","","","","","","","","","","","","feedback_test"
"","","","","","psychophysics","55","231051","0.0-7.0-0.0-0.22","874","","j","","","","","","","","","","","","","key","j","16.666000000000086","720","446","j","true","img/T_ambi40.png","三角","prac_image_first",""
"","","","","","html-keyboard-response","56","231365","0.0-7.0-0.0-1.22","null","<span style='color:GreenYellow; font-size: 70px;'>正确! </span>","null","","","","","","","","","","","","","","","","","","","","","","","feedback_test"
"","","","","","psychophysics","57","233148","0.0-7.0-0.0-0.23","628","","j","","","","","","","","","","","","","key","j","16.665999999999933","720","446","j","true","img/S_ambi40.png","方形","prac_image_first",""
"","","","","","html-keyboard-response","58","233458","0.0-7.0-0.0-1.23","null","<span style='color:GreenYellow; font-size: 70px;'>正确! </span>","null","","","","","","","","","","","","","","","","","","","","","","","feedback_test"
"","","","","","html-keyboard-response","59","237092","0.0-8.0","3631","<style>.context{color:white; font-size: 35px; line-height:40px}</style>                            <div><p class='context'>您正确回答了71% 的试次。</p><p class='context'>您的平均反应时为799毫秒。</p><p class='context'>恭喜您完成这一阶段的练习。按任意键进入<span style='color: yellow;'>先文字后图形条件</span>的练习。</p></div>","j","","","","","","","","","","","","","","","","","","","","","","",""
"","","","","","psychophysics","60","239104","0.0-9.0-0.0-0.0","853","","f","","","","","","","","","","","","","key","f","16.665999999999865","720","446","f","true","img/S_ambi40.png","三角","prac_word_first",""
"","","","","","html-keyboard-response","61","239412","0.0-9.0-0.0-1.0","null","<span style='color:GreenYellow; font-size: 70px;'>正确! </span>","null","","","","","","","","","","","","","","","","","","","","","","","feedback_test"
"","","","","","psychophysics","62","241146","0.0-9.0-0.0-0.1","581","","j","","","","","","","","","","","","","key","j","16.665999999999983","720","446","j","true","img/S_ambi40.png","方形","prac_word_first",""
"","","","","","html-keyboard-response","63","241451","0.0-9.0-0.0-1.1","null","<span style='color:GreenYellow; font-size: 70px;'>正确! </span>","null","","","","","","","","","","","","","","","","","","","","","","","feedback_test"
"","","","","","psychophysics","64","243258","0.0-9.0-0.0-0.2","649","","f","","","","","","","","","","","","","key","f","16.665999999999887","720","446","f","true","img/S_ambi40.png","圆形","prac_word_first",""
"","","","","","html-keyboard-response","65","243560","0.0-9.0-0.0-1.2","null","<span style='color:GreenYellow; font-size: 70px;'>正确! </span>","null","","","","","","","","","","","","","","","","","","","","","","","feedback_test"
"","","","","","psychophysics","66","245328","0.0-9.0-0.0-0.3","612","","j","","","","","","","","","","","","","key","j","16.670571428571463","720","446","f","false","img/T_ambi40.png","方形","prac_word_first",""
"","","","","","html-keyboard-response","67","245634","0.0-9.0-0.0-1.3","null","<span style='color:red; font-size: 70px;'>错误! </span>","null","","","","","","","","","","","","","","","","","","","","","","","feedback_test"
"","","","","","psychophysics","68","247981","0.0-9.0-0.0-0.4","1187","","j","","","","","","","","","","","","","key","j","16.66600000000016","720","446","j","true","img/S_ambi40.png","方形","prac_word_first",""
"","","","","","html-keyboard-response","69","248289","0.0-9.0-0.0-1.4","null","<span style='color:GreenYellow; font-size: 70px;'>正确! </span>","null","","","","","","","","","","","","","","","","","","","","","","","feedback_test"
"","","","","","psychophysics","70","250416","0.0-9.0-0.0-0.5","968","","f","","","","","","","","","","","","","key","f","16.66599999999998","720","446","f","true","img/C_ambi40.png","三角","prac_word_first",""
"","","","","","html-keyboard-response","71","250722","0.0-9.0-0.0-1.5","null","<span style='color:GreenYellow; font-size: 70px;'>正确! </span>","null","","","","","","","","","","","","","","","","","","","","","","","feedback_test"
"","","","","","psychophysics","72","252697","0.0-9.0-0.0-0.6","815","","j","","","","","","","","","","","","","key","j","16.665999999999926","720","446","j","true","img/C_ambi40.png","圆形","prac_word_first",""
"","","","","","html-keyboard-response","73","253011","0.0-9.0-0.0-1.6","null","<span style='color:GreenYellow; font-size: 70px;'>正确! </span>","null","","","","","","","","","","","","","","","","","","","","","","","feedback_test"
"","","","","","psychophysics","74","254900","0.0-9.0-0.0-0.7","735","","j","","","","","","","","","","","","","key","j","16.66600000000027","720","446","j","true","img/T_ambi40.png","三角","prac_word_first",""
"","","","","","html-keyboard-response","75","255209","0.0-9.0-0.0-1.7","null","<span style='color:GreenYellow; font-size: 70px;'>正确! </span>","null","","","","","","","","","","","","","","","","","","","","","","","feedback_test"
"","","","","","psychophysics","76","257159","0.0-9.0-0.0-0.8","795","","j","","","","","","","","","","","","","key","j","16.665999999999947","720","446","j","true","img/C_ambi40.png","圆形","prac_word_first",""
"","","","","","html-keyboard-response","77","257465","0.0-9.0-0.0-1.8","null","<span style='color:GreenYellow; font-size: 70px;'>正确! </span>","null","","","","","","","","","","","","","","","","","","","","","","","feedback_test"
"","","","","","psychophysics","78","259478","0.0-9.0-0.0-0.9","861","","f","","","","","","","","","","","","","key","f","16.66600000000013","720","446","f","true","img/T_ambi40.png","圆形","prac_word_first",""
"","","","","","html-keyboard-response","79","259783","0.0-9.0-0.0-1.9","null","<span style='color:GreenYellow; font-size: 70px;'>正确! </span>","null","","","","","","","","","","","","","","","","","","","","","","","feedback_test"
"","","","","","psychophysics","80","261815","0.0-9.0-0.0-0.10","870","","j","","","","","","","","","","","","","key","j","16.665999999999865","720","446","j","true","img/T_ambi40.png","三角","prac_word_first",""
"","","","","","html-keyboard-response","81","262120","0.0-9.0-0.0-1.10","null","<span style='color:GreenYellow; font-size: 70px;'>正确! </span>","null","","","","","","","","","","","","","","","","","","","","","","","feedback_test"
"","","","","","psychophysics","82","264109","0.0-9.0-0.0-0.11","828","","f","","","","","","","","","","","","","key","f","16.674177966101325","720","446","f","true","img/C_ambi40.png","方形","prac_word_first",""
"","","","","","html-keyboard-response","83","264416","0.0-9.0-0.0-1.11","null","<span style='color:GreenYellow; font-size: 70px;'>正确! </span>","null","","","","","","","","","","","","","","","","","","","","","","","feedback_test"
"","","","","","psychophysics","84","266197","0.0-9.0-0.0-0.12","622","","j","","","","","","","","","","","","","key","j","16.665999999999933","720","446","j","true","img/T_ambi40.png","三角","prac_word_first",""
"","","","","","html-keyboard-response","85","266506","0.0-9.0-0.0-1.12","null","<span style='color:GreenYellow; font-size: 70px;'>正确! </span>","null","","","","","","","","","","","","","","","","","","","","","","","feedback_test"
"","","","","","psychophysics","86","268591","0.0-9.0-0.0-0.13","926","","j","","","","","","","","","","","","","key","j","16.666000000000256","720","446","j","true","img/C_ambi40.png","圆形","prac_word_first",""
"","","","","","html-keyboard-response","87","268897","0.0-9.0-0.0-1.13","null","<span style='color:GreenYellow; font-size: 70px;'>正确! </span>","null","","","","","","","","","","","","","","","","","","","","","","","feedback_test"
"","","","","","psychophysics","88","271089","0.0-9.0-0.0-0.14","1040","","f","","","","","","","","","","","","","key","f","16.665999999999883","720","446","f","true","img/S_ambi40.png","圆形","prac_word_first",""
"","","","","","html-keyboard-response","89","271396","0.0-9.0-0.0-1.14","null","<span style='color:GreenYellow; font-size: 70px;'>正确! </span>","null","","","","","","","","","","","","","","","","","","","","","","","feedback_test"
"","","","","","psychophysics","90","273202","0.0-9.0-0.0-0.15","654","","j","","","","","","","","","","","","","key","j","16.665999999999595","720","446","j","true","img/S_ambi40.png","方形","prac_word_first",""
"","","","","","html-keyboard-response","91","273506","0.0-9.0-0.0-1.15","null","<span style='color:GreenYellow; font-size: 70px;'>正确! </span>","null","","","","","","","","","","","","","","","","","","","","","","","feedback_test"
"","","","","","psychophysics","92","275371","0.0-9.0-0.0-0.16","706","","j","","","","","","","","","","","","","key","j","16.665999999999798","720","446","j","true","img/S_ambi40.png","方形","prac_word_first",""
"","","","","","html-keyboard-response","93","275681","0.0-9.0-0.0-1.16","null","<span style='color:GreenYellow; font-size: 70px;'>正确! </span>","null","","","","","","","","","","","","","","","","","","","","","","","feedback_test"
"","","","","","psychophysics","94","277505","0.0-9.0-0.0-0.17","665","","j","","","","","","","","","","","","","key","j","16.666000000000135","720","446","j","true","img/T_ambi40.png","三角","prac_word_first",""
"","","","","","html-keyboard-response","95","277808","0.0-9.0-0.0-1.17","null","<span style='color:GreenYellow; font-size: 70px;'>正确! </span>","null","","","","","","","","","","","","","","","","","","","","","","","feedback_test"
"","","","","","psychophysics","96","279749","0.0-9.0-0.0-0.18","783","","f","","","","","","","","","","","","","key","f","16.665999999999947","720","446","f","true","img/C_ambi40.png","方形","prac_word_first",""
"","","","","","html-keyboard-response","97","280057","0.0-9.0-0.0-1.18","null","<span style='color:GreenYellow; font-size: 70px;'>正确! </span>","null","","","","","","","","","","","","","","","","","","","","","","","feedback_test"
"","","","","","psychophysics","98","281947","0.0-9.0-0.0-0.19","733","","f","","","","","","","","","","","","","key","f","16.666000000000036","720","446","f","true","img/C_ambi40.png","三角","prac_word_first",""
"","","","","","html-keyboard-response","99","282259","0.0-9.0-0.0-1.19","null","<span style='color:GreenYellow; font-size: 70px;'>正确! </span>","null","","","","","","","","","","","","","","","","","","","","","","","feedback_test"
"","","","","","psychophysics","100","284162","0.0-9.0-0.0-0.20","747","","j","","","","","","","","","","","","","key","j","16.674495575221698","720","446","j","true","img/C_ambi40.png","圆形","prac_word_first",""
"","","","","","html-keyboard-response","101","284473","0.0-9.0-0.0-1.20","null","<span style='color:GreenYellow; font-size: 70px;'>正确! </span>","null","","","","","","","","","","","","","","","","","","","","","","","feedback_test"
"","","","","","psychophysics","102","286575","0.0-9.0-0.0-0.21","943","","f","","","","","","","","","","","","","key","f","16.666","720","446","f","true","img/S_ambi40.png","三角","prac_word_first",""
"","","","","","html-keyboard-response","103","286881","0.0-9.0-0.0-1.21","null","<span style='color:GreenYellow; font-size: 70px;'>正确! </span>","null","","","","","","","","","","","","","","","","","","","","","","","feedback_test"
"","","","","","psychophysics","104","289144","0.0-9.0-0.0-0.22","1110","","f","","","","","","","","","","","","","key","f","16.666000000000047","720","446","f","true","img/T_ambi40.png","方形","prac_word_first",""
"","","","","","html-keyboard-response","105","289448","0.0-9.0-0.0-1.22","null","<span style='color:GreenYellow; font-size: 70px;'>正确! </span>","null","","","","","","","","","","","","","","","","","","","","","","","feedback_test"
"","","","","","psychophysics","106","291557","0.0-9.0-0.0-0.23","958","","f","","","","","","","","","","","","","key","f","16.666","720","446","f","true","img/T_ambi40.png","圆形","prac_word_first",""
"","","","","","html-keyboard-response","107","291865","0.0-9.0-0.0-1.23","null","<span style='color:GreenYellow; font-size: 70px;'>正确! </span>","null","","","","","","","","","","","","","","","","","","","","","","","feedback_test"
"","","","","","html-keyboard-response","108","297085","0.0-10.0","5216","<style>.context{color:white; font-size: 35px; line-height:40px}</style>                            <div><p class='context'>您正确回答了96% 的试次。</p><p class='context'>您的平均反应时为827毫秒。</p><p class='context'>恭喜您完成练习。按任意键进入<span style='color: yellow;'>图形和文字同时呈现条件</span>的练习。</p></div>","j","","","","","","","","","","","","","","","","","","","","","","",""
"","","","","","psychophysics","109","299029","0.0-11.0-0.0-0.0","932","","f","","","","","","","","","","","","","key","f","16.671547826086982","720","446","f","true","img/S_ambi40.png","三角","prac_simultaneous",""
"","","","","","html-keyboard-response","110","299337","0.0-11.0-0.0-1.0","null","<span style='color:GreenYellow; font-size: 70px;'>正确! </span>","null","","","","","","","","","","","","","","","","","","","","","","","feedback_test"
"","","","","","psychophysics","111","301403","0.0-11.0-0.0-0.1","1059","","j","","","","","","","","","","","","","key","j","16.666000000000043","720","446","j","true","img/S_ambi40.png","方形","prac_simultaneous",""
"","","","","","html-keyboard-response","112","301715","0.0-11.0-0.0-1.1","null","<span style='color:GreenYellow; font-size: 70px;'>正确! </span>","null","","","","","","","","","","","","","","","","","","","","","","","feedback_test"
"","","","","","psychophysics","113","303650","0.0-11.0-0.0-0.2","933","","j","","","","","","","","","","","","","key","j","16.665999999999716","720","446","j","true","img/C_ambi40.png","圆形","prac_simultaneous",""
"","","","","","html-keyboard-response","114","303964","0.0-11.0-0.0-1.2","null","<span style='color:GreenYellow; font-size: 70px;'>正确! </span>","null","","","","","","","","","","","","","","","","","","","","","","","feedback_test"
"","","","","","psychophysics","115","306081","0.0-11.0-0.0-0.3","1115","","f","","","","","","","","","","","","","key","f","16.666","720","446","f","true","img/T_ambi40.png","圆形","prac_simultaneous",""
"","","","","","html-keyboard-response","116","306384","0.0-11.0-0.0-1.3","null","<span style='color:GreenYellow; font-size: 70px;'>正确! </span>","null","","","","","","","","","","","","","","","","","","","","","","","feedback_test"
"","","","","","psychophysics","117","308181","0.0-11.0-0.0-0.4","790","","j","","","","","","","","","","","","","key","j","16.666000000000185","720","446","j","true","img/T_ambi40.png","三角","prac_simultaneous",""
"","","","","","html-keyboard-response","118","308488","0.0-11.0-0.0-1.4","null","<span style='color:GreenYellow; font-size: 70px;'>正确! </span>","null","","","","","","","","","","","","","","","","","","","","","","","feedback_test"
"","","","","","psychophysics","119","310340","0.0-11.0-0.0-0.5","843","","f","","","","","","","","","","","","","key","f","16.666000000000086","720","446","f","true","img/C_ambi40.png","三角","prac_simultaneous",""
"","","","","","html-keyboard-response","120","310648","0.0-11.0-0.0-1.5","null","<span style='color:GreenYellow; font-size: 70px;'>正确! </span>","null","","","","","","","","","","","","","","","","","","","","","","","feedback_test"
"","","","","","psychophysics","121","312787","0.0-11.0-0.0-0.6","1137","","j","","","","","","","","","","","","","key","j","16.66600000000042","720","446","j","true","img/T_ambi40.png","三角","prac_simultaneous",""
"","","","","","html-keyboard-response","122","313098","0.0-11.0-0.0-1.6","null","<span style='color:GreenYellow; font-size: 70px;'>正确! </span>","null","","","","","","","","","","","","","","","","","","","","","","","feedback_test"
"","","","","","psychophysics","123","315275","0.0-11.0-0.0-0.7","1176","","f","","","","","","","","","","","","","key","f","16.666000000000373","720","446","f","true","img/S_ambi40.png","圆形","prac_simultaneous",""
"","","","","","html-keyboard-response","124","315587","0.0-11.0-0.0-1.7","null","<span style='color:GreenYellow; font-size: 70px;'>正确! </span>","null","","","","","","","","","","","","","","","","","","","","","","","feedback_test"
"","","","","","psychophysics","125","317505","0.0-11.0-0.0-0.8","912","","j","","","","","","","","","","","","","key","j","16.67449122807062","720","446","j","true","img/S_ambi40.png","方形","prac_simultaneous",""
"","","","","","html-keyboard-response","126","317812","0.0-11.0-0.0-1.8","null","<span style='color:GreenYellow; font-size: 70px;'>正确! </span>","null","","","","","","","","","","","","","","","","","","","","","","","feedback_test"
"","","","","","psychophysics","127","319819","0.0-11.0-0.0-0.9","1005","","j","","","","","","","","","","","","","key","j","16.665999999999865","720","446","j","true","img/C_ambi40.png","圆形","prac_simultaneous",""
"","","","","","html-keyboard-response","128","320131","0.0-11.0-0.0-1.9","null","<span style='color:GreenYellow; font-size: 70px;'>正确! </span>","null","","","","","","","","","","","","","","","","","","","","","","","feedback_test"
"","","","","","psychophysics","129","322185","0.0-11.0-0.0-0.10","1052","","f","","","","","","","","","","","","","key","f","16.665999999999823","720","446","f","true","img/C_ambi40.png","方形","prac_simultaneous",""
"","","","","","html-keyboard-response","130","322488","0.0-11.0-0.0-1.10","null","<span style='color:GreenYellow; font-size: 70px;'>正确! </span>","null","","","","","","","","","","","","","","","","","","","","","","","feedback_test"
"","","","","","psychophysics","131","324561","0.0-11.0-0.0-0.11","1064","","f","","","","","","","","","","","","","key","f","16.666000000000043","720","446","f","true","img/T_ambi40.png","方形","prac_simultaneous",""
"","","","","","html-keyboard-response","132","324866","0.0-11.0-0.0-1.11","null","<span style='color:GreenYellow; font-size: 70px;'>正确! </span>","null","","","","","","","","","","","","","","","","","","","","","","","feedback_test"
"","","","","","psychophysics","133","326870","0.0-11.0-0.0-0.12","999","","j","","","","","","","","","","","","","key","j","16.66599999999964","720","446","j","true","img/S_ambi40.png","方形","prac_simultaneous",""
"","","","","","html-keyboard-response","134","327175","0.0-11.0-0.0-1.12","null","<span style='color:GreenYellow; font-size: 70px;'>正确! </span>","null","","","","","","","","","","","","","","","","","","","","","","","feedback_test"
"","","","","","psychophysics","135","329276","0.0-11.0-0.0-0.13","1094","","f","","","","","","","","","","","","","key","f","16.669767999999692","720","446","f","true","img/C_ambi40.png","三角","prac_simultaneous",""
"","","","","","html-keyboard-response","136","329586","0.0-11.0-0.0-1.13","null","<span style='color:GreenYellow; font-size: 70px;'>正确! </span>","null","","","","","","","","","","","","","","","","","","","","","","","feedback_test"
"","","","","","psychophysics","137","331370","0.0-11.0-0.0-0.14","778","","j","","","","","","","","","","","","","key","j","16.666000000000185","720","446","j","true","img/S_ambi40.png","方形","prac_simultaneous",""
"","","","","","html-keyboard-response","138","331673","0.0-11.0-0.0-1.14","null","<span style='color:GreenYellow; font-size: 70px;'>正确! </span>","null","","","","","","","","","","","","","","","","","","","","","","","feedback_test"
"","","","","","psychophysics","139","333835","0.0-11.0-0.0-0.15","1154","","f","","","","","","","","","","","","","key","f","16.665999999999922","720","446","f","true","img/S_ambi40.png","圆形","prac_simultaneous",""
"","","","","","html-keyboard-response","140","334144","0.0-11.0-0.0-1.15","null","<span style='color:GreenYellow; font-size: 70px;'>正确! </span>","null","","","","","","","","","","","","","","","","","","","","","","","feedback_test"
"","","","","","psychophysics","141","336096","0.0-11.0-0.0-0.16","948","","j","","","","","","","","","","","","","key","j","16.665999999999947","720","446","j","true","img/C_ambi40.png","圆形","prac_simultaneous",""
"","","","","","html-keyboard-response","142","336404","0.0-11.0-0.0-1.16","null","<span style='color:GreenYellow; font-size: 70px;'>正确! </span>","null","","","","","","","","","","","","","","","","","","","","","","","feedback_test"
"","","","","","psychophysics","143","338337","0.0-11.0-0.0-0.17","931","","j","","","","","","","","","","","","","key","j","16.665999999999716","720","446","j","true","img/C_ambi40.png","圆形","prac_simultaneous",""
"","","","","","html-keyboard-response","144","338640","0.0-11.0-0.0-1.17","null","<span style='color:GreenYellow; font-size: 70px;'>正确! </span>","null","","","","","","","","","","","","","","","","","","","","","","","feedback_test"
"","","","","","psychophysics","145","340662","0.0-11.0-0.0-0.18","1014","","f","","","","","","","","","","","","","key","f","16.665999999999865","720","446","f","true","img/T_ambi40.png","方形","prac_simultaneous",""
"","","","","","html-keyboard-response","146","340964","0.0-11.0-0.0-1.18","null","<span style='color:GreenYellow; font-size: 70px;'>正确! </span>","null","","","","","","","","","","","","","","","","","","","","","","","feedback_test"
"","","","","","psychophysics","147","342732","0.0-11.0-0.0-0.19","766","","j","","","","","","","","","","","","","key","j","16.665999999999933","720","446","j","true","img/T_ambi40.png","三角","prac_simultaneous",""
"","","","","","html-keyboard-response","148","343042","0.0-11.0-0.0-1.19","null","<span style='color:GreenYellow; font-size: 70px;'>正确! </span>","null","","","","","","","","","","","","","","","","","","","","","","","feedback_test"
"","","","","","psychophysics","149","345015","0.0-11.0-0.0-0.20","967","","f","","","","","","","","","","","","","key","f","16.666000000000174","720","446","f","true","img/C_ambi40.png","方形","prac_simultaneous",""
"","","","","","html-keyboard-response","150","345321","0.0-11.0-0.0-1.20","null","<span style='color:GreenYellow; font-size: 70px;'>正确! </span>","null","","","","","","","","","","","","","","","","","","","","","","","feedback_test"
"","","","","","psychophysics","151","347089","0.0-11.0-0.0-0.21","760","","j","","","","","","","","","","","","","key","j","16.665999999999933","720","446","j","true","img/T_ambi40.png","三角","prac_simultaneous",""
"","","","","","html-keyboard-response","152","347395","0.0-11.0-0.0-1.21","null","<span style='color:GreenYellow; font-size: 70px;'>正确! </span>","null","","","","","","","","","","","","","","","","","","","","","","","feedback_test"
"","","","","","psychophysics","153","349578","0.0-11.0-0.0-0.22","1180","","f","","","","","","","","","","","","","key","f","16.673484615384726","720","446","f","true","img/T_ambi40.png","圆形","prac_simultaneous",""
"","","","","","html-keyboard-response","154","349888","0.0-11.0-0.0-1.22","null","<span style='color:GreenYellow; font-size: 70px;'>正确! </span>","null","","","","","","","","","","","","","","","","","","","","","","","feedback_test"
"","","","","","psychophysics","155","352400","0.0-11.0-0.0-0.23","null","","null","","","","","","","","","","","","","key","null","16.665999999999766","720","446","f","false","img/S_ambi40.png","三角","prac_simultaneous",""
"","","","","","html-keyboard-response","156","352707","0.0-11.0-0.0-1.23","null","<span class='add_' style='color:yellow; font-size: 70px;'> 太慢! </span>","null","","","","","","","","","","","","","","","","","","","","","","","feedback_test"
"","","","","","html-keyboard-response","157","358589","0.0-12.0","5878","<style>.context{color:white; font-size: 35px; line-height:40px}</style>                            <div><p class='context'>您正确回答了96% 的试次。</p><p class='context'>您的平均反应时为983毫秒。</p><p class='context'>恭喜您完成练习。按任意键进入正式实验。</p><p class='footer' style='font-size: 35px; line-height:40px;'>请在进入正式实验实验之前将您的<span style='color: lightgreen;'>食指</span>放在电脑键盘的相应键位上进行按键。</p>","j","","","","","","","","","","","","","","","","","","","","","","",""
"","","","","","html-keyboard-response","158","360780","0.0-13.0-0.0-0.0","2188","
    <p>请您将手指放在按键上，准备进入呈现顺序为<span style='color: yellow;'>先图形后文字条件</span>的正式匹配任务</p>
    <p> <div style = ""color: green""><按任意键进入下一阶段的匹配任务></div></p>
    ","j","","","","","","","","","","","","","","","","","","","","","","",""
"","","","","","psychophysics","159","363087","0.0-13.0-0.0-1.0-0.0-0.0","1155","","f","","","","","","","","","","","","","key","f","16.66599999999997","720","446","f","true","img/C_ambi40.png","方形","image_first",""
"","","","","","html-keyboard-response","160","363394","0.0-13.0-0.0-1.0-0.0-1.0","null","<span style='color:GreenYellow; font-size: 70px;'>正确! </span>","null","","","","","","","","","","","","","","","","","","","","","","","feedback_test"
"","","","","","psychophysics","161","365388","0.0-13.0-0.0-1.0-0.0-0.1","839","","f","","","","","","","","","","","","","key","f","16.66600000000013","720","446","f","true","img/T_ambi40.png","圆形","image_first",""
"","","","","","html-keyboard-response","162","365698","0.0-13.0-0.0-1.0-0.0-1.1","null","<span style='color:GreenYellow; font-size: 70px;'>正确! </span>","null","","","","","","","","","","","","","","","","","","","","","","","feedback_test"
"","","","","","psychophysics","163","367879","0.0-13.0-0.0-1.0-0.0-0.2","1031","","f","","","","","","","","","","","","","key","f","16.666000000000373","720","446","j","false","img/T_ambi40.png","三角","image_first",""
"","","","","","html-keyboard-response","164","368185","0.0-13.0-0.0-1.0-0.0-1.2","null","<span style='color:red; font-size: 70px;'>错误! </span>","null","","","","","","","","","","","","","","","","","","","","","","","feedback_test"
"","","","","","psychophysics","165","370226","0.0-13.0-0.0-1.0-0.0-0.3","884","","j","","","","","","","","","","","","","key","j","16.666000000000086","720","446","j","true","img/T_ambi40.png","三角","image_first",""
"","","","","","html-keyboard-response","166","370536","0.0-13.0-0.0-1.0-0.0-1.3","null","<span style='color:GreenYellow; font-size: 70px;'>正确! </span>","null","","","","","","","","","","","","","","","","","","","","","","","feedback_test"
"","","","","","psychophysics","167","373191","0.0-13.0-0.0-1.0-0.0-0.4","null","","null","","","","","","","","","","","","","key","null","16.666000000000018","720","446","f","false","img/S_ambi40.png","圆形","image_first",""
"","","","","","html-keyboard-response","168","373498","0.0-13.0-0.0-1.0-0.0-1.4","null","<span class='add_' style='color:yellow; font-size: 70px;'> 太慢! </span>","null","","","","","","","","","","","","","","","","","","","","","","","feedback_test"
"","","","","","psychophysics","169","375264","0.0-13.0-0.0-1.0-0.0-0.5","615","","j","","","","","","","","","","","","","key","j","16.66600000000024","720","446","j","true","img/C_ambi40.png","圆形","image_first",""
"","","","","","html-keyboard-response","170","375568","0.0-13.0-0.0-1.0-0.0-1.5","null","<span style='color:GreenYellow; font-size: 70px;'>正确! </span>","null","","","","","","","","","","","","","","","","","","","","","","","feedback_test"
"","","","","","psychophysics","171","377337","0.0-13.0-0.0-1.0-0.0-0.6","610","","j","","","","","","","","","","","","","key","j","16.666000000000487","720","446","j","true","img/S_ambi40.png","方形","image_first",""
"","","","","","html-keyboard-response","172","377648","0.0-13.0-0.0-1.0-0.0-1.6","null","<span style='color:GreenYellow; font-size: 70px;'>正确! </span>","null","","","","","","","","","","","","","","","","","","","","","","","feedback_test"
"","","","","","psychophysics","173","379522","0.0-13.0-0.0-1.0-0.0-0.7","715","","f","","","","","","","","","","","","","key","f","16.674675675675896","720","446","f","true","img/C_ambi40.png","三角","image_first",""
"","","","","","html-keyboard-response","174","379831","0.0-13.0-0.0-1.0-0.0-1.7","null","<span style='color:GreenYellow; font-size: 70px;'>正确! </span>","null","","","","","","","","","","","","","","","","","","","","","","","feedback_test"
"","","","","","psychophysics","175","381861","0.0-13.0-0.0-1.0-0.0-0.8","877","","f","","","","","","","","","","","","","key","f","16.665999999999865","720","446","f","true","img/T_ambi40.png","方形","image_first",""
"","","","","","html-keyboard-response","176","382171","0.0-13.0-0.0-1.0-0.0-1.8","null","<span style='color:GreenYellow; font-size: 70px;'>正确! </span>","null","","","","","","","","","","","","","","","","","","","","","","","feedback_test"
"","","","","","psychophysics","177","384024","0.0-13.0-0.0-1.0-0.0-0.9","696","","j","","","","","","","","","","","","","key","j","16.666000000000086","720","446","j","true","img/S_ambi40.png","方形","image_first",""
"","","","","","html-keyboard-response","178","384331","0.0-13.0-0.0-1.0-0.0-1.9","null","<span style='color:GreenYellow; font-size: 70px;'>正确! </span>","null","","","","","","","","","","","","","","","","","","","","","","","feedback_test"
"","","","","","psychophysics","179","386353","0.0-13.0-0.0-1.0-0.0-0.10","870","","f","","","","","","","","","","","","","key","f","16.665999999999865","720","446","f","true","img/S_ambi40.png","三角","image_first",""
"","","","","","html-keyboard-response","180","386657","0.0-13.0-0.0-1.0-0.0-1.10","null","<span style='color:GreenYellow; font-size: 70px;'>正确! </span>","null","","","","","","","","","","","","","","","","","","","","","","","feedback_test"
"","","","","","psychophysics","181","388341","0.0-13.0-0.0-1.0-0.0-0.11","526","","j","","","","","","","","","","","","","key","j","16.66600000000035","720","446","j","true","img/C_ambi40.png","圆形","image_first",""
"","","","","","html-keyboard-response","182","388647","0.0-13.0-0.0-1.0-0.0-1.11","null","<span style='color:GreenYellow; font-size: 70px;'>正确! </span>","null","","","","","","","","","","","","","","","","","","","","","","","feedback_test"
"","","","","","psychophysics","183","390352","0.0-13.0-0.0-1.0-0.0-0.12","552","","f","","","","","","","","","","","","","key","f","16.670712871286824","720","446","f","true","img/C_ambi40.png","三角","image_first",""
"","","","","","html-keyboard-response","184","390657","0.0-13.0-0.0-1.0-0.0-1.12","null","<span style='color:GreenYellow; font-size: 70px;'>正确! </span>","null","","","","","","","","","","","","","","","","","","","","","","","feedback_test"
"","","","","","psychophysics","185","392466","0.0-13.0-0.0-1.0-0.0-0.13","652","","j","","","","","","","","","","","","","key","j","16.665999999999595","720","446","j","true","img/T_ambi40.png","三角","image_first",""
"","","","","","html-keyboard-response","186","392778","0.0-13.0-0.0-1.0-0.0-1.13","null","<span style='color:GreenYellow; font-size: 70px;'>正确! </span>","null","","","","","","","","","","","","","","","","","","","","","","","feedback_test"
"","","","","","psychophysics","187","394820","0.0-13.0-0.0-1.0-0.0-0.14","887","","f","","","","","","","","","","","","","key","f","16.665999999999823","720","446","j","false","img/S_ambi40.png","方形","image_first",""
"","","","","","html-keyboard-response","188","395126","0.0-13.0-0.0-1.0-0.0-1.14","null","<span style='color:red; font-size: 70px;'>错误! </span>","null","","","","","","","","","","","","","","","","","","","","","","","feedback_test"
"","","","","","psychophysics","189","397067","0.0-13.0-0.0-1.0-0.0-0.15","786","","j","","","","","","","","","","","","","key","j","16.665999999999947","720","446","j","true","img/C_ambi40.png","圆形","image_first",""
"","","","","","html-keyboard-response","190","397379","0.0-13.0-0.0-1.0-0.0-1.15","null","<span style='color:GreenYellow; font-size: 70px;'>正确! </span>","null","","","","","","","","","","","","","","","","","","","","","","","feedback_test"
"","","","","","psychophysics","191","399134","0.0-13.0-0.0-1.0-0.0-0.16","602","","j","","","","","","","","","","","","","key","j","16.665999999999933","720","446","f","false","img/S_ambi40.png","圆形","image_first",""
"","","","","","html-keyboard-response","192","399443","0.0-13.0-0.0-1.0-0.0-1.16","null","<span style='color:red; font-size: 70px;'>错误! </span>","null","","","","","","","","","","","","","","","","","","","","","","","feedback_test"
"","","","","","psychophysics","193","401557","0.0-13.0-0.0-1.0-0.0-0.17","959","","j","","","","","","","","","","","","","key","j","16.66600000000021","720","446","j","true","img/T_ambi40.png","三角","image_first",""
"","","","","","html-keyboard-response","194","401864","0.0-13.0-0.0-1.0-0.0-1.17","null","<span style='color:GreenYellow; font-size: 70px;'>正确! </span>","null","","","","","","","","","","","","","","","","","","","","","","","feedback_test"
"","","","","","psychophysics","195","403774","0.0-13.0-0.0-1.0-0.0-0.18","757","","f","","","","","","","","","","","","","key","f","16.665999999999755","720","446","f","true","img/S_ambi40.png","三角","image_first",""
"","","","","","html-keyboard-response","196","404081","0.0-13.0-0.0-1.0-0.0-1.18","null","<span style='color:GreenYellow; font-size: 70px;'>正确! </span>","null","","","","","","","","","","","","","","","","","","","","","","","feedback_test"
"","","","","","psychophysics","197","406048","0.0-13.0-0.0-1.0-0.0-0.19","816","","f","","","","","","","","","","","","","key","f","16.666000000000174","720","446","f","true","img/T_ambi40.png","方形","image_first",""
"","","","","","html-keyboard-response","198","406351","0.0-13.0-0.0-1.0-0.0-1.19","null","<span style='color:GreenYellow; font-size: 70px;'>正确! </span>","null","","","","","","","","","","","","","","","","","","","","","","","feedback_test"
"","","","","","psychophysics","199","408148","0.0-13.0-0.0-1.0-0.0-0.20","637","","j","","","","","","","","","","","","","key","j","16.665999999999887","720","446","j","true","img/C_ambi40.png","圆形","image_first",""
"","","","","","html-keyboard-response","200","408457","0.0-13.0-0.0-1.0-0.0-1.20","null","<span style='color:GreenYellow; font-size: 70px;'>正确! </span>","null","","","","","","","","","","","","","","","","","","","","","","","feedback_test"
"","","","","","psychophysics","201","410315","0.0-13.0-0.0-1.0-0.0-0.21","700","","f","","","","","","","","","","","","","key","f","16.674745454545008","720","446","f","true","img/C_ambi40.png","方形","image_first",""
"","","","","","html-keyboard-response","202","410623","0.0-13.0-0.0-1.0-0.0-1.21","null","<span style='color:GreenYellow; font-size: 70px;'>正确! </span>","null","","","","","","","","","","","","","","","","","","","","","","","feedback_test"
"","","","","","psychophysics","203","412547","0.0-13.0-0.0-1.0-0.0-0.22","765","","f","","","","","","","","","","","","","key","f","16.665999999999993","720","446","f","true","img/T_ambi40.png","圆形","image_first",""
"","","","","","html-keyboard-response","204","412858","0.0-13.0-0.0-1.0-0.0-1.22","null","<span style='color:GreenYellow; font-size: 70px;'>正确! </span>","null","","","","","","","","","","","","","","","","","","","","","","","feedback_test"
"","","","","","psychophysics","205","414938","0.0-13.0-0.0-1.0-0.0-0.23","923","","f","","","","","","","","","","","","","key","f","16.666000000000256","720","446","j","false","img/S_ambi40.png","方形","image_first",""
"","","","","","html-keyboard-response","206","415241","0.0-13.0-0.0-1.0-0.0-1.23","null","<span style='color:red; font-size: 70px;'>错误! </span>","null","","","","","","","","","","","","","","","","","","","","","","","feedback_test"
"","","","","","psychophysics","207","417269","0.0-13.0-0.0-1.0-0.0-0.24","871","","j","","","","","","","","","","","","","key","j","16.666000000000086","720","446","j","true","img/C_ambi40.png","圆形","image_first",""
"","","","","","html-keyboard-response","208","417577","0.0-13.0-0.0-1.0-0.0-1.24","null","<span style='color:GreenYellow; font-size: 70px;'>正确! </span>","null","","","","","","","","","","","","","","","","","","","","","","","feedback_test"
"","","","","","psychophysics","209","419335","0.0-13.0-0.0-1.0-0.0-0.25","604","","j","","","","","","","","","","","","","key","j","16.665999999999933","720","446","j","true","img/T_ambi40.png","三角","image_first",""
"","","","","","html-keyboard-response","210","419648","0.0-13.0-0.0-1.0-0.0-1.25","null","<span style='color:GreenYellow; font-size: 70px;'>正确! </span>","null","","","","","","","","","","","","","","","","","","","","","","","feedback_test"
"","","","","","psychophysics","211","421619","0.0-13.0-0.0-1.0-0.0-0.26","820","","f","","","","","","","","","","","","","key","f","16.666000000000174","720","446","f","true","img/T_ambi40.png","圆形","image_first",""
"","","","","","html-keyboard-response","212","421930","0.0-13.0-0.0-1.0-0.0-1.26","null","<span style='color:GreenYellow; font-size: 70px;'>正确! </span>","null","","","","","","","","","","","","","","","","","","","","","","","feedback_test"
"","","","","","psychophysics","213","424120","0.0-13.0-0.0-1.0-0.0-0.27","1039","","f","","","","","","","","","","","","","key","f","16.665999999999677","720","446","f","true","img/S_ambi40.png","三角","image_first",""
"","","","","","html-keyboard-response","214","424423","0.0-13.0-0.0-1.0-0.0-1.27","null","<span style='color:GreenYellow; font-size: 70px;'>正确! </span>","null","","","","","","","","","","","","","","","","","","","","","","","feedback_test"
"","","","","","psychophysics","215","426680","0.0-13.0-0.0-1.0-0.0-0.28","1098","","j","","","","","","","","","","","","","key","j","16.666000000000047","720","446","f","false","img/S_ambi40.png","圆形","image_first",""
"","","","","","html-keyboard-response","216","426982","0.0-13.0-0.0-1.0-0.0-1.28","null","<span style='color:red; font-size: 70px;'>错误! </span>","null","","","","","","","","","","","","","","","","","","","","","","","feedback_test"
"","","","","","psychophysics","217","429175","0.0-13.0-0.0-1.0-0.0-0.29","1041","","f","","","","","","","","","","","","","key","f","16.673369230769236","720","446","f","true","img/C_ambi40.png","三角","image_first",""
"","","","","","html-keyboard-response","218","429481","0.0-13.0-0.0-1.0-0.0-1.29","null","<span style='color:GreenYellow; font-size: 70px;'>正确! </span>","null","","","","","","","","","","","","","","","","","","","","","","","feedback_test"
"","","","","","psychophysics","219","431401","0.0-13.0-0.0-1.0-0.0-0.30","767","","f","","","","","","","","","","","","","key","f","16.665999999999993","720","446","j","false","img/C_ambi40.png","圆形","image_first",""
"","","","","","html-keyboard-response","220","431714","0.0-13.0-0.0-1.0-0.0-1.30","null","<span style='color:red; font-size: 70px;'>错误! </span>","null","","","","","","","","","","","","","","","","","","","","","","","feedback_test"
"","","","","","psychophysics","221","433668","0.0-13.0-0.0-1.0-0.0-0.31","803","","f","","","","","","","","","","","","","key","f","16.665999999999947","720","446","f","true","img/T_ambi40.png","方形","image_first",""
"","","","","","html-keyboard-response","222","433978","0.0-13.0-0.0-1.0-0.0-1.31","null","<span style='color:GreenYellow; font-size: 70px;'>正确! </span>","null","","","","","","","","","","","","","","","","","","","","","","","feedback_test"
"","","","","","psychophysics","223","435748","0.0-13.0-0.0-1.0-0.0-0.32","616","","j","","","","","","","","","","","","","key","j","16.665999999999933","720","446","j","true","img/S_ambi40.png","方形","image_first",""
"","","","","","html-keyboard-response","224","436058","0.0-13.0-0.0-1.0-0.0-1.32","null","<span style='color:GreenYellow; font-size: 70px;'>正确! </span>","null","","","","","","","","","","","","","","","","","","","","","","","feedback_test"
"","","","","","psychophysics","225","437967","0.0-13.0-0.0-1.0-0.0-0.33","753","","j","","","","","","","","","","","","","key","j","16.665999999999993","720","446","j","true","img/T_ambi40.png","三角","image_first",""
"","","","","","html-keyboard-response","226","438270","0.0-13.0-0.0-1.0-0.0-1.33","null","<span style='color:GreenYellow; font-size: 70px;'>正确! </span>","null","","","","","","","","","","","","","","","","","","","","","","","feedback_test"
"","","","","","psychophysics","227","440031","0.0-13.0-0.0-1.0-0.0-0.34","610","","j","","","","","","","","","","","","","key","j","16.665999999999933","720","446","j","true","img/S_ambi40.png","方形","image_first",""
"","","","","","html-keyboard-response","228","440338","0.0-13.0-0.0-1.0-0.0-1.34","null","<span style='color:GreenYellow; font-size: 70px;'>正确! </span>","null","","","","","","","","","","","","","","","","","","","","","","","feedback_test"
"","","","","","psychophysics","229","442325","0.0-13.0-0.0-1.0-0.0-0.35","830","","f","","","","","","","","","","","","","key","f","16.665999999999904","720","446","f","true","img/C_ambi40.png","方形","image_first",""
"","","","","","html-keyboard-response","230","442631","0.0-13.0-0.0-1.0-0.0-1.35","null","<span style='color:GreenYellow; font-size: 70px;'>正确! </span>","null","","","","","","","","","","","","","","","","","","","","","","","feedback_test"
"","","","","","psychophysics","231","444609","0.0-13.0-0.0-1.0-0.0-0.36","819","","j","","","","","","","","","","","","","key","j","16.665999999999677","720","446","j","true","img/S_ambi40.png","方形","image_first",""
"","","","","","html-keyboard-response","232","444922","0.0-13.0-0.0-1.0-0.0-1.36","null","<span style='color:GreenYellow; font-size: 70px;'>正确! </span>","null","","","","","","","","","","","","","","","","","","","","","","","feedback_test"
"","","","","","psychophysics","233","446848","0.0-13.0-0.0-1.0-0.0-0.37","769","","j","","","","","","","","","","","","","key","j","16.665999999999993","720","446","j","true","img/T_ambi40.png","三角","image_first",""
"","","","","","html-keyboard-response","234","447154","0.0-13.0-0.0-1.0-0.0-1.37","null","<span style='color:GreenYellow; font-size: 70px;'>正确! </span>","null","","","","","","","","","","","","","","","","","","","","","","","feedback_test"
"","","","","","psychophysics","235","449038","0.0-13.0-0.0-1.0-0.0-0.38","727","","f","","","","","","","","","","","","","key","f","16.67455357142847","720","446","f","true","img/S_ambi40.png","圆形","image_first",""
"","","","","","html-keyboard-response","236","449342","0.0-13.0-0.0-1.0-0.0-1.38","null","<span style='color:GreenYellow; font-size: 70px;'>正确! </span>","null","","","","","","","","","","","","","","","","","","","","","","","feedback_test"
"","","","","","psychophysics","237","451192","0.0-13.0-0.0-1.0-0.0-0.39","693","","j","","","","","","","","","","","","","key","j","16.665999999999556","720","446","j","true","img/C_ambi40.png","圆形","image_first",""
"","","","","","html-keyboard-response","238","451497","0.0-13.0-0.0-1.0-0.0-1.39","null","<span style='color:GreenYellow; font-size: 70px;'>正确! </span>","null","","","","","","","","","","","","","","","","","","","","","","","feedback_test"
"","","","","","psychophysics","239","453312","0.0-13.0-0.0-1.0-0.0-0.40","663","","f","","","","","","","","","","","","","key","f","16.665999999999887","720","446","f","true","img/C_ambi40.png","方形","image_first",""
"","","","","","html-keyboard-response","240","453626","0.0-13.0-0.0-1.0-0.0-1.40","null","<span style='color:GreenYellow; font-size: 70px;'>正确! </span>","null","","","","","","","","","","","","","","","","","","","","","","","feedback_test"
"","","","","","psychophysics","241","455423","0.0-13.0-0.0-1.0-0.0-0.41","642","","j","","","","","","","","","","","","","key","j","16.66600000000043","720","446","j","true","img/S_ambi40.png","方形","image_first",""
"","","","","","html-keyboard-response","242","455727","0.0-13.0-0.0-1.0-0.0-1.41","null","<span style='color:GreenYellow; font-size: 70px;'>正确! </span>","null","","","","","","","","","","","","","","","","","","","","","","","feedback_test"
"","","","","","psychophysics","243","457686","0.0-13.0-0.0-1.0-0.0-0.42","804","","f","","","","","","","","","","","","","key","f","16.666000000000174","720","446","f","true","img/T_ambi40.png","圆形","image_first",""
"","","","","","html-keyboard-response","244","457992","0.0-13.0-0.0-1.0-0.0-1.42","null","<span style='color:GreenYellow; font-size: 70px;'>正确! </span>","null","","","","","","","","","","","","","","","","","","","","","","","feedback_test"
"","","","","","psychophysics","245","459781","0.0-13.0-0.0-1.0-0.0-0.43","633","","j","","","","","","","","","","","","","key","j","16.666000000000185","720","446","j","true","img/C_ambi40.png","圆形","image_first",""
"","","","","","html-keyboard-response","246","460086","0.0-13.0-0.0-1.0-0.0-1.43","null","<span style='color:GreenYellow; font-size: 70px;'>正确! </span>","null","","","","","","","","","","","","","","","","","","","","","","","feedback_test"
"","","","","","psychophysics","247","461876","0.0-13.0-0.0-1.0-0.0-0.44","628","","f","","","","","","","","","","","","","key","f","16.666000000000185","720","446","f","true","img/S_ambi40.png","三角","image_first",""
"","","","","","html-keyboard-response","248","462183","0.0-13.0-0.0-1.0-0.0-1.44","null","<span style='color:GreenYellow; font-size: 70px;'>正确! </span>","null","","","","","","","","","","","","","","","","","","","","","","","feedback_test"
"","","","","","psychophysics","249","464146","0.0-13.0-0.0-1.0-0.0-0.45","803","","j","","","","","","","","","","","","","key","j","16.665999999999947","720","446","j","true","img/T_ambi40.png","三角","image_first",""
"","","","","","html-keyboard-response","250","464448","0.0-13.0-0.0-1.0-0.0-1.45","null","<span style='color:GreenYellow; font-size: 70px;'>正确! </span>","null","","","","","","","","","","","","","","","","","","","","","","","feedback_test"
"","","","","","psychophysics","251","466224","0.0-13.0-0.0-1.0-0.0-0.46","625","","f","","","","","","","","","","","","","key","f","16.665999999999933","720","446","f","true","img/T_ambi40.png","方形","image_first",""
"","","","","","html-keyboard-response","252","466534","0.0-13.0-0.0-1.0-0.0-1.46","null","<span style='color:GreenYellow; font-size: 70px;'>正确! </span>","null","","","","","","","","","","","","","","","","","","","","","","","feedback_test"
"","","","","","psychophysics","253","468472","0.0-13.0-0.0-1.0-0.0-0.47","776","","f","","","","","","","","","","","","","key","f","16.666000000000224","720","446","f","true","img/C_ambi40.png","三角","image_first",""
"","","","","","html-keyboard-response","254","468777","0.0-13.0-0.0-1.0-0.0-1.47","null","<span style='color:GreenYellow; font-size: 70px;'>正确! </span>","null","","","","","","","","","","","","","","","","","","","","","","","feedback_test"
"","","","","","psychophysics","255","471257","0.0-13.0-0.0-1.0-0.0-0.48","1315","","j","","","","","","","","","","","","","key","j","16.67243918918924","720","446","f","false","img/C_ambi40.png","方形","image_first",""
"","","","","","html-keyboard-response","256","471570","0.0-13.0-0.0-1.0-0.0-1.48","null","<span style='color:red; font-size: 70px;'>错误! </span>","null","","","","","","","","","","","","","","","","","","","","","","","feedback_test"
"","","","","","psychophysics","257","473612","0.0-13.0-0.0-1.0-0.0-0.49","886","","f","","","","","","","","","","","","","key","f","16.665999999999602","720","446","f","true","img/S_ambi40.png","圆形","image_first",""
"","","","","","html-keyboard-response","258","473920","0.0-13.0-0.0-1.0-0.0-1.49","null","<span style='color:GreenYellow; font-size: 70px;'>正确! </span>","null","","","","","","","","","","","","","","","","","","","","","","","feedback_test"
"","","","","","psychophysics","259","475903","0.0-13.0-0.0-1.0-0.0-0.50","825","","f","","","","","","","","","","","","","key","f","16.6660000000004","720","446","f","true","img/T_ambi40.png","方形","image_first",""
"","","","","","html-keyboard-response","260","476208","0.0-13.0-0.0-1.0-0.0-1.50","null","<span style='color:GreenYellow; font-size: 70px;'>正确! </span>","null","","","","","","","","","","","","","","","","","","","","","","","feedback_test"
"","","","","","psychophysics","261","478021","0.0-13.0-0.0-1.0-0.0-0.51","656","","j","","","","","","","","","","","","","key","j","16.666000000000135","720","446","j","true","img/C_ambi40.png","圆形","image_first",""
"","","","","","html-keyboard-response","262","478326","0.0-13.0-0.0-1.0-0.0-1.51","null","<span style='color:GreenYellow; font-size: 70px;'>正确! </span>","null","","","","","","","","","","","","","","","","","","","","","","","feedback_test"
"","","","","","psychophysics","263","480220","0.0-13.0-0.0-1.0-0.0-0.52","739","","j","","","","","","","","","","","","","key","j","16.665999999999755","720","446","j","true","img/T_ambi40.png","三角","image_first",""
"","","","","","html-keyboard-response","264","480527","0.0-13.0-0.0-1.0-0.0-1.52","null","<span style='color:GreenYellow; font-size: 70px;'>正确! </span>","null","","","","","","","","","","","","","","","","","","","","","","","feedback_test"
"","","","","","psychophysics","265","482274","0.0-13.0-0.0-1.0-0.0-0.53","592","","j","","","","","","","","","","","","","key","j","16.665999999999677","720","446","j","true","img/C_ambi40.png","圆形","image_first",""
"","","","","","html-keyboard-response","266","482584","0.0-13.0-0.0-1.0-0.0-1.53","null","<span style='color:GreenYellow; font-size: 70px;'>正确! </span>","null","","","","","","","","","","","","","","","","","","","","","","","feedback_test"
"","","","","","psychophysics","267","484364","0.0-13.0-0.0-1.0-0.0-0.54","623","","f","","","","","","","","","","","","","key","f","16.665999999999933","720","446","f","true","img/C_ambi40.png","三角","image_first",""
"","","","","","html-keyboard-response","268","484673","0.0-13.0-0.0-1.0-0.0-1.54","null","<span style='color:GreenYellow; font-size: 70px;'>正确! </span>","null","","","","","","","","","","","","","","","","","","","","","","","feedback_test"
"","","","","","psychophysics","269","486586","0.0-13.0-0.0-1.0-0.0-0.55","755","","f","","","","","","","","","","","","","key","f","16.665999999999993","720","446","f","true","img/T_ambi40.png","圆形","image_first",""
"","","","","","html-keyboard-response","270","486898","0.0-13.0-0.0-1.0-0.0-1.55","null","<span style='color:GreenYellow; font-size: 70px;'>正确! </span>","null","","","","","","","","","","","","","","","","","","","","","","","feedback_test"
"","","","","","psychophysics","271","488702","0.0-13.0-0.0-1.0-0.0-0.56","648","","j","","","","","","","","","","","","","key","j","16.665999999999887","720","446","j","true","img/S_ambi40.png","方形","image_first",""
"","","","","","html-keyboard-response","272","489007","0.0-13.0-0.0-1.0-0.0-1.56","null","<span style='color:GreenYellow; font-size: 70px;'>正确! </span>","null","","","","","","","","","","","","","","","","","","","","","","","feedback_test"
"","","","","","psychophysics","273","490889","0.0-13.0-0.0-1.0-0.0-0.57","724","","f","","","","","","","","","","","","","key","f","16.6746607142855","720","446","f","true","img/S_ambi40.png","三角","image_first",""
"","","","","","html-keyboard-response","274","491197","0.0-13.0-0.0-1.0-0.0-1.57","null","<span style='color:GreenYellow; font-size: 70px;'>正确! </span>","null","","","","","","","","","","","","","","","","","","","","","","","feedback_test"
"","","","","","psychophysics","275","493077","0.0-13.0-0.0-1.0-0.0-0.58","727","","f","","","","","","","","","","","","","key","f","16.665999999999798","720","446","j","false","img/T_ambi40.png","三角","image_first",""
"","","","","","html-keyboard-response","276","493384","0.0-13.0-0.0-1.0-0.0-1.58","null","<span style='color:red; font-size: 70px;'>错误! </span>","null","","","","","","","","","","","","","","","","","","","","","","","feedback_test"
"","","","","","psychophysics","277","495757","0.0-13.0-0.0-1.0-0.0-0.59","1215","","j","","","","","","","","","","","","","key","j","16.66600000000012","720","446","j","true","img/S_ambi40.png","方形","image_first",""
"","","","","","html-keyboard-response","278","496064","0.0-13.0-0.0-1.0-0.0-1.59","null","<span style='color:GreenYellow; font-size: 70px;'>正确! </span>","null","","","","","","","","","","","","","","","","","","","","","","","feedback_test"
"","","","","","html-keyboard-response","279","497319","0.0-13.0-0.0-1.0-1.0","1252","<style>.context{color:white; font-size: 35px; line-height:40px}</style>                            <div><p class='context'>您正确回答了85% 的试次。</p><p class='context'>您的平均反应时为758毫秒。</p><p class='context'>请按任意键进入休息</p></div>","j","","","","","","","","","","","","","","","","","","","","","","",""
"","","","","","html-button-response","280","556609","0.0-13.0-0.0-1.0-2.0","59288","
                    <p>您当前还剩余3组实验</p>
                    <p>现在是休息时间，当您结束休息后，您可以点击 结束休息 按钮 继续</p>
                    <p>建议休息时间还剩余<span id=""iii"">60</span>秒</p>","0","","","","","","","","","","","","","","","","","","","","","","",""
"","","","","","psychophysics","281","558757","0.0-13.0-0.0-1.0-0.1-0.60","993","","f","","","","","","","","","","","","","key","f","16.665999999999258","720","446","f","true","img/T_ambi40.png","圆形","image_first",""
"","","","","","html-keyboard-response","282","559064","0.0-13.0-0.0-1.0-0.1-1.60","null","<span style='color:GreenYellow; font-size: 70px;'>正确! </span>","null","","","","","","","","","","","","","","","","","","","","","","","feedback_test"
"","","","","","psychophysics","283","560705","0.0-13.0-0.0-1.0-0.1-0.61","489","","j","","","","","","","","","","","","","key","j","16.66599999999954","720","446","j","true","img/C_ambi40.png","圆形","image_first",""
"","","","","","html-keyboard-response","284","561014","0.0-13.0-0.0-1.0-0.1-1.61","null","<span style='color:GreenYellow; font-size: 70px;'>正确! </span>","null","","","","","","","","","","","","","","","","","","","","","","","feedback_test"
"","","","","","psychophysics","285","562678","0.0-13.0-0.0-1.0-0.1-0.62","512","","j","","","","","","","","","","","","","key","j","16.675785714285258","720","446","j","true","img/S_ambi40.png","方形","image_first",""
"","","","","","html-keyboard-response","286","562983","0.0-13.0-0.0-1.0-0.1-1.62","null","<span style='color:GreenYellow; font-size: 70px;'>正确! </span>","null","","","","","","","","","","","","","","","","","","","","","","","feedback_test"
"","","","","","psychophysics","287","564696","0.0-13.0-0.0-1.0-0.1-0.63","561","","j","","","","","","","","","","","","","key","j","16.665999999999457","720","446","f","false","img/C_ambi40.png","方形","image_first",""
"","","","","","html-keyboard-response","288","565009","0.0-13.0-0.0-1.0-0.1-1.63","null","<span style='color:red; font-size: 70px;'>错误! </span>","null","","","","","","","","","","","","","","","","","","","","","","","feedback_test"
"","","","","","psychophysics","289","566834","0.0-13.0-0.0-1.0-0.1-0.64","670","","j","","","","","","","","","","","","","key","j","16.666000000000377","720","446","j","true","img/T_ambi40.png","三角","image_first",""
"","","","","","html-keyboard-response","290","567144","0.0-13.0-0.0-1.0-0.1-1.64","null","<span style='color:GreenYellow; font-size: 70px;'>正确! </span>","null","","","","","","","","","","","","","","","","","","","","","","","feedback_test"
"","","","","","psychophysics","291","568924","0.0-13.0-0.0-1.0-0.1-0.65","627","","j","","","","","","","","","","","","","key","j","16.666000000000185","720","446","j","true","img/T_ambi40.png","三角","image_first",""
"","","","","","html-keyboard-response","292","569231","0.0-13.0-0.0-1.0-0.1-1.65","null","<span style='color:GreenYellow; font-size: 70px;'>正确! </span>","null","","","","","","","","","","","","","","","","","","","","","","","feedback_test"
"","","","","","psychophysics","293","571038","0.0-13.0-0.0-1.0-0.1-0.66","654","","j","","","","","","","","","","","","","key","j","16.665999999999887","720","446","f","false","img/S_ambi40.png","三角","image_first",""
"","","","","","html-keyboard-response","294","571342","0.0-13.0-0.0-1.0-0.1-1.66","null","<span style='color:red; font-size: 70px;'>错误! </span>","null","","","","","","","","","","","","","","","","","","","","","","","feedback_test"
"","","","","","psychophysics","295","573134","0.0-13.0-0.0-1.0-0.1-0.67","636","","j","","","","","","","","","","","","","key","j","16.665999999999887","720","446","j","true","img/S_ambi40.png","方形","image_first",""
"","","","","","html-keyboard-response","296","573437","0.0-13.0-0.0-1.0-0.1-1.67","null","<span style='color:GreenYellow; font-size: 70px;'>正确! </span>","null","","","","","","","","","","","","","","","","","","","","","","","feedback_test"
"","","","","","psychophysics","297","575493","0.0-13.0-0.0-1.0-0.1-0.68","896","","f","","","","","","","","","","","","","key","f","16.665999999999823","720","446","f","true","img/C_ambi40.png","三角","image_first",""
"","","","","","html-keyboard-response","298","575798","0.0-13.0-0.0-1.0-0.1-1.68","null","<span style='color:GreenYellow; font-size: 70px;'>正确! </span>","null","","","","","","","","","","","","","","","","","","","","","","","feedback_test"
"","","","","","psychophysics","299","577966","0.0-13.0-0.0-1.0-0.1-0.69","1015","","j","","","","","","","","","","","","","key","j","16.665999999999922","720","446","j","true","img/C_ambi40.png","圆形","image_first",""
"","","","","","html-keyboard-response","300","578269","0.0-13.0-0.0-1.0-0.1-1.69","null","<span style='color:GreenYellow; font-size: 70px;'>正确! </span>","null","","","","","","","","","","","","","","","","","","","","","","","feedback_test"
"","","","","","psychophysics","301","580322","0.0-13.0-0.0-1.0-0.1-0.70","891","","f","","","","","","","","","","","","","key","f","16.665999999999823","720","446","f","true","img/S_ambi40.png","圆形","image_first",""
"","","","","","html-keyboard-response","302","580631","0.0-13.0-0.0-1.0-0.1-1.70","null","<span style='color:GreenYellow; font-size: 70px;'>正确! </span>","null","","","","","","","","","","","","","","","","","","","","","","","feedback_test"
"","","","","","psychophysics","303","582962","0.0-13.0-0.0-1.0-0.1-0.71","1179","","f","","","","","","","","","","","","","key","f","16.67293478260863","720","446","f","true","img/T_ambi40.png","方形","image_first",""
"","","","","","html-keyboard-response","304","583269","0.0-13.0-0.0-1.0-0.1-1.71","null","<span style='color:GreenYellow; font-size: 70px;'>正确! </span>","null","","","","","","","","","","","","","","","","","","","","","","","feedback_test"
"","","","","","psychophysics","305","585429","0.0-13.0-0.0-1.0-0.1-0.72","998","","f","","","","","","","","","","","","","key","f","16.666000000000167","720","446","f","true","img/C_ambi40.png","方形","image_first",""
"","","","","","html-keyboard-response","306","585737","0.0-13.0-0.0-1.0-0.1-1.72","null","<span style='color:GreenYellow; font-size: 70px;'>正确! </span>","null","","","","","","","","","","","","","","","","","","","","","","","feedback_test"
"","","","","","psychophysics","307","587763","0.0-13.0-0.0-1.0-0.1-0.73","870","","f","","","","","","","","","","","","","key","f","16.66600000000035","720","446","f","true","img/T_ambi40.png","圆形","image_first",""
"","","","","","html-keyboard-response","308","588073","0.0-13.0-0.0-1.0-0.1-1.73","null","<span style='color:GreenYellow; font-size: 70px;'>正确! </span>","null","","","","","","","","","","","","","","","","","","","","","","","feedback_test"
"","","","","","psychophysics","309","590105","0.0-13.0-0.0-1.0-0.1-0.74","875","","f","","","","","","","","","","","","","key","f","16.666000000000086","720","446","f","true","img/S_ambi40.png","圆形","image_first",""
"","","","","","html-keyboard-response","310","590414","0.0-13.0-0.0-1.0-0.1-1.74","null","<span style='color:GreenYellow; font-size: 70px;'>正确! </span>","null","","","","","","","","","","","","","","","","","","","","","","","feedback_test"
"","","","","","psychophysics","311","592324","0.0-13.0-0.0-1.0-0.1-0.75","757","","j","","","","","","","","","","","","","key","j","16.66600000000027","720","446","j","true","img/T_ambi40.png","三角","image_first",""
"","","","","","html-keyboard-response","312","592631","0.0-13.0-0.0-1.0-0.1-1.75","null","<span style='color:GreenYellow; font-size: 70px;'>正确! </span>","null","","","","","","","","","","","","","","","","","","","","","","","feedback_test"
"","","","","","psychophysics","313","594536","0.0-13.0-0.0-1.0-0.1-0.76","754","","f","","","","","","","","","","","","","key","f","16.67022123893793","720","446","f","true","img/S_ambi40.png","三角","image_first",""
"","","","","","html-keyboard-response","314","594847","0.0-13.0-0.0-1.0-0.1-1.76","null","<span style='color:GreenYellow; font-size: 70px;'>正确! </span>","null","","","","","","","","","","","","","","","","","","","","","","","feedback_test"
"","","","","","psychophysics","315","596729","0.0-13.0-0.0-1.0-0.1-0.77","729","","j","","","","","","","","","","","","","key","j","16.665999999999798","720","446","j","true","img/S_ambi40.png","方形","image_first",""
"","","","","","html-keyboard-response","316","597041","0.0-13.0-0.0-1.0-0.1-1.77","null","<span style='color:GreenYellow; font-size: 70px;'>正确! </span>","null","","","","","","","","","","","","","","","","","","","","","","","feedback_test"
"","","","","","psychophysics","317","598883","0.0-13.0-0.0-1.0-0.1-0.78","686","","j","","","","","","","","","","","","","key","j","16.666000000000086","720","446","j","true","img/C_ambi40.png","圆形","image_first",""
"","","","","","html-keyboard-response","318","599191","0.0-13.0-0.0-1.0-0.1-1.78","null","<span style='color:GreenYellow; font-size: 70px;'>正确! </span>","null","","","","","","","","","","","","","","","","","","","","","","","feedback_test"
"","","","","","psychophysics","319","601072","0.0-13.0-0.0-1.0-0.1-0.79","724","","f","","","","","","","","","","","","","key","f","16.666000000000558","720","446","f","true","img/C_ambi40.png","三角","image_first",""
"","","","","","html-keyboard-response","320","601383","0.0-13.0-0.0-1.0-0.1-1.79","null","<span style='color:GreenYellow; font-size: 70px;'>正确! </span>","null","","","","","","","","","","","","","","","","","","","","","","","feedback_test"
"","","","","","psychophysics","321","603152","0.0-13.0-0.0-1.0-0.1-0.80","611","","j","","","","","","","","","","","","","key","j","16.666000000000487","720","446","j","true","img/T_ambi40.png","三角","image_first",""
"","","","","","html-keyboard-response","322","603456","0.0-13.0-0.0-1.0-0.1-1.80","null","<span style='color:GreenYellow; font-size: 70px;'>正确! </span>","null","","","","","","","","","","","","","","","","","","","","","","","feedback_test"
"","","","","","psychophysics","323","605214","0.0-13.0-0.0-1.0-0.1-0.81","600","","j","","","","","","","","","","","","","key","j","16.665999999999677","720","446","j","true","img/C_ambi40.png","圆形","image_first",""
"","","","","","html-keyboard-response","324","605521","0.0-13.0-0.0-1.0-0.1-1.81","null","<span style='color:GreenYellow; font-size: 70px;'>正确! </span>","null","","","","","","","","","","","","","","","","","","","","","","","feedback_test"
"","","","","","psychophysics","325","607322","0.0-13.0-0.0-1.0-0.1-0.82","644","","f","","","","","","","","","","","","","key","f","16.665999999999887","720","446","f","true","img/T_ambi40.png","方形","image_first",""
"","","","","","html-keyboard-response","326","607630","0.0-13.0-0.0-1.0-0.1-1.82","null","<span style='color:GreenYellow; font-size: 70px;'>正确! </span>","null","","","","","","","","","","","","","","","","","","","","","","","feedback_test"
"","","","","","psychophysics","327","609484","0.0-13.0-0.0-1.0-0.1-0.83","696","","f","","","","","","","","","","","","","key","f","16.666000000000086","720","446","j","false","img/S_ambi40.png","方形","image_first",""
"","","","","","html-keyboard-response","328","609789","0.0-13.0-0.0-1.0-0.1-1.83","null","<span style='color:red; font-size: 70px;'>错误! </span>","null","","","","","","","","","","","","","","","","","","","","","","","feedback_test"
"","","","","","psychophysics","329","611662","0.0-13.0-0.0-1.0-0.1-0.84","715","","j","","","","","","","","","","","","","key","j","16.665999999999798","720","446","j","true","img/T_ambi40.png","三角","image_first",""
"","","","","","html-keyboard-response","330","611966","0.0-13.0-0.0-1.0-0.1-1.84","null","<span style='color:GreenYellow; font-size: 70px;'>正确! </span>","null","","","","","","","","","","","","","","","","","","","","","","","feedback_test"
"","","","","","psychophysics","331","613857","0.0-13.0-0.0-1.0-0.1-0.85","739","","f","","","","","","","","","","","","","key","f","16.674660714286023","720","446","f","true","img/S_ambi40.png","圆形","image_first",""
"","","","","","html-keyboard-response","332","614164","0.0-13.0-0.0-1.0-0.1-1.85","null","<span style='color:GreenYellow; font-size: 70px;'>正确! </span>","null","","","","","","","","","","","","","","","","","","","","","","","feedback_test"
"","","","","","psychophysics","333","616475","0.0-13.0-0.0-1.0-0.1-0.86","1160","","f","","","","","","","","","","","","","key","f","16.665999999999777","720","446","f","true","img/C_ambi40.png","方形","image_first",""
"","","","","","html-keyboard-response","334","616780","0.0-13.0-0.0-1.0-0.1-1.86","null","<span style='color:GreenYellow; font-size: 70px;'>正确! </span>","null","","","","","","","","","","","","","","","","","","","","","","","feedback_test"
"","","","","","psychophysics","335","618886","0.0-13.0-0.0-1.0-0.1-0.87","954","","j","","","","","","","","","","","","","key","j","16.666","720","446","j","true","img/T_ambi40.png","三角","image_first",""
"","","","","","html-keyboard-response","336","619189","0.0-13.0-0.0-1.0-0.1-1.87","null","<span style='color:GreenYellow; font-size: 70px;'>正确! </span>","null","","","","","","","","","","","","","","","","","","","","","","","feedback_test"
"","","","","","psychophysics","337","620896","0.0-13.0-0.0-1.0-0.1-0.88","547","","j","","","","","","","","","","","","","key","j","16.665999999999457","720","446","j","true","img/S_ambi40.png","方形","image_first",""
"","","","","","html-keyboard-response","338","621207","0.0-13.0-0.0-1.0-0.1-1.88","null","<span style='color:GreenYellow; font-size: 70px;'>正确! </span>","null","","","","","","","","","","","","","","","","","","","","","","","feedback_test"
"","","","","","psychophysics","339","622954","0.0-13.0-0.0-1.0-0.1-0.89","590","","f","","","","","","","","","","","","","key","f","16.665999999999677","720","446","f","true","img/T_ambi40.png","方形","image_first",""
"","","","","","html-keyboard-response","340","623264","0.0-13.0-0.0-1.0-0.1-1.89","null","<span style='color:GreenYellow; font-size: 70px;'>正确! </span>","null","","","","","","","","","","","","","","","","","","","","","","","feedback_test"
"","","","","","psychophysics","341","625079","0.0-13.0-0.0-1.0-0.1-0.90","663","","f","","","","","","","","","","","","","key","f","16.665999999999887","720","446","f","true","img/S_ambi40.png","三角","image_first",""
"","","","","","html-keyboard-response","342","625393","0.0-13.0-0.0-1.0-0.1-1.90","null","<span style='color:GreenYellow; font-size: 70px;'>正确! </span>","null","","","","","","","","","","","","","","","","","","","","","","","feedback_test"
"","","","","","psychophysics","343","627274","0.0-13.0-0.0-1.0-0.1-0.91","727","","f","","","","","","","","","","","","","key","f","16.666000000000558","720","446","f","true","img/T_ambi40.png","圆形","image_first",""
"","","","","","html-keyboard-response","344","627580","0.0-13.0-0.0-1.0-0.1-1.91","null","<span style='color:GreenYellow; font-size: 70px;'>正确! </span>","null","","","","","","","","","","","","","","","","","","","","","","","feedback_test"
"","","","","","psychophysics","345","629494","0.0-13.0-0.0-1.0-0.1-0.92","762","","j","","","","","","","","","","","","","key","j","16.66600000000027","720","446","j","true","img/S_ambi40.png","方形","image_first",""
"","","","","","html-keyboard-response","346","629797","0.0-13.0-0.0-1.0-0.1-1.92","null","<span style='color:GreenYellow; font-size: 70px;'>正确! </span>","null","","","","","","","","","","","","","","","","","","","","","","","feedback_test"
"","","","","","psychophysics","347","631669","0.0-13.0-0.0-1.0-0.1-0.93","721","","f","","","","","","","","","","","","","key","f","16.665999999999798","720","446","f","true","img/C_ambi40.png","三角","image_first",""
"","","","","","html-keyboard-response","348","631976","0.0-13.0-0.0-1.0-0.1-1.93","null","<span style='color:GreenYellow; font-size: 70px;'>正确! </span>","null","","","","","","","","","","","","","","","","","","","","","","","feedback_test"
"","","","","","psychophysics","349","633792","0.0-13.0-0.0-1.0-0.1-0.94","660","","j","","","","","","","","","","","","","key","j","16.6748518518515","720","446","j","true","img/C_ambi40.png","圆形","image_first",""
"","","","","","html-keyboard-response","350","634103","0.0-13.0-0.0-1.0-0.1-1.94","null","<span style='color:GreenYellow; font-size: 70px;'>正确! </span>","null","","","","","","","","","","","","","","","","","","","","","","","feedback_test"
"","","","","","psychophysics","351","635834","0.0-13.0-0.0-1.0-0.1-0.95","573","","j","","","","","","","","","","","","","key","j","16.665999999999983","720","446","j","true","img/C_ambi40.png","圆形","image_first",""
"","","","","","html-keyboard-response","352","636143","0.0-13.0-0.0-1.0-0.1-1.95","null","<span style='color:GreenYellow; font-size: 70px;'>正确! </span>","null","","","","","","","","","","","","","","","","","","","","","","","feedback_test"
"","","","","","psychophysics","353","638125","0.0-13.0-0.0-1.0-0.1-0.96","827","","f","","","","","","","","","","","","","key","f","16.666000000000892","720","446","f","true","img/S_ambi40.png","圆形","image_first",""
"","","","","","html-keyboard-response","354","638431","0.0-13.0-0.0-1.0-0.1-1.96","null","<span style='color:GreenYellow; font-size: 70px;'>正确! </span>","null","","","","","","","","","","","","","","","","","","","","","","","feedback_test"
"","","","","","psychophysics","355","640217","0.0-13.0-0.0-1.0-0.1-0.97","634","","j","","","","","","","","","","","","","key","j","16.666000000000185","720","446","j","true","img/T_ambi40.png","三角","image_first",""
"","","","","","html-keyboard-response","356","640525","0.0-13.0-0.0-1.0-0.1-1.97","null","<span style='color:GreenYellow; font-size: 70px;'>正确! </span>","null","","","","","","","","","","","","","","","","","","","","","","","feedback_test"
"","","","","","psychophysics","357","642390","0.0-13.0-0.0-1.0-0.1-0.98","708","","f","","","","","","","","","","","","","key","f","16.665999999999798","720","446","j","false","img/T_ambi40.png","三角","image_first",""
"","","","","","html-keyboard-response","358","642697","0.0-13.0-0.0-1.0-0.1-1.98","null","<span style='color:red; font-size: 70px;'>错误! </span>","null","","","","","","","","","","","","","","","","","","","","","","","feedback_test"
"","","","","","psychophysics","359","644605","0.0-13.0-0.0-1.0-0.1-0.99","757","","j","","","","","","","","","","","","","key","j","16.670132743362625","720","446","j","true","img/C_ambi40.png","圆形","image_first",""
"","","","","","html-keyboard-response","360","644908","0.0-13.0-0.0-1.0-0.1-1.99","null","<span style='color:GreenYellow; font-size: 70px;'>正确! </span>","null","","","","","","","","","","","","","","","","","","","","","","","feedback_test"
"","","","","","psychophysics","361","646589","0.0-13.0-0.0-1.0-0.1-0.100","524","","j","","","","","","","","","","","","","key","j","16.665999999999766","720","446","j","true","img/S_ambi40.png","方形","image_first",""
"","","","","","html-keyboard-response","362","646892","0.0-13.0-0.0-1.0-0.1-1.100","null","<span style='color:GreenYellow; font-size: 70px;'>正确! </span>","null","","","","","","","","","","","","","","","","","","","","","","","feedback_test"
"","","","","","psychophysics","363","648579","0.0-13.0-0.0-1.0-0.1-0.101","530","","j","","","","","","","","","","","","","key","j","16.66600000000093","720","446","f","false","img/C_ambi40.png","方形","image_first",""
"","","","","","html-keyboard-response","364","648884","0.0-13.0-0.0-1.0-0.1-1.101","null","<span style='color:red; font-size: 70px;'>错误! </span>","null","","","","","","","","","","","","","","","","","","","","","","","feedback_test"
"","","","","","psychophysics","365","650978","0.0-13.0-0.0-1.0-0.1-0.102","932","","f","","","","","","","","","","","","","key","f","16.666000000000256","720","446","f","true","img/T_ambi40.png","圆形","image_first",""
"","","","","","html-keyboard-response","366","651285","0.0-13.0-0.0-1.0-0.1-1.102","null","<span style='color:GreenYellow; font-size: 70px;'>正确! </span>","null","","","","","","","","","","","","","","","","","","","","","","","feedback_test"
"","","","","","psychophysics","367","652998","0.0-13.0-0.0-1.0-0.1-0.103","552","","j","","","","","","","","","","","","","key","j","16.666000000000608","720","446","j","true","img/C_ambi40.png","圆形","image_first",""
"","","","","","html-keyboard-response","368","653304","0.0-13.0-0.0-1.0-0.1-1.103","null","<span style='color:GreenYellow; font-size: 70px;'>正确! </span>","null","","","","","","","","","","","","","","","","","","","","","","","feedback_test"
"","","","","","psychophysics","369","655168","0.0-13.0-0.0-1.0-0.1-0.104","708","","f","","","","","","","","","","","","","key","f","16.665999999999798","720","446","f","true","img/T_ambi40.png","方形","image_first",""
"","","","","","html-keyboard-response","370","655472","0.0-13.0-0.0-1.0-0.1-1.104","null","<span style='color:GreenYellow; font-size: 70px;'>正确! </span>","null","","","","","","","","","","","","","","","","","","","","","","","feedback_test"
"","","","","","psychophysics","371","657334","0.0-13.0-0.0-1.0-0.1-0.105","707","","f","","","","","","","","","","","","","key","f","16.666000000000846","720","446","f","true","img/C_ambi40.png","三角","image_first",""
"","","","","","html-keyboard-response","372","657640","0.0-13.0-0.0-1.0-0.1-1.105","null","<span style='color:GreenYellow; font-size: 70px;'>正确! </span>","null","","","","","","","","","","","","","","","","","","","","","","","feedback_test"
"","","","","","psychophysics","373","659642","0.0-13.0-0.0-1.0-0.1-0.106","845","","f","","","","","","","","","","","","","key","f","16.66599999999964","720","446","f","true","img/S_ambi40.png","三角","image_first",""
"","","","","","html-keyboard-response","374","659949","0.0-13.0-0.0-1.0-0.1-1.106","null","<span style='color:GreenYellow; font-size: 70px;'>正确! </span>","null","","","","","","","","","","","","","","","","","","","","","","","feedback_test"
"","","","","","psychophysics","375","661840","0.0-13.0-0.0-1.0-0.1-0.107","732","","f","","","","","","","","","","","","","key","f","16.665999999999517","720","446","j","false","img/S_ambi40.png","方形","image_first",""
"","","","","","html-keyboard-response","376","662151","0.0-13.0-0.0-1.0-0.1-1.107","null","<span style='color:red; font-size: 70px;'>错误! </span>","null","","","","","","","","","","","","","","","","","","","","","","","feedback_test"
"","","","","","psychophysics","377","664017","0.0-13.0-0.0-1.0-0.1-0.108","708","","j","","","","","","","","","","","","","key","j","16.674738738738284","720","446","j","true","img/T_ambi40.png","三角","image_first",""
"","","","","","html-keyboard-response","378","664323","0.0-13.0-0.0-1.0-0.1-1.108","null","<span style='color:GreenYellow; font-size: 70px;'>正确! </span>","null","","","","","","","","","","","","","","","","","","","","","","","feedback_test"
"","","","","","psychophysics","379","666171","0.0-13.0-0.0-1.0-0.1-0.109","696","","f","","","","","","","","","","","","","key","f","16.666000000000086","720","446","f","true","img/T_ambi40.png","方形","image_first",""
"","","","","","html-keyboard-response","380","666480","0.0-13.0-0.0-1.0-0.1-1.109","null","<span style='color:GreenYellow; font-size: 70px;'>正确! </span>","null","","","","","","","","","","","","","","","","","","","","","","","feedback_test"
"","","","","","psychophysics","381","668472","0.0-13.0-0.0-1.0-0.1-0.110","840","","f","","","","","","","","","","","","","key","f","16.666000000000892","720","446","f","true","img/S_ambi40.png","圆形","image_first",""
"","","","","","html-keyboard-response","382","668780","0.0-13.0-0.0-1.0-0.1-1.110","null","<span style='color:GreenYellow; font-size: 70px;'>正确! </span>","null","","","","","","","","","","","","","","","","","","","","","","","feedback_test"
"","","","","","psychophysics","383","670500","0.0-13.0-0.0-1.0-0.1-0.111","568","","j","","","","","","","","","","","","","key","j","16.66600000000029","720","446","j","true","img/S_ambi40.png","方形","image_first",""
"","","","","","html-keyboard-response","384","670805","0.0-13.0-0.0-1.0-0.1-1.111","null","<span style='color:GreenYellow; font-size: 70px;'>正确! </span>","null","","","","","","","","","","","","","","","","","","","","","","","feedback_test"
"","","","","","psychophysics","385","672596","0.0-13.0-0.0-1.0-0.1-0.112","632","","j","","","","","","","","","","","","","key","j","16.666000000000185","720","446","j","true","img/T_ambi40.png","三角","image_first",""
"","","","","","html-keyboard-response","386","672900","0.0-13.0-0.0-1.0-0.1-1.112","null","<span style='color:GreenYellow; font-size: 70px;'>正确! </span>","null","","","","","","","","","","","","","","","","","","","","","","","feedback_test"
"","","","","","psychophysics","387","674726","0.0-13.0-0.0-1.0-0.1-0.113","665","","j","","","","","","","","","","","","","key","j","16.670499999999905","720","446","f","false","img/C_ambi40.png","方形","image_first",""
"","","","","","html-keyboard-response","388","675031","0.0-13.0-0.0-1.0-0.1-1.113","null","<span style='color:red; font-size: 70px;'>错误! </span>","null","","","","","","","","","","","","","","","","","","","","","","","feedback_test"
"","","","","","psychophysics","389","676928","0.0-13.0-0.0-1.0-0.1-0.114","744","","f","","","","","","","","","","","","","key","f","16.665999999999517","720","446","f","true","img/C_ambi40.png","三角","image_first",""
"","","","","","html-keyboard-response","390","677237","0.0-13.0-0.0-1.0-0.1-1.114","null","<span style='color:GreenYellow; font-size: 70px;'>正确! </span>","null","","","","","","","","","","","","","","","","","","","","","","","feedback_test"
"","","","","","psychophysics","391","679407","0.0-13.0-0.0-1.0-0.1-0.115","1010","","j","","","","","","","","","","","","","key","j","16.665999999999922","720","446","j","true","img/S_ambi40.png","方形","image_first",""
"","","","","","html-keyboard-response","392","679717","0.0-13.0-0.0-1.0-0.1-1.115","null","<span style='color:GreenYellow; font-size: 70px;'>正确! </span>","null","","","","","","","","","","","","","","","","","","","","","","","feedback_test"
"","","","","","psychophysics","393","681782","0.0-13.0-0.0-1.0-0.1-0.116","905","","j","","","","","","","","","","","","","key","j","16.666000000000516","720","446","j","true","img/C_ambi40.png","圆形","image_first",""
"","","","","","html-keyboard-response","394","682096","0.0-13.0-0.0-1.0-0.1-1.116","null","<span style='color:GreenYellow; font-size: 70px;'>正确! </span>","null","","","","","","","","","","","","","","","","","","","","","","","feedback_test"
"","","","","","psychophysics","395","684067","0.0-13.0-0.0-1.0-0.1-0.117","819","","j","","","","","","","","","","","","","key","j","16.666000000000174","720","446","j","true","img/C_ambi40.png","圆形","image_first",""
"","","","","","html-keyboard-response","396","684375","0.0-13.0-0.0-1.0-0.1-1.117","null","<span style='color:GreenYellow; font-size: 70px;'>正确! </span>","null","","","","","","","","","","","","","","","","","","","","","","","feedback_test"
"","","","","","psychophysics","397","686239","0.0-13.0-0.0-1.0-0.1-0.118","709","","f","","","","","","","","","","","","","key","f","16.665999999999798","720","446","f","true","img/S_ambi40.png","三角","image_first",""
"","","","","","html-keyboard-response","398","686547","0.0-13.0-0.0-1.0-0.1-1.118","null","<span style='color:GreenYellow; font-size: 70px;'>正确! </span>","null","","","","","","","","","","","","","","","","","","","","","","","feedback_test"
"","","","","","psychophysics","399","688992","0.0-13.0-0.0-1.0-0.1-0.119","1294","","j","","","","","","","","","","","","","key","j","16.665999999999645","720","446","f","false","img/T_ambi40.png","圆形","image_first",""
"","","","","","html-keyboard-response","400","689303","0.0-13.0-0.0-1.0-0.1-1.119","null","<span style='color:red; font-size: 70px;'>错误! </span>","null","","","","","","","","","","","","","","","","","","","","","","","feedback_test"
"","","","","","html-keyboard-response","401","690783","0.0-13.0-0.0-1.0-1.1","1477","<style>.context{color:white; font-size: 35px; line-height:40px}</style>                            <div><p class='context'>您正确回答了87% 的试次。</p><p class='context'>您的平均反应时为752毫秒。</p><p class='context'>请按任意键进入休息</p></div>","j","","","","","","","","","","","","","","","","","","","","","","",""
"","","","","","html-button-response","402","747058","0.0-13.0-0.0-1.0-2.1","56269","
                    <p>您当前还剩余2组实验</p>
                    <p>现在是休息时间，当您结束休息后，您可以点击 结束休息 按钮 继续</p>
                    <p>建议休息时间还剩余<span id=""iii"">60</span>秒</p>","0","","","","","","","","","","","","","","","","","","","","","","",""
"","","","","","psychophysics","403","748851","0.0-13.0-0.0-1.0-0.2-0.120","638","","f","","","","","","","","","","","","","key","f","16.665999999999887","720","446","f","true","img/T_ambi40.png","圆形","image_first",""
"","","","","","html-keyboard-response","404","749159","0.0-13.0-0.0-1.0-0.2-1.120","null","<span style='color:GreenYellow; font-size: 70px;'>正确! </span>","null","","","","","","","","","","","","","","","","","","","","","","","feedback_test"
"","","","","","psychophysics","405","750873","0.0-13.0-0.0-1.0-0.2-0.121","559","","j","","","","","","","","","","","","","key","j","16.66600000000029","720","446","j","true","img/C_ambi40.png","圆形","image_first",""
"","","","","","html-keyboard-response","406","751180","0.0-13.0-0.0-1.0-0.2-1.121","null","<span style='color:GreenYellow; font-size: 70px;'>正确! </span>","null","","","","","","","","","","","","","","","","","","","","","","","feedback_test"
"","","","","","psychophysics","407","752990","0.0-13.0-0.0-1.0-0.2-0.122","657","","f","","","","","","","","","","","","","key","f","16.665999999999887","720","446","f","true","img/C_ambi40.png","方形","image_first",""
"","","","","","html-keyboard-response","408","753301","0.0-13.0-0.0-1.0-0.2-1.122","null","<span style='color:GreenYellow; font-size: 70px;'>正确! </span>","null","","","","","","","","","","","","","","","","","","","","","","","feedback_test"
"","","","","","psychophysics","409","754978","0.0-13.0-0.0-1.0-0.2-0.123","518","","j","","","","","","","","","","","","","key","j","16.666000000000086","720","446","j","true","img/T_ambi40.png","三角","image_first",""
"","","","","","html-keyboard-response","410","755284","0.0-13.0-0.0-1.0-0.2-1.123","null","<span style='color:GreenYellow; font-size: 70px;'>正确! </span>","null","","","","","","","","","","","","","","","","","","","","","","","feedback_test"
"","","","","","psychophysics","411","757038","0.0-13.0-0.0-1.0-0.2-0.124","595","","j","","","","","","","","","","","","","key","j","16.675615384615064","720","446","j","true","img/T_ambi40.png","三角","image_first",""
"","","","","","html-keyboard-response","412","757347","0.0-13.0-0.0-1.0-0.2-1.124","null","<span style='color:GreenYellow; font-size: 70px;'>正确! </span>","null","","","","","","","","","","","","","","","","","","","","","","","feedback_test"
"","","","","","psychophysics","413","759164","0.0-13.0-0.0-1.0-0.2-0.125","665","","f","","","","","","","","","","","","","key","f","16.665999999999887","720","446","f","true","img/T_ambi40.png","方形","image_first",""
"","","","","","html-keyboard-response","414","759467","0.0-13.0-0.0-1.0-0.2-1.125","null","<span style='color:GreenYellow; font-size: 70px;'>正确! </span>","null","","","","","","","","","","","","","","","","","","","","","","","feedback_test"
"","","","","","psychophysics","415","761518","0.0-13.0-0.0-1.0-0.2-0.126","890","","f","","","","","","","","","","","","","key","f","16.66600000000078","720","446","f","true","img/S_ambi40.png","圆形","image_first",""
"","","","","","html-keyboard-response","416","761823","0.0-13.0-0.0-1.0-0.2-1.126","null","<span style='color:GreenYellow; font-size: 70px;'>正确! </span>","null","","","","","","","","","","","","","","","","","","","","","","","feedback_test"
"","","","","","psychophysics","417","763685","0.0-13.0-0.0-1.0-0.2-0.127","704","","f","","","","","","","","","","","","","key","f","16.665999999999798","720","446","f","true","img/S_ambi40.png","三角","image_first",""
"","","","","","html-keyboard-response","418","763988","0.0-13.0-0.0-1.0-0.2-1.127","null","<span style='color:GreenYellow; font-size: 70px;'>正确! </span>","null","","","","","","","","","","","","","","","","","","","","","","","feedback_test"
"","","","","","psychophysics","419","765693","0.0-13.0-0.0-1.0-0.2-0.128","545","","j","","","","","","","","","","","","","key","j","16.666000000000608","720","446","j","true","img/S_ambi40.png","方形","image_first",""
"","","","","","html-keyboard-response","420","765997","0.0-13.0-0.0-1.0-0.2-1.128","null","<span style='color:GreenYellow; font-size: 70px;'>正确! </span>","null","","","","","","","","","","","","","","","","","","","","","","","feedback_test"
"","","","","","psychophysics","421","767752","0.0-13.0-0.0-1.0-0.2-0.129","604","","f","","","","","","","","","","","","","key","f","16.665999999999677","720","446","f","true","img/C_ambi40.png","三角","image_first",""
"","","","","","html-keyboard-response","422","768063","0.0-13.0-0.0-1.0-0.2-1.129","null","<span style='color:GreenYellow; font-size: 70px;'>正确! </span>","null","","","","","","","","","","","","","","","","","","","","","","","feedback_test"
"","","","","","psychophysics","423","769734","0.0-13.0-0.0-1.0-0.2-0.130","519","","j","","","","","","","","","","","","","key","j","16.666000000000086","720","446","j","true","img/C_ambi40.png","圆形","image_first",""
"","","","","","html-keyboard-response","424","770047","0.0-13.0-0.0-1.0-0.2-1.130","null","<span style='color:GreenYellow; font-size: 70px;'>正确! </span>","null","","","","","","","","","","","","","","","","","","","","","","","feedback_test"
"","","","","","psychophysics","425","771808","0.0-13.0-0.0-1.0-0.2-0.131","609","","f","","","","","","","","","","","","","key","f","16.665999999999677","720","446","j","false","img/S_ambi40.png","方形","image_first",""
"","","","","","html-keyboard-response","426","772116","0.0-13.0-0.0-1.0-0.2-1.131","null","<span style='color:red; font-size: 70px;'>错误! </span>","null","","","","","","","","","","","","","","","","","","","","","","","feedback_test"
"","","","","","psychophysics","427","774061","0.0-13.0-0.0-1.0-0.2-0.132","786","","f","","","","","","","","","","","","","key","f","16.665999999999716","720","446","f","true","img/S_ambi40.png","三角","image_first",""
"","","","","","html-keyboard-response","428","774363","0.0-13.0-0.0-1.0-0.2-1.132","null","<span style='color:GreenYellow; font-size: 70px;'>正确! </span>","null","","","","","","","","","","","","","","","","","","","","","","","feedback_test"
"","","","","","psychophysics","429","776090","0.0-13.0-0.0-1.0-0.2-0.133","576","","j","","","","","","","","","","","","","key","j","16.66599999999915","720","446","j","true","img/C_ambi40.png","圆形","image_first",""
"","","","","","html-keyboard-response","430","776397","0.0-13.0-0.0-1.0-0.2-1.133","null","<span style='color:GreenYellow; font-size: 70px;'>正确! </span>","null","","","","","","","","","","","","","","","","","","","","","","","feedback_test"
"","","","","","psychophysics","431","778864","0.0-13.0-0.0-1.0-0.2-0.134","1317","","f","","","","","","","","","","","","","key","f","16.672541095890352","720","446","f","true","img/S_ambi40.png","圆形","image_first",""
"","","","","","html-keyboard-response","432","779174","0.0-13.0-0.0-1.0-0.2-1.134","null","<span style='color:GreenYellow; font-size: 70px;'>正确! </span>","null","","","","","","","","","","","","","","","","","","","","","","","feedback_test"
