"success","timeout","failed_images","failed_audio","failed_video","trial_type","trial_index","time_elapsed","internal_node_id","rt","stimulus","response","value","item_width_mm","item_height_mm","item_width_px","px2mm","view_dist_mm","item_width_deg","px2deg","scale_factor","win_width_deg","win_height_deg","view_history","response_type","key_press","avg_frame_time","center_x","center_y","correct_response","correct","Image","word","condition","screen_id"
"true","false","[]","[]","[]","preload","0","24143","0.0-0.0","","","","","","","","","","","","","","","","","","","","","","","","","",""
"","","","","","html-keyboard-response","1","28280","0.0-1.0","4134","
   <p>您好，欢迎参加本次实验。</p>
   <p>为充分保障您的权利，请确保您已经知晓并同意《参与实验同意书》以及《数据公开知情同意书》。</p>
   <p>如果您未见过上述内容，请咨询实验员。</p>
   <p>如果您选择继续实验，则表示您已经清楚两份知情同意书的内容并同意。</p>
   <p> <div style = ""color: green""><按任意键至下页></div> </p>
   ","arrowdown","","","","","","","","","","","","","","","","","","","","","","",""
"","","","","","html-keyboard-response","2","29001","0.0-2.0","720","
   <p>本实验首先需要您填写一些基本个人信息。</p>
   <p> <div style = ""color: green""><按任意键至下页></div></p>
   ","arrowdown","","","","","","","","","","","","","","","","","","","","","","",""
"","","","","","call-function","3","29001","0.0-3.0-0.0","","","","","","","","","","","","","","","","","","","","","","","","","",""
"","","","","","survey-html-form","4","32083","0.0-3.0-1.0","3078","","{""Q0"":""32""}","","","","","","","","","","","","","","","","","","","","","","",""
"","","","","","html-button-response","5","33293","0.0-3.0-2.0","1206","<p style = 'color : white'>您的性别</p>","1","","","","","","","","","","","","","","","","","","","","","","",""
"","","","","","survey-html-form","6","37171","0.0-3.0-3.0","3876","","{""Q0"":""2004""}","","","","","","","","","","","","","","","","","","","","","","",""
"","","","","","survey-html-form","7","38860","0.0-3.0-4.0","1680","","{""Q0"":""5""}","","","","","","","","","","","","","","","","","","","","","","",""
"","","","","","virtual-chinrest","8","96217","0.0-4.0","57352","","","","85.6","53.98","544.4064855108494","6.366043580570416","449.09","10.888129710216988","50","0.6833129470361287","29.8","15.08","","","","","","","","","","","",""
"true","","","","","fullscreen","9","99328","0.0-5.0","","","","","","","","","","","","","","","","","","","","","","","","","",""
"","","","","","instructions","10","148074","0.0-6.0","48745","","","","","","","","","","","","","","[{""page_index"":0,""viewing_time"":3364},{""page_index"":1,""viewing_time"":27103},{""page_index"":2,""viewing_time"":13811},{""page_index"":3,""viewing_time"":4468}]","","","","","","","","","","",""
"","","","","","psychophysics","11","149792","0.0-7.0-0.0-0.0","563","","f","","","","","","","","","","","","","key","f","16.67331372549034","768","428","j","false","img/C_ambi40.png","三角","prac_image_first",""
"","","","","","html-keyboard-response","12","150096","0.0-7.0-0.0-1.0","null","<span style='color:red; font-size: 70px;'>错误! </span>","null","","","","","","","","","","","","","","","","","","","","","","","feedback_test"
"","","","","","psychophysics","13","152751","0.0-7.0-0.0-0.1","null","","null","","","","","","","","","","","","","key","null","16.672873417721416","768","428","j","false","img/C_ambi40.png","方形","prac_image_first",""
"","","","","","html-keyboard-response","14","153054","0.0-7.0-0.0-1.1","null","<span class='add_' style='color:yellow; font-size: 70px;'> 太慢! </span>","null","","","","","","","","","","","","","","","","","","","","","","","feedback_test"
"","","","","","psychophysics","15","155710","0.0-7.0-0.0-0.2","null","","null","","","","","","","","","","","","","key","null","16.673069620253173","768","428","f","false","img/C_ambi40.png","圆形","prac_image_first",""
"","","","","","html-keyboard-response","16","156015","0.0-7.0-0.0-1.2","null","<span class='add_' style='color:yellow; font-size: 70px;'> 太慢! </span>","null","","","","","","","","","","","","","","","","","","","","","","","feedback_test"
"","","","","","psychophysics","17","157314","0.0-7.0-0.0-0.3","137","","f","","","","","","","","","","","","","key","f","16.672610389610355","768","428","f","true","img/S_ambi40.png","方形","prac_image_first",""
"","","","","","html-keyboard-response","18","157616","0.0-7.0-0.0-1.3","null","<span style='color:yellow; font-size: 70px;'>过快! </span>","null","","","","","","","","","","","","","","","","","","","","","","","feedback_test"
"","","","","","psychophysics","19","159047","0.0-7.0-0.0-0.4","279","","f","","","","","","","","","","","","","key","f","16.673623529411785","768","428","j","false","img/S_ambi40.png","圆形","prac_image_first",""
"","","","","","html-keyboard-response","20","159348","0.0-7.0-0.0-1.4","null","<span style='color:red; font-size: 70px;'>错误! </span>","null","","","","","","","","","","","","","","","","","","","","","","","feedback_test"
"","","","","","psychophysics","21","160718","0.0-7.0-0.0-0.5","217","","j","","","","","","","","","","","","","key","j","16.67217283950613","768","428","j","true","img/T_ambi40.png","方形","prac_image_first",""
"","","","","","html-keyboard-response","22","161020","0.0-7.0-0.0-1.5","null","<span style='color:GreenYellow; font-size: 70px;'>正确! </span>","null","","","","","","","","","","","","","","","","","","","","","","","feedback_test"
"","","","","","psychophysics","23","162392","0.0-7.0-0.0-0.6","219","","f","","","","","","","","","","","","","key","f","16.6597037037039","768","428","f","true","img/C_ambi40.png","圆形","prac_image_first",""
"","","","","","html-keyboard-response","24","162697","0.0-7.0-0.0-1.6","null","<span style='color:GreenYellow; font-size: 70px;'>正确! </span>","null","","","","","","","","","","","","","","","","","","","","","","","feedback_test"
"","","","","","psychophysics","25","164103","0.0-7.0-0.0-0.7","253","","j","","","","","","","","","","","","","key","j","16.674566265060257","768","428","f","false","img/S_ambi40.png","方形","prac_image_first",""
"","","","","","html-keyboard-response","26","164405","0.0-7.0-0.0-1.7","null","<span style='color:red; font-size: 70px;'>错误! </span>","null","","","","","","","","","","","","","","","","","","","","","","","feedback_test"
"","","","","","psychophysics","27","165735","0.0-7.0-0.0-0.8","167","","f","","","","","","","","","","","","","key","f","16.656051282051546","768","428","j","false","img/T_ambi40.png","圆形","prac_image_first",""
"","","","","","html-keyboard-response","28","166038","0.0-7.0-0.0-1.8","null","<span style='color:yellow; font-size: 70px;'>过快! </span>","null","","","","","","","","","","","","","","","","","","","","","","","feedback_test"
"","","","","","psychophysics","29","167315","0.0-7.0-0.0-0.9","125","","f","","","","","","","","","","","","","key","f","16.67310526315812","768","428","f","true","img/T_ambi40.png","三角","prac_image_first",""
"","","","","","html-keyboard-response","30","167619","0.0-7.0-0.0-1.9","null","<span style='color:yellow; font-size: 70px;'>过快! </span>","null","","","","","","","","","","","","","","","","","","","","","","","feedback_test"
"","","","","","psychophysics","31","168907","0.0-7.0-0.0-0.10","135","","f","","","","","","","","","","","","","key","f","16.67594736842109","768","428","j","false","img/S_ambi40.png","三角","prac_image_first",""
"","","","","","html-keyboard-response","32","169211","0.0-7.0-0.0-1.10","null","<span style='color:yellow; font-size: 70px;'>过快! </span>","null","","","","","","","","","","","","","","","","","","","","","","","feedback_test"
"","","","","","psychophysics","33","170460","0.0-7.0-0.0-0.11","97","","f","","","","","","","","","","","","","key","f","16.672520547945368","768","428","f","true","img/T_ambi40.png","三角","prac_image_first",""
"","","","","","html-keyboard-response","34","170764","0.0-7.0-0.0-1.11","null","<span style='color:yellow; font-size: 70px;'>过快! </span>","null","","","","","","","","","","","","","","","","","","","","","","","feedback_test"
"","","","","","psychophysics","35","172480","0.0-7.0-0.0-0.12","560","","f","","","","","","","","","","","","","key","f","16.67321782178213","768","428","j","false","img/C_ambi40.png","三角","prac_image_first",""
"","","","","","html-keyboard-response","36","172784","0.0-7.0-0.0-1.12","null","<span style='color:red; font-size: 70px;'>错误! </span>","null","","","","","","","","","","","","","","","","","","","","","","","feedback_test"
"","","","","","psychophysics","37","174476","0.0-7.0-0.0-0.13","540","","f","","","","","","","","","","","","","key","f","16.669169999999866","768","428","f","true","img/T_ambi40.png","三角","prac_image_first",""
"","","","","","html-keyboard-response","38","174783","0.0-7.0-0.0-1.13","null","<span style='color:GreenYellow; font-size: 70px;'>正确! </span>","null","","","","","","","","","","","","","","","","","","","","","","","feedback_test"
"","","","","","psychophysics","39","176492","0.0-7.0-0.0-0.14","555","","j","","","","","","","","","","","","","key","j","16.663811881187957","768","428","f","false","img/S_ambi40.png","方形","prac_image_first",""
"","","","","","html-keyboard-response","40","176795","0.0-7.0-0.0-1.14","null","<span style='color:red; font-size: 70px;'>错误! </span>","null","","","","","","","","","","","","","","","","","","","","","","","feedback_test"
"","","","","","psychophysics","41","178298","0.0-7.0-0.0-0.15","344","","f","","","","","","","","","","","","","key","f","16.6731136363636","768","428","j","false","img/S_ambi40.png","三角","prac_image_first",""
"","","","","","html-keyboard-response","42","178600","0.0-7.0-0.0-1.15","null","<span style='color:red; font-size: 70px;'>错误! </span>","null","","","","","","","","","","","","","","","","","","","","","","","feedback_test"
"","","","","","psychophysics","43","181216","0.0-7.0-0.0-0.16","1459","","f","","","","","","","","","","","","","key","f","16.673161290322557","768","428","f","true","img/C_ambi40.png","圆形","prac_image_first",""
"","","","","","html-keyboard-response","44","181520","0.0-7.0-0.0-1.16","null","<span style='color:GreenYellow; font-size: 70px;'>正确! </span>","null","","","","","","","","","","","","","","","","","","","","","","","feedback_test"
"","","","","","psychophysics","45","183174","0.0-7.0-0.0-0.17","502","","j","","","","","","","","","","","","","key","j","16.67331632653047","768","428","j","true","img/T_ambi40.png","圆形","prac_image_first",""
"","","","","","html-keyboard-response","46","183478","0.0-7.0-0.0-1.17","null","<span style='color:GreenYellow; font-size: 70px;'>正确! </span>","null","","","","","","","","","","","","","","","","","","","","","","","feedback_test"
"","","","","","psychophysics","47","185171","0.0-7.0-0.0-0.18","535","","f","","","","","","","","","","","","","key","f","16.673059405940517","768","428","j","false","img/C_ambi40.png","方形","prac_image_first",""
"","","","","","html-keyboard-response","48","185474","0.0-7.0-0.0-1.18","null","<span style='color:red; font-size: 70px;'>错误! </span>","null","","","","","","","","","","","","","","","","","","","","","","","feedback_test"
"","","","","","psychophysics","49","187009","0.0-7.0-0.0-0.19","382","","j","","","","","","","","","","","","","key","j","16.674065934065897","768","428","j","true","img/S_ambi40.png","圆形","prac_image_first",""
"","","","","","html-keyboard-response","50","187312","0.0-7.0-0.0-1.19","null","<span style='color:GreenYellow; font-size: 70px;'>正确! </span>","null","","","","","","","","","","","","","","","","","","","","","","","feedback_test"
"","","","","","psychophysics","51","188946","0.0-7.0-0.0-0.20","481","","j","","","","","","","","","","","","","key","j","16.67298958333352","768","428","f","false","img/S_ambi40.png","方形","prac_image_first",""
"","","","","","html-keyboard-response","52","189248","0.0-7.0-0.0-1.20","null","<span style='color:red; font-size: 70px;'>错误! </span>","null","","","","","","","","","","","","","","","","","","","","","","","feedback_test"
"","","","","","psychophysics","53","190613","0.0-7.0-0.0-0.21","212","","f","","","","","","","","","","","","","key","f","16.672637499999837","768","428","j","false","img/T_ambi40.png","方形","prac_image_first",""
"","","","","","html-keyboard-response","54","190914","0.0-7.0-0.0-1.21","null","<span style='color:red; font-size: 70px;'>错误! </span>","null","","","","","","","","","","","","","","","","","","","","","","","feedback_test"
"","","","","","psychophysics","55","192411","0.0-7.0-0.0-0.22","345","","j","","","","","","","","","","","","","key","j","16.67331460674177","768","428","f","false","img/C_ambi40.png","圆形","prac_image_first",""
"","","","","","html-keyboard-response","56","192715","0.0-7.0-0.0-1.22","null","<span style='color:red; font-size: 70px;'>错误! </span>","null","","","","","","","","","","","","","","","","","","","","","","","feedback_test"
"","","","","","psychophysics","57","194247","0.0-7.0-0.0-0.23","378","","f","","","","","","","","","","","","","key","f","16.674076923077088","768","428","f","true","img/T_ambi40.png","三角","prac_image_first",""
"","","","","","html-keyboard-response","58","194549","0.0-7.0-0.0-1.23","null","<span style='color:GreenYellow; font-size: 70px;'>正确! </span>","null","","","","","","","","","","","","","","","","","","","","","","","feedback_test"
"","","","","","html-keyboard-response","59","200856","0.0-7.0-1.0-0.0","6303","<style>.context{color:white; font-size: 35px; line-height:40px}</style>                            <div><p class='context'>您正确回答了42% 的试次。</p><p class='context'>您的平均反应时为406毫秒。</p>","j","","","","","","","","","","","","","","","","","","","","","","",""
"","","","","","instructions","60","221888","0.0-7.0-1.0-1.0","21030","","","","","","","","","","","","","","[{""page_index"":0,""viewing_time"":4009},{""page_index"":1,""viewing_time"":14106},{""page_index"":2,""viewing_time"":2914}]","","","","","","","","","","",""
"","","","","","psychophysics","61","223631","0.0-7.1-0.1-0.24","588","","f","","","","","","","","","","","","","key","f","16.673284313725375","768","428","j","false","img/C_ambi40.png","三角","prac_image_first",""
"","","","","","html-keyboard-response","62","223933","0.0-7.1-0.1-1.24","null","<span style='color:red; font-size: 70px;'>错误! </span>","null","","","","","","","","","","","","","","","","","","","","","","","feedback_test"
"","","","","","psychophysics","63","225791","0.0-7.1-0.1-0.25","704","","j","","","","","","","","","","","","","key","j","16.673490909090933","768","428","j","true","img/T_ambi40.png","方形","prac_image_first",""
"","","","","","html-keyboard-response","64","226092","0.0-7.1-0.1-1.25","null","<span style='color:GreenYellow; font-size: 70px;'>正确! </span>","null","","","","","","","","","","","","","","","","","","","","","","","feedback_test"
"","","","","","psychophysics","65","227989","0.0-7.1-0.1-0.26","745","","f","","","","","","","","","","","","","key","f","16.673699115044478","768","428","j","false","img/C_ambi40.png","方形","prac_image_first",""
"","","","","","html-keyboard-response","66","228292","0.0-7.1-0.1-1.26","null","<span style='color:red; font-size: 70px;'>错误! </span>","null","","","","","","","","","","","","","","","","","","","","","","","feedback_test"
"","","","","","psychophysics","67","230696","0.0-7.1-0.1-0.27","1251","","j","","","","","","","","","","","","","key","j","16.67313286713288","768","428","f","false","img/S_ambi40.png","方形","prac_image_first",""
"","","","","","html-keyboard-response","68","230999","0.0-7.1-0.1-1.27","null","<span style='color:red; font-size: 70px;'>错误! </span>","null","","","","","","","","","","","","","","","","","","","","","","","feedback_test"
"","","","","","psychophysics","69","232808","0.0-7.1-0.1-0.28","655","","f","","","","","","","","","","","","","key","f","16.673299065420338","768","428","f","true","img/T_ambi40.png","三角","prac_image_first",""
"","","","","","html-keyboard-response","70","233111","0.0-7.1-0.1-1.28","null","<span style='color:GreenYellow; font-size: 70px;'>正确! </span>","null","","","","","","","","","","","","","","","","","","","","","","","feedback_test"
"","","","","","psychophysics","71","235148","0.0-7.1-0.1-0.29","884","","j","","","","","","","","","","","","","key","j","16.673347107437824","768","428","j","true","img/S_ambi40.png","三角","prac_image_first",""
"","","","","","html-keyboard-response","72","235451","0.0-7.1-0.1-1.29","null","<span style='color:GreenYellow; font-size: 70px;'>正确! </span>","null","","","","","","","","","","","","","","","","","","","","","","","feedback_test"
"","","","","","psychophysics","73","237530","0.0-7.1-0.1-0.30","927","","f","","","","","","","","","","","","","key","f","16.673731707317124","768","428","f","true","img/C_ambi40.png","圆形","prac_image_first",""
"","","","","","html-keyboard-response","74","237832","0.0-7.1-0.1-1.30","null","<span style='color:GreenYellow; font-size: 70px;'>正确! </span>","null","","","","","","","","","","","","","","","","","","","","","","","feedback_test"
"","","","","","psychophysics","75","239698","0.0-7.1-0.1-0.31","714","","f","","","","","","","","","","","","","key","f","16.67341441441425","768","428","j","false","img/S_ambi40.png","圆形","prac_image_first",""
"","","","","","html-keyboard-response","76","240000","0.0-7.1-0.1-1.31","null","<span style='color:red; font-size: 70px;'>错误! </span>","null","","","","","","","","","","","","","","","","","","","","","","","feedback_test"
"","","","","","psychophysics","77","242093","0.0-7.1-0.1-0.32","941","","f","","","","","","","","","","","","","key","f","16.664032258064488","768","428","f","true","img/S_ambi40.png","方形","prac_image_first",""
"","","","","","html-keyboard-response","78","242397","0.0-7.1-0.1-1.32","null","<span style='color:GreenYellow; font-size: 70px;'>正确! </span>","null","","","","","","","","","","","","","","","","","","","","","","","feedback_test"
"","","","","","psychophysics","79","244162","0.0-7.1-0.1-0.33","613","","f","","","","","","","","","","","","","key","f","16.672933333333294","768","428","f","true","img/T_ambi40.png","三角","prac_image_first",""
"","","","","","html-keyboard-response","80","244466","0.0-7.1-0.1-1.33","null","<span style='color:GreenYellow; font-size: 70px;'>正确! </span>","null","","","","","","","","","","","","","","","","","","","","","","","feedback_test"
"","","","","","psychophysics","81","246198","0.0-7.1-0.1-0.34","579","","j","","","","","","","","","","","","","key","j","16.672854368932075","768","428","j","true","img/T_ambi40.png","圆形","prac_image_first",""
"","","","","","html-keyboard-response","82","246504","0.0-7.1-0.1-1.34","null","<span style='color:GreenYellow; font-size: 70px;'>正确! </span>","null","","","","","","","","","","","","","","","","","","","","","","","feedback_test"
"","","","","","psychophysics","83","248429","0.0-7.1-0.1-0.35","772","","f","","","","","","","","","","","","","key","f","16.673859649122868","768","428","f","true","img/C_ambi40.png","圆形","prac_image_first",""
"","","","","","html-keyboard-response","84","248733","0.0-7.1-0.1-1.35","null","<span style='color:GreenYellow; font-size: 70px;'>正确! </span>","null","","","","","","","","","","","","","","","","","","","","","","","feedback_test"
"","","","","","psychophysics","85","250604","0.0-7.1-0.1-0.36","717","","j","","","","","","","","","","","","","key","j","16.673189189189078","768","428","j","true","img/C_ambi40.png","三角","prac_image_first",""
"","","","","","html-keyboard-response","86","250905","0.0-7.1-0.1-1.36","null","<span style='color:GreenYellow; font-size: 70px;'>正确! </span>","null","","","","","","","","","","","","","","","","","","","","","","","feedback_test"
"","","","","","psychophysics","87","252765","0.0-7.1-0.1-0.37","683","","f","","","","","","","","","","","","","key","f","16.673706422018427","768","428","f","true","img/C_ambi40.png","圆形","prac_image_first",""
"","","","","","html-keyboard-response","88","253066","0.0-7.1-0.1-1.37","null","<span style='color:GreenYellow; font-size: 70px;'>正确! </span>","null","","","","","","","","","","","","","","","","","","","","","","","feedback_test"
"","","","","","psychophysics","89","254769","0.0-7.1-0.1-0.38","551","","f","","","","","","","","","","","","","key","f","16.669316831683407","768","428","f","true","img/C_ambi40.png","圆形","prac_image_first",""
"","","","","","html-keyboard-response","90","255071","0.0-7.1-0.1-1.38","null","<span style='color:GreenYellow; font-size: 70px;'>正确! </span>","null","","","","","","","","","","","","","","","","","","","","","","","feedback_test"
"","","","","","psychophysics","91","256916","0.0-7.1-0.1-0.39","678","","f","","","","","","","","","","","","","key","f","16.673311926605535","768","428","f","true","img/T_ambi40.png","三角","prac_image_first",""
"","","","","","html-keyboard-response","92","257219","0.0-7.1-0.1-1.39","null","<span style='color:GreenYellow; font-size: 70px;'>正确! </span>","null","","","","","","","","","","","","","","","","","","","","","","","feedback_test"
"","","","","","psychophysics","93","259005","0.0-7.1-0.1-0.40","624","","f","","","","","","","","","","","","","key","f","16.671443396226508","768","428","f","true","img/S_ambi40.png","方形","prac_image_first",""
"","","","","","html-keyboard-response","94","259308","0.0-7.1-0.1-1.40","null","<span style='color:GreenYellow; font-size: 70px;'>正确! </span>","null","","","","","","","","","","","","","","","","","","","","","","","feedback_test"
"","","","","","psychophysics","95","261030","0.0-7.1-0.1-0.41","566","","f","","","","","","","","","","","","","key","f","16.668900990099093","768","428","f","true","img/T_ambi40.png","三角","prac_image_first",""
"","","","","","html-keyboard-response","96","261335","0.0-7.1-0.1-1.41","null","<span style='color:GreenYellow; font-size: 70px;'>正确! </span>","null","","","","","","","","","","","","","","","","","","","","","","","feedback_test"
"","","","","","psychophysics","97","263090","0.0-7.1-0.1-0.42","600","","j","","","","","","","","","","","","","key","j","16.673288461538995","768","428","j","true","img/T_ambi40.png","方形","prac_image_first",""
"","","","","","html-keyboard-response","98","263393","0.0-7.1-0.1-1.42","null","<span style='color:GreenYellow; font-size: 70px;'>正确! </span>","null","","","","","","","","","","","","","","","","","","","","","","","feedback_test"
"","","","","","psychophysics","99","265627","0.0-7.1-0.1-0.43","1075","","j","","","","","","","","","","","","","key","j","16.66433333333319","768","428","j","true","img/C_ambi40.png","方形","prac_image_first",""
"","","","","","html-keyboard-response","100","265929","0.0-7.1-0.1-1.43","null","<span style='color:GreenYellow; font-size: 70px;'>正确! </span>","null","","","","","","","","","","","","","","","","","","","","","","","feedback_test"
"","","","","","psychophysics","101","267977","0.0-7.1-0.1-0.44","897","","j","","","","","","","","","","","","","key","j","16.671809917355287","768","428","j","true","img/S_ambi40.png","三角","prac_image_first",""
"","","","","","html-keyboard-response","102","268281","0.0-7.1-0.1-1.44","null","<span style='color:GreenYellow; font-size: 70px;'>正确! </span>","null","","","","","","","","","","","","","","","","","","","","","","","feedback_test"
"","","","","","psychophysics","103","270628","0.0-7.1-0.1-0.45","1193","","j","","","","","","","","","","","","","key","j","16.67828057553969","768","428","j","true","img/S_ambi40.png","圆形","prac_image_first",""
"","","","","","html-keyboard-response","104","270930","0.0-7.1-0.1-1.45","null","<span style='color:GreenYellow; font-size: 70px;'>正确! </span>","null","","","","","","","","","","","","","","","","","","","","","","","feedback_test"
"","","","","","psychophysics","105","272888","0.0-7.1-0.1-0.46","806","","f","","","","","","","","","","","","","key","f","16.67296551724149","768","428","f","true","img/S_ambi40.png","方形","prac_image_first",""
"","","","","","html-keyboard-response","106","273192","0.0-7.1-0.1-1.46","null","<span style='color:GreenYellow; font-size: 70px;'>正确! </span>","null","","","","","","","","","","","","","","","","","","","","","","","feedback_test"
"","","","","","psychophysics","107","275442","0.0-7.1-0.1-0.47","1095","","j","","","","","","","","","","","","","key","j","16.669150375939655","768","428","j","true","img/T_ambi40.png","圆形","prac_image_first",""
"","","","","","html-keyboard-response","108","275744","0.0-7.1-0.1-1.47","null","<span style='color:GreenYellow; font-size: 70px;'>正确! </span>","null","","","","","","","","","","","","","","","","","","","","","","","feedback_test"
"","","","","","html-keyboard-response","109","279259","0.0-8.0","3502","<style>.context{color:white; font-size: 35px; line-height:40px}</style>                            <div><p class='context'>您正确回答了83% 的试次。</p><p class='context'>您的平均反应时为778毫秒。</p><p class='context'>恭喜您完成这一阶段的练习。按任意键进入<span style='color: yellow;'>先文字后图形条件</span>的练习。</p></div>","enter","","","","","","","","","","","","","","","","","","","","","","",""
"","","","","","psychophysics","110","281590","0.0-9.0-0.0-0.0","1169","","j","","","","","","","","","","","","","key","j","16.673007194244676","768","428","f","false","img/S_ambi40.png","方形","prac_word_first",""
"","","","","","html-keyboard-response","111","281892","0.0-9.0-0.0-1.0","null","<span style='color:red; font-size: 70px;'>错误! </span>","null","","","","","","","","","","","","","","","","","","","","","","","feedback_test"
"","","","","","psychophysics","112","283960","0.0-9.0-0.0-0.1","915","","j","","","","","","","","","","","","","key","j","16.66858196721296","768","428","j","true","img/C_ambi40.png","三角","prac_word_first",""
"","","","","","html-keyboard-response","113","284263","0.0-9.0-0.0-1.1","null","<span style='color:GreenYellow; font-size: 70px;'>正确! </span>","null","","","","","","","","","","","","","","","","","","","","","","","feedback_test"
"","","","","","psychophysics","114","286291","0.0-9.0-0.0-0.2","872","","j","","","","","","","","","","","","","key","j","16.67282500000001","768","428","j","true","img/S_ambi40.png","圆形","prac_word_first",""
"","","","","","html-keyboard-response","115","286596","0.0-9.0-0.0-1.2","null","<span style='color:GreenYellow; font-size: 70px;'>正确! </span>","null","","","","","","","","","","","","","","","","","","","","","","","feedback_test"
"","","","","","psychophysics","116","288485","0.0-9.0-0.0-0.3","736","","f","","","","","","","","","","","","","key","f","16.672160714285774","768","428","f","true","img/S_ambi40.png","方形","prac_word_first",""
"","","","","","html-keyboard-response","117","288786","0.0-9.0-0.0-1.3","null","<span style='color:GreenYellow; font-size: 70px;'>正确! </span>","null","","","","","","","","","","","","","","","","","","","","","","","feedback_test"
"","","","","","psychophysics","118","290729","0.0-9.0-0.0-0.4","781","","f","","","","","","","","","","","","","key","f","16.66278260869541","768","428","f","true","img/T_ambi40.png","三角","prac_word_first",""
"","","","","","html-keyboard-response","119","291030","0.0-9.0-0.0-1.4","null","<span style='color:GreenYellow; font-size: 70px;'>正确! </span>","null","","","","","","","","","","","","","","","","","","","","","","","feedback_test"
"","","","","","psychophysics","120","293165","0.0-9.0-0.0-0.5","982","","j","","","","","","","","","","","","","key","j","16.674362204724183","768","428","j","true","img/T_ambi40.png","圆形","prac_word_first",""
"","","","","","html-keyboard-response","121","293467","0.0-9.0-0.0-1.5","null","<span style='color:GreenYellow; font-size: 70px;'>正确! </span>","null","","","","","","","","","","","","","","","","","","","","","","","feedback_test"
"","","","","","psychophysics","122","295434","0.0-9.0-0.0-0.6","814","","j","","","","","","","","","","","","","key","j","16.680905982905713","768","428","j","true","img/S_ambi40.png","三角","prac_word_first",""
"","","","","","html-keyboard-response","123","295741","0.0-9.0-0.0-1.6","null","<span style='color:GreenYellow; font-size: 70px;'>正确! </span>","null","","","","","","","","","","","","","","","","","","","","","","","feedback_test"
"","","","","","psychophysics","124","297803","0.0-9.0-0.0-0.7","908","","j","","","","","","","","","","","","","key","j","16.661352459016374","768","428","j","true","img/C_ambi40.png","方形","prac_word_first",""
"","","","","","html-keyboard-response","125","298106","0.0-9.0-0.0-1.7","null","<span style='color:GreenYellow; font-size: 70px;'>正确! </span>","null","","","","","","","","","","","","","","","","","","","","","","","feedback_test"
"","","","","","psychophysics","126","300147","0.0-9.0-0.0-0.8","885","","j","","","","","","","","","","","","","key","j","16.669099173553803","768","428","j","true","img/T_ambi40.png","方形","prac_word_first",""
"","","","","","html-keyboard-response","127","300469","0.0-9.0-0.0-1.8","null","<span style='color:GreenYellow; font-size: 70px;'>正确! </span>","null","","","","","","","","","","","","","","","","","","","","","","","feedback_test"
"","","","","","psychophysics","128","302235","0.0-9.0-0.0-0.9","611","","f","","","","","","","","","","","","","key","f","16.673730769231042","768","428","f","true","img/T_ambi40.png","三角","prac_word_first",""
"","","","","","html-keyboard-response","129","302539","0.0-9.0-0.0-1.9","null","<span style='color:GreenYellow; font-size: 70px;'>正确! </span>","null","","","","","","","","","","","","","","","","","","","","","","","feedback_test"
"","","","","","psychophysics","130","304687","0.0-9.0-0.0-0.10","993","","f","","","","","","","","","","","","","key","f","16.673472440945016","768","428","f","true","img/C_ambi40.png","圆形","prac_word_first",""
"","","","","","html-keyboard-response","131","304992","0.0-9.0-0.0-1.10","null","<span style='color:GreenYellow; font-size: 70px;'>正确! </span>","null","","","","","","","","","","","","","","","","","","","","","","","feedback_test"
"","","","","","psychophysics","132","306848","0.0-9.0-0.0-0.11","702","","f","","","","","","","","","","","","","key","f","16.67309009008999","768","428","f","true","img/C_ambi40.png","圆形","prac_word_first",""
"","","","","","html-keyboard-response","133","307151","0.0-9.0-0.0-1.11","null","<span style='color:GreenYellow; font-size: 70px;'>正确! </span>","null","","","","","","","","","","","","","","","","","","","","","","","feedback_test"
"","","","","","psychophysics","134","309239","0.0-9.0-0.0-0.12","931","","f","","","","","","","","","","","","","key","f","16.673300813008062","768","428","f","true","img/S_ambi40.png","方形","prac_word_first",""
"","","","","","html-keyboard-response","135","309541","0.0-9.0-0.0-1.12","null","<span style='color:GreenYellow; font-size: 70px;'>正确! </span>","null","","","","","","","","","","","","","","","","","","","","","","","feedback_test"
"","","","","","psychophysics","136","311305","0.0-9.0-0.0-0.13","611","","f","","","","","","","","","","","","","key","f","16.67288571428563","768","428","f","true","img/T_ambi40.png","三角","prac_word_first",""
"","","","","","html-keyboard-response","137","311607","0.0-9.0-0.0-1.13","null","<span style='color:GreenYellow; font-size: 70px;'>正确! </span>","null","","","","","","","","","","","","","","","","","","","","","","","feedback_test"
"","","","","","psychophysics","138","313678","0.0-9.0-0.0-0.14","909","","j","","","","","","","","","","","","","key","j","16.673357723577503","768","428","j","true","img/S_ambi40.png","圆形","prac_word_first",""
"","","","","","html-keyboard-response","139","313981","0.0-9.0-0.0-1.14","null","<span style='color:GreenYellow; font-size: 70px;'>正确! </span>","null","","","","","","","","","","","","","","","","","","","","","","","feedback_test"
"","","","","","psychophysics","140","315803","0.0-9.0-0.0-0.15","668","","f","","","","","","","","","","","","","key","f","16.67367592592577","768","428","f","true","img/T_ambi40.png","三角","prac_word_first",""
"","","","","","html-keyboard-response","141","316107","0.0-9.0-0.0-1.15","null","<span style='color:GreenYellow; font-size: 70px;'>正确! </span>","null","","","","","","","","","","","","","","","","","","","","","","","feedback_test"
"","","","","","psychophysics","142","318063","0.0-9.0-0.0-0.16","804","","j","","","","","","","","","","","","","key","j","16.672344827585942","768","428","j","true","img/T_ambi40.png","方形","prac_word_first",""
"","","","","","html-keyboard-response","143","318365","0.0-9.0-0.0-1.16","null","<span style='color:GreenYellow; font-size: 70px;'>正确! </span>","null","","","","","","","","","","","","","","","","","","","","","","","feedback_test"
"","","","","","psychophysics","144","320560","0.0-9.0-0.0-0.17","1039","","j","","","","","","","","","","","","","key","j","16.66815384615374","768","428","j","true","img/S_ambi40.png","三角","prac_word_first",""
"","","","","","html-keyboard-response","145","320862","0.0-9.0-0.0-1.17","null","<span style='color:GreenYellow; font-size: 70px;'>正确! </span>","null","","","","","","","","","","","","","","","","","","","","","","","feedback_test"
"","","","","","psychophysics","146","322761","0.0-9.0-0.0-0.18","746","","f","","","","","","","","","","","","","key","f","16.674079646017976","768","428","f","true","img/S_ambi40.png","方形","prac_word_first",""
"","","","","","html-keyboard-response","147","323066","0.0-9.0-0.0-1.18","null","<span style='color:GreenYellow; font-size: 70px;'>正确! </span>","null","","","","","","","","","","","","","","","","","","","","","","","feedback_test"
"","","","","","psychophysics","148","325004","0.0-9.0-0.0-0.19","781","","f","","","","","","","","","","","","","key","f","16.672394736842026","768","428","f","true","img/C_ambi40.png","圆形","prac_word_first",""
"","","","","","html-keyboard-response","149","325306","0.0-9.0-0.0-1.19","null","<span style='color:GreenYellow; font-size: 70px;'>正确! </span>","null","","","","","","","","","","","","","","","","","","","","","","","feedback_test"
"","","","","","psychophysics","150","327093","0.0-9.0-0.0-0.20","635","","j","","","","","","","","","","","","","key","j","16.67439622641486","768","428","j","true","img/T_ambi40.png","圆形","prac_word_first",""
"","","","","","html-keyboard-response","151","327395","0.0-9.0-0.0-1.20","null","<span style='color:GreenYellow; font-size: 70px;'>正确! </span>","null","","","","","","","","","","","","","","","","","","","","","","","feedback_test"
"","","","","","psychophysics","152","329602","0.0-9.0-0.0-0.21","1053","","j","","","","","","","","","","","","","key","j","16.671595419847268","768","428","j","true","img/C_ambi40.png","三角","prac_word_first",""
"","","","","","html-keyboard-response","153","329905","0.0-9.0-0.0-1.21","null","<span style='color:GreenYellow; font-size: 70px;'>正确! </span>","null","","","","","","","","","","","","","","","","","","","","","","","feedback_test"
"","","","","","psychophysics","154","331795","0.0-9.0-0.0-0.22","737","","j","","","","","","","","","","","","","key","j","16.672660714285616","768","428","j","true","img/C_ambi40.png","方形","prac_word_first",""
"","","","","","html-keyboard-response","155","332097","0.0-9.0-0.0-1.22","null","<span style='color:GreenYellow; font-size: 70px;'>正确! </span>","null","","","","","","","","","","","","","","","","","","","","","","","feedback_test"
"","","","","","psychophysics","156","333889","0.0-9.0-0.0-0.23","624","","f","","","","","","","","","","","","","key","f","16.671433962264345","768","428","f","true","img/C_ambi40.png","圆形","prac_word_first",""
"","","","","","html-keyboard-response","157","334191","0.0-9.0-0.0-1.23","null","<span style='color:GreenYellow; font-size: 70px;'>正确! </span>","null","","","","","","","","","","","","","","","","","","","","","","","feedback_test"
"","","","","","html-keyboard-response","158","337317","0.0-10.0","3122","<style>.context{color:white; font-size: 35px; line-height:40px}</style>                            <div><p class='context'>您正确回答了96% 的试次。</p><p class='context'>您的平均反应时为815毫秒。</p><p class='context'>恭喜您完成练习。按任意键进入<span style='color: yellow;'>图形和文字同时呈现条件</span>的练习。</p></div>","enter","","","","","","","","","","","","","","","","","","","","","","",""
"","","","","","psychophysics","159","339533","0.0-11.0-0.0-0.0","1204","","j","","","","","","","","","","","","","key","j","16.800923664122376","768","428","j","true","img/S_ambi40.png","圆形","prac_simultaneous",""
"","","","","","html-keyboard-response","160","339837","0.0-11.0-0.0-1.0","null","<span style='color:GreenYellow; font-size: 70px;'>正确! </span>","null","","","","","","","","","","","","","","","","","","","","","","","feedback_test"
"","","","","","psychophysics","161","341645","0.0-11.0-0.0-0.1","805","","j","","","","","","","","","","","","","key","j","16.673185185185435","768","428","j","true","img/T_ambi40.png","圆形","prac_simultaneous",""
"","","","","","html-keyboard-response","162","341947","0.0-11.0-0.0-1.1","null","<span style='color:GreenYellow; font-size: 70px;'>正确! </span>","null","","","","","","","","","","","","","","","","","","","","","","","feedback_test"
"","","","","","psychophysics","163","343784","0.0-11.0-0.0-0.2","833","","f","","","","","","","","","","","","","key","f","16.67330275229317","768","428","j","false","img/C_ambi40.png","方形","prac_simultaneous",""
"","","","","","html-keyboard-response","164","344086","0.0-11.0-0.0-1.2","null","<span style='color:red; font-size: 70px;'>错误! </span>","null","","","","","","","","","","","","","","","","","","","","","","","feedback_test"
"","","","","","psychophysics","165","346031","0.0-11.0-0.0-0.3","942","","f","","","","","","","","","","","","","key","f","16.673121739130305","768","428","f","true","img/S_ambi40.png","方形","prac_simultaneous",""
"","","","","","html-keyboard-response","166","346335","0.0-11.0-0.0-1.3","null","<span style='color:GreenYellow; font-size: 70px;'>正确! </span>","null","","","","","","","","","","","","","","","","","","","","","","","feedback_test"
"","","","","","psychophysics","167","348001","0.0-11.0-0.0-0.4","664","","f","","","","","","","","","","","","","key","f","16.672626262625933","768","428","f","true","img/S_ambi40.png","方形","prac_simultaneous",""
"","","","","","html-keyboard-response","168","348303","0.0-11.0-0.0-1.4","null","<span style='color:GreenYellow; font-size: 70px;'>正确! </span>","null","","","","","","","","","","","","","","","","","","","","","","","feedback_test"
"","","","","","psychophysics","169","350005","0.0-11.0-0.0-0.5","699","","f","","","","","","","","","","","","","key","f","16.672148514851365","768","428","f","true","img/T_ambi40.png","三角","prac_simultaneous",""
"","","","","","html-keyboard-response","170","350307","0.0-11.0-0.0-1.5","null","<span style='color:GreenYellow; font-size: 70px;'>正确! </span>","null","","","","","","","","","","","","","","","","","","","","","","","feedback_test"
"","","","","","psychophysics","171","352058","0.0-11.0-0.0-0.6","747","","f","","","","","","","","","","","","","key","f","16.67351923076897","768","428","f","true","img/C_ambi40.png","圆形","prac_simultaneous",""
"","","","","","html-keyboard-response","172","352360","0.0-11.0-0.0-1.6","null","<span style='color:GreenYellow; font-size: 70px;'>正确! </span>","null","","","","","","","","","","","","","","","","","","","","","","","feedback_test"
"","","","","","psychophysics","173","354202","0.0-11.0-0.0-0.7","839","","j","","","","","","","","","","","","","key","j","16.673027272727765","768","428","j","true","img/S_ambi40.png","三角","prac_simultaneous",""
"","","","","","html-keyboard-response","174","354503","0.0-11.0-0.0-1.7","null","<span style='color:GreenYellow; font-size: 70px;'>正确! </span>","null","","","","","","","","","","","","","","","","","","","","","","","feedback_test"
"","","","","","psychophysics","175","356240","0.0-11.0-0.0-0.8","731","","f","","","","","","","","","","","","","key","f","16.67383495145658","768","428","f","true","img/T_ambi40.png","三角","prac_simultaneous",""
"","","","","","html-keyboard-response","176","356543","0.0-11.0-0.0-1.8","null","<span style='color:GreenYellow; font-size: 70px;'>正确! </span>","null","","","","","","","","","","","","","","","","","","","","","","","feedback_test"
"","","","","","psychophysics","177","358327","0.0-11.0-0.0-0.9","781","","j","","","","","","","","","","","","","key","j","16.673245283018883","768","428","j","true","img/C_ambi40.png","三角","prac_simultaneous",""
"","","","","","html-keyboard-response","178","358630","0.0-11.0-0.0-1.9","null","<span style='color:GreenYellow; font-size: 70px;'>正确! </span>","null","","","","","","","","","","","","","","","","","","","","","","","feedback_test"
"","","","","","psychophysics","179","360391","0.0-11.0-0.0-0.10","757","","f","","","","","","","","","","","","","key","f","16.687538461538608","768","428","f","true","img/C_ambi40.png","圆形","prac_simultaneous",""
"","","","","","html-keyboard-response","180","360693","0.0-11.0-0.0-1.10","null","<span style='color:GreenYellow; font-size: 70px;'>正确! </span>","null","","","","","","","","","","","","","","","","","","","","","","","feedback_test"
"","","","","","psychophysics","181","362511","0.0-11.0-0.0-0.11","816","","j","","","","","","","","","","","","","key","j","16.673240740740397","768","428","j","true","img/T_ambi40.png","方形","prac_simultaneous",""
"","","","","","html-keyboard-response","182","362814","0.0-11.0-0.0-1.11","null","<span style='color:GreenYellow; font-size: 70px;'>正确! </span>","null","","","","","","","","","","","","","","","","","","","","","","","feedback_test"
"","","","","","psychophysics","183","364602","0.0-11.0-0.0-0.12","775","","j","","","","","","","","","","","","","key","j","16.673622641509798","768","428","j","true","img/S_ambi40.png","圆形","prac_simultaneous",""
"","","","","","html-keyboard-response","184","364905","0.0-11.0-0.0-1.12","null","<span style='color:GreenYellow; font-size: 70px;'>正确! </span>","null","","","","","","","","","","","","","","","","","","","","","","","feedback_test"
"","","","","","psychophysics","185","366722","0.0-11.0-0.0-0.13","814","","f","","","","","","","","","","","","","key","f","16.673822429906423","768","428","f","true","img/T_ambi40.png","三角","prac_simultaneous",""
"","","","","","html-keyboard-response","186","367025","0.0-11.0-0.0-1.13","null","<span style='color:GreenYellow; font-size: 70px;'>正确! </span>","null","","","","","","","","","","","","","","","","","","","","","","","feedback_test"
"","","","","","psychophysics","187","368880","0.0-11.0-0.0-0.14","853","","f","","","","","","","","","","","","","key","f","16.67312727272722","768","428","f","true","img/S_ambi40.png","方形","prac_simultaneous",""
"","","","","","html-keyboard-response","188","369183","0.0-11.0-0.0-1.14","null","<span style='color:GreenYellow; font-size: 70px;'>正确! </span>","null","","","","","","","","","","","","","","","","","","","","","","","feedback_test"
"","","","","","psychophysics","189","370967","0.0-11.0-0.0-0.15","779","","f","","","","","","","","","","","","","key","f","16.666790476190812","768","428","f","true","img/T_ambi40.png","三角","prac_simultaneous",""
"","","","","","html-keyboard-response","190","371269","0.0-11.0-0.0-1.15","null","<span style='color:GreenYellow; font-size: 70px;'>正确! </span>","null","","","","","","","","","","","","","","","","","","","","","","","feedback_test"
"","","","","","psychophysics","191","372920","0.0-11.0-0.0-0.16","646","","j","","","","","","","","","","","","","key","j","16.672948453607777","768","428","j","true","img/C_ambi40.png","三角","prac_simultaneous",""
"","","","","","html-keyboard-response","192","373223","0.0-11.0-0.0-1.16","null","<span style='color:GreenYellow; font-size: 70px;'>正确! </span>","null","","","","","","","","","","","","","","","","","","","","","","","feedback_test"
"","","","","","psychophysics","193","374762","0.0-11.0-0.0-0.17","538","","f","","","","","","","","","","","","","key","f","16.6741098901097","768","428","j","false","img/T_ambi40.png","方形","prac_simultaneous",""
"","","","","","html-keyboard-response","194","375065","0.0-11.0-0.0-1.17","null","<span style='color:red; font-size: 70px;'>错误! </span>","null","","","","","","","","","","","","","","","","","","","","","","","feedback_test"
"","","","","","psychophysics","195","376932","0.0-11.0-0.0-0.18","844","","j","","","","","","","","","","","","","key","j","16.673581818181663","768","428","j","true","img/C_ambi40.png","方形","prac_simultaneous",""
"","","","","","html-keyboard-response","196","377236","0.0-11.0-0.0-1.18","null","<span style='color:GreenYellow; font-size: 70px;'>正确! </span>","null","","","","","","","","","","","","","","","","","","","","","","","feedback_test"
"","","","","","psychophysics","197","378900","0.0-11.0-0.0-0.19","662","","f","","","","","","","","","","","","","key","f","16.674171717171888","768","428","f","true","img/C_ambi40.png","圆形","prac_simultaneous",""
"","","","","","html-keyboard-response","198","379201","0.0-11.0-0.0-1.19","null","<span style='color:GreenYellow; font-size: 70px;'>正确! </span>","null","","","","","","","","","","","","","","","","","","","","","","","feedback_test"
"","","","","","psychophysics","199","380913","0.0-11.0-0.0-0.20","709","","j","","","","","","","","","","","","","key","j","16.673656862744988","768","428","j","true","img/S_ambi40.png","三角","prac_simultaneous",""
"","","","","","html-keyboard-response","200","381215","0.0-11.0-0.0-1.20","null","<span style='color:GreenYellow; font-size: 70px;'>正确! </span>","null","","","","","","","","","","","","","","","","","","","","","","","feedback_test"
"","","","","","psychophysics","201","382982","0.0-11.0-0.0-0.21","762","","j","","","","","","","","","","","","","key","j","16.67351428571412","768","428","j","true","img/T_ambi40.png","圆形","prac_simultaneous",""
"","","","","","html-keyboard-response","202","383285","0.0-11.0-0.0-1.21","null","<span style='color:GreenYellow; font-size: 70px;'>正确! </span>","null","","","","","","","","","","","","","","","","","","","","","","","feedback_test"
"","","","","","psychophysics","203","384962","0.0-11.0-0.0-0.22","673","","f","","","","","","","","","","","","","key","f","16.673979797979673","768","428","f","true","img/C_ambi40.png","圆形","prac_simultaneous",""
"","","","","","html-keyboard-response","204","385264","0.0-11.0-0.0-1.22","null","<span style='color:GreenYellow; font-size: 70px;'>正确! </span>","null","","","","","","","","","","","","","","","","","","","","","","","feedback_test"
"","","","","","psychophysics","205","387356","0.0-11.0-0.0-0.23","1089","","f","","","","","","","","","","","","","key","f","16.673274193548657","768","428","f","true","img/S_ambi40.png","方形","prac_simultaneous",""
"","","","","","html-keyboard-response","206","387663","0.0-11.0-0.0-1.23","null","<span style='color:GreenYellow; font-size: 70px;'>正确! </span>","null","","","","","","","","","","","","","","","","","","","","","","","feedback_test"
"","","","","","html-keyboard-response","207","390478","0.0-12.0","2802","<style>.context{color:white; font-size: 35px; line-height:40px}</style>                            <div><p class='context'>您正确回答了92% 的试次。</p><p class='context'>您的平均反应时为800毫秒。</p><p class='context'>恭喜您完成练习。按任意键进入正式实验。</p><p class='footer' style='font-size: 35px; line-height:40px;'>请在进入正式实验实验之前将您的<span style='color: lightgreen;'>食指</span>放在电脑键盘的相应键位上进行按键。</p>","enter","","","","","","","","","","","","","","","","","","","","","","",""
"","","","","","html-keyboard-response","208","393899","0.0-13.0-1.0-0.0","3409","
    <p>请您将手指放在按键上，准备进入呈现顺序为<span style='color: yellow;'>先文字后图形条件</span>的正式匹配任务</p>
    <p> <div style = ""color: green""><按任意键进入下一阶段的匹配任务></div></p>
    ","enter","","","","","","","","","","","","","","","","","","","","","","",""
"","","","","","psychophysics","209","395706","0.0-13.0-1.0-1.0-0.0-0.0","654","","j","","","","","","","","","","","","","key","j","16.668028037383102","768","428","j","true","img/S_ambi40.png","圆形","word_first",""
"","","","","","html-keyboard-response","210","396007","0.0-13.0-1.0-1.0-0.0-1.0","null","<span style='color:GreenYellow; font-size: 70px;'>正确! </span>","null","","","","","","","","","","","","","","","","","","","","","","","feedback_test"
"","","","","","psychophysics","211","397745","0.0-13.0-1.0-1.0-0.0-0.1","584","","f","","","","","","","","","","","","","key","f","16.674485436892724","768","428","f","true","img/T_ambi40.png","三角","word_first",""
"","","","","","html-keyboard-response","212","398051","0.0-13.0-1.0-1.0-0.0-1.1","null","<span style='color:GreenYellow; font-size: 70px;'>正确! </span>","null","","","","","","","","","","","","","","","","","","","","","","","feedback_test"
"","","","","","psychophysics","213","399879","0.0-13.0-1.0-1.0-0.0-0.2","673","","j","","","","","","","","","","","","","key","j","16.673101851851918","768","428","j","true","img/C_ambi40.png","方形","word_first",""
"","","","","","html-keyboard-response","214","400182","0.0-13.0-1.0-1.0-0.0-1.2","null","<span style='color:GreenYellow; font-size: 70px;'>正确! </span>","null","","","","","","","","","","","","","","","","","","","","","","","feedback_test"
"","","","","","psychophysics","215","401927","0.0-13.0-1.0-1.0-0.0-0.3","594","","f","","","","","","","","","","","","","key","f","16.665106796117012","768","428","f","true","img/T_ambi40.png","三角","word_first",""
"","","","","","html-keyboard-response","216","402229","0.0-13.0-1.0-1.0-0.0-1.3","null","<span style='color:GreenYellow; font-size: 70px;'>正确! </span>","null","","","","","","","","","","","","","","","","","","","","","","","feedback_test"
"","","","","","psychophysics","217","404079","0.0-13.0-1.0-1.0-0.0-0.4","698","","f","","","","","","","","","","","","","key","f","16.666073394495537","768","428","f","true","img/C_ambi40.png","圆形","word_first",""
"","","","","","html-keyboard-response","218","404382","0.0-13.0-1.0-1.0-0.0-1.4","null","<span style='color:GreenYellow; font-size: 70px;'>正确! </span>","null","","","","","","","","","","","","","","","","","","","","","","","feedback_test"
"","","","","","psychophysics","219","406090","0.0-13.0-1.0-1.0-0.0-0.5","551","","j","","","","","","","","","","","","","key","j","16.67393999999971","768","428","j","true","img/S_ambi40.png","三角","word_first",""
"","","","","","html-keyboard-response","220","406393","0.0-13.0-1.0-1.0-0.0-1.5","null","<span style='color:GreenYellow; font-size: 70px;'>正确! </span>","null","","","","","","","","","","","","","","","","","","","","","","","feedback_test"
"","","","","","psychophysics","221","408240","0.0-13.0-1.0-1.0-0.0-0.6","696","","f","","","","","","","","","","","","","key","f","16.67298181818174","768","428","f","true","img/S_ambi40.png","方形","word_first",""
"","","","","","html-keyboard-response","222","408542","0.0-13.0-1.0-1.0-0.0-1.6","null","<span style='color:GreenYellow; font-size: 70px;'>正确! </span>","null","","","","","","","","","","","","","","","","","","","","","","","feedback_test"
"","","","","","psychophysics","223","410181","0.0-13.0-1.0-1.0-0.0-0.7","486","","f","","","","","","","","","","","","","key","f","16.673010309278418","768","428","f","true","img/S_ambi40.png","方形","word_first",""
"","","","","","html-keyboard-response","224","410484","0.0-13.0-1.0-1.0-0.0-1.7","null","<span style='color:GreenYellow; font-size: 70px;'>正确! </span>","null","","","","","","","","","","","","","","","","","","","","","","","feedback_test"
"","","","","","psychophysics","225","412198","0.0-13.0-1.0-1.0-0.0-0.8","560","","f","","","","","","","","","","","","","key","f","16.673831683168036","768","428","f","true","img/C_ambi40.png","圆形","word_first",""
"","","","","","html-keyboard-response","226","412505","0.0-13.0-1.0-1.0-0.0-1.8","null","<span style='color:GreenYellow; font-size: 70px;'>正确! </span>","null","","","","","","","","","","","","","","","","","","","","","","","feedback_test"
"","","","","","psychophysics","227","414160","0.0-13.0-1.0-1.0-0.0-0.9","498","","j","","","","","","","","","","","","","key","j","16.67069072164979","768","428","j","true","img/C_ambi40.png","三角","word_first",""
"","","","","","html-keyboard-response","228","414461","0.0-13.0-1.0-1.0-0.0-1.9","null","<span style='color:GreenYellow; font-size: 70px;'>正确! </span>","null","","","","","","","","","","","","","","","","","","","","","","","feedback_test"
"","","","","","psychophysics","229","416295","0.0-13.0-1.0-1.0-0.0-0.10","680","","f","","","","","","","","","","","","","key","f","16.67482568807323","768","428","j","false","img/T_ambi40.png","圆形","word_first",""
"","","","","","html-keyboard-response","230","416599","0.0-13.0-1.0-1.0-0.0-1.10","null","<span style='color:red; font-size: 70px;'>错误! </span>","null","","","","","","","","","","","","","","","","","","","","","","","feedback_test"
"","","","","","psychophysics","231","418461","0.0-13.0-1.0-1.0-0.0-0.11","709","","j","","","","","","","","","","","","","key","j","16.670639639639564","768","428","j","true","img/T_ambi40.png","方形","word_first",""
"","","","","","html-keyboard-response","232","418762","0.0-13.0-1.0-1.0-0.0-1.11","null","<span style='color:GreenYellow; font-size: 70px;'>正确! </span>","null","","","","","","","","","","","","","","","","","","","","","","","feedback_test"
"","","","","","psychophysics","233","420516","0.0-13.0-1.0-1.0-0.0-0.12","600","","j","","","","","","","","","","","","","key","j","16.67325961538434","768","428","j","true","img/S_ambi40.png","三角","word_first",""
"","","","","","html-keyboard-response","234","420818","0.0-13.0-1.0-1.0-0.0-1.12","null","<span style='color:GreenYellow; font-size: 70px;'>正确! </span>","null","","","","","","","","","","","","","","","","","","","","","","","feedback_test"
"","","","","","psychophysics","235","422524","0.0-13.0-1.0-1.0-0.0-0.13","552","","f","","","","","","","","","","","","","key","f","16.673297029702653","768","428","f","true","img/C_ambi40.png","圆形","word_first",""
"","","","","","html-keyboard-response","236","422829","0.0-13.0-1.0-1.0-0.0-1.13","null","<span style='color:GreenYellow; font-size: 70px;'>正确! </span>","null","","","","","","","","","","","","","","","","","","","","","","","feedback_test"
"","","","","","psychophysics","237","424536","0.0-13.0-1.0-1.0-0.0-0.14","552","","j","","","","","","","","","","","","","key","j","16.67337623762375","768","428","j","true","img/S_ambi40.png","圆形","word_first",""
"","","","","","html-keyboard-response","238","424838","0.0-13.0-1.0-1.0-0.0-1.14","null","<span style='color:GreenYellow; font-size: 70px;'>正确! </span>","null","","","","","","","","","","","","","","","","","","","","","","","feedback_test"
"","","","","","psychophysics","239","426717","0.0-13.0-1.0-1.0-0.0-0.15","726","","j","","","","","","","","","","","","","key","j","16.664765765765672","768","428","j","true","img/T_ambi40.png","圆形","word_first",""
"","","","","","html-keyboard-response","240","427019","0.0-13.0-1.0-1.0-0.0-1.15","null","<span style='color:GreenYellow; font-size: 70px;'>正确! </span>","null","","","","","","","","","","","","","","","","","","","","","","","feedback_test"
"","","","","","psychophysics","241","428741","0.0-13.0-1.0-1.0-0.0-0.16","570","","f","","","","","","","","","","","","","key","f","16.67321568627456","768","428","f","true","img/T_ambi40.png","三角","word_first",""
"","","","","","html-keyboard-response","242","429045","0.0-13.0-1.0-1.0-0.0-1.16","null","<span style='color:GreenYellow; font-size: 70px;'>正确! </span>","null","","","","","","","","","","","","","","","","","","","","","","","feedback_test"
"","","","","","psychophysics","243","431067","0.0-13.0-1.0-1.0-0.0-0.17","867","","f","","","","","","","","","","","","","key","f","16.67305000000003","768","428","f","true","img/S_ambi40.png","方形","word_first",""
"","","","","","html-keyboard-response","244","431369","0.0-13.0-1.0-1.0-0.0-1.17","null","<span style='color:GreenYellow; font-size: 70px;'>正确! </span>","null","","","","","","","","","","","","","","","","","","","","","","","feedback_test"
"","","","","","psychophysics","245","433104","0.0-13.0-1.0-1.0-0.0-0.18","582","","j","","","","","","","","","","","","","key","j","16.6725339805826","768","428","j","true","img/C_ambi40.png","方形","word_first",""
"","","","","","html-keyboard-response","246","433406","0.0-13.0-1.0-1.0-0.0-1.18","null","<span style='color:GreenYellow; font-size: 70px;'>正确! </span>","null","","","","","","","","","","","","","","","","","","","","","","","feedback_test"
"","","","","","psychophysics","247","435223","0.0-13.0-1.0-1.0-0.0-0.19","665","","f","","","","","","","","","","","","","key","f","16.673259259259254","768","428","f","true","img/T_ambi40.png","三角","word_first",""
"","","","","","html-keyboard-response","248","435525","0.0-13.0-1.0-1.0-0.0-1.19","null","<span style='color:GreenYellow; font-size: 70px;'>正确! </span>","null","","","","","","","","","","","","","","","","","","","","","","","feedback_test"
"","","","","","psychophysics","249","437238","0.0-13.0-1.0-1.0-0.0-0.20","555","","j","","","","","","","","","","","","","key","j","16.674980392156844","768","428","j","true","img/T_ambi40.png","方形","word_first",""
"","","","","","html-keyboard-response","250","437540","0.0-13.0-1.0-1.0-0.0-1.20","null","<span style='color:GreenYellow; font-size: 70px;'>正确! </span>","null","","","","","","","","","","","","","","","","","","","","","","","feedback_test"
"","","","","","psychophysics","251","439192","0.0-13.0-1.0-1.0-0.0-0.21","485","","f","","","","","","","","","","","","","key","f","16.67351020408179","768","428","j","false","img/C_ambi40.png","三角","word_first",""
"","","","","","html-keyboard-response","252","439494","0.0-13.0-1.0-1.0-0.0-1.21","null","<span style='color:red; font-size: 70px;'>错误! </span>","null","","","","","","","","","","","","","","","","","","","","","","","feedback_test"
"","","","","","psychophysics","253","441487","0.0-13.0-1.0-1.0-0.0-0.22","837","","f","","","","","","","","","","","","","key","f","16.66879487179496","768","428","f","true","img/S_ambi40.png","方形","word_first",""
"","","","","","html-keyboard-response","254","441792","0.0-13.0-1.0-1.0-0.0-1.22","null","<span style='color:GreenYellow; font-size: 70px;'>正确! </span>","null","","","","","","","","","","","","","","","","","","","","","","","feedback_test"
"","","","","","psychophysics","255","443573","0.0-13.0-1.0-1.0-0.0-0.23","627","","f","","","","","","","","","","","","","key","f","16.673028301886934","768","428","f","true","img/C_ambi40.png","圆形","word_first",""
"","","","","","html-keyboard-response","256","443875","0.0-13.0-1.0-1.0-0.0-1.23","null","<span style='color:GreenYellow; font-size: 70px;'>正确! </span>","null","","","","","","","","","","","","","","","","","","","","","","","feedback_test"
"","","","","","psychophysics","257","445588","0.0-13.0-1.0-1.0-0.0-0.24","561","","f","","","","","","","","","","","","","key","f","16.67266666666632","768","428","f","true","img/T_ambi40.png","三角","word_first",""
"","","","","","html-keyboard-response","258","445889","0.0-13.0-1.0-1.0-0.0-1.24","null","<span style='color:GreenYellow; font-size: 70px;'>正确! </span>","null","","","","","","","","","","","","","","","","","","","","","","","feedback_test"
"","","","","","psychophysics","259","447675","0.0-13.0-1.0-1.0-0.0-0.25","634","","j","","","","","","","","","","","","","key","j","16.673481132075704","768","428","j","true","img/S_ambi40.png","三角","word_first",""
"","","","","","html-keyboard-response","260","447985","0.0-13.0-1.0-1.0-0.0-1.25","null","<span style='color:GreenYellow; font-size: 70px;'>正确! </span>","null","","","","","","","","","","","","","","","","","","","","","","","feedback_test"
"","","","","","psychophysics","261","449710","0.0-13.0-1.0-1.0-0.0-0.26","573","","f","","","","","","","","","","","","","key","f","16.673715686274342","768","428","f","true","img/T_ambi40.png","三角","word_first",""
"","","","","","html-keyboard-response","262","450011","0.0-13.0-1.0-1.0-0.0-1.26","null","<span style='color:GreenYellow; font-size: 70px;'>正确! </span>","null","","","","","","","","","","","","","","","","","","","","","","","feedback_test"
"","","","","","psychophysics","263","451797","0.0-13.0-1.0-1.0-0.0-0.27","633","","f","","","","","","","","","","","","","key","f","16.67312264150966","768","428","j","false","img/T_ambi40.png","圆形","word_first",""
"","","","","","html-keyboard-response","264","452098","0.0-13.0-1.0-1.0-0.0-1.27","null","<span style='color:red; font-size: 70px;'>错误! </span>","null","","","","","","","","","","","","","","","","","","","","","","","feedback_test"
"","","","","","psychophysics","265","454146","0.0-13.0-1.0-1.0-0.0-0.28","895","","j","","","","","","","","","","","","","key","j","16.67383471074368","768","428","j","true","img/S_ambi40.png","圆形","word_first",""
"","","","","","html-keyboard-response","266","454448","0.0-13.0-1.0-1.0-0.0-1.28","null","<span style='color:GreenYellow; font-size: 70px;'>正确! </span>","null","","","","","","","","","","","","","","","","","","","","","","","feedback_test"
"","","","","","psychophysics","267","456267","0.0-13.0-1.0-1.0-0.0-0.29","667","","j","","","","","","","","","","","","","key","j","16.6727962962964","768","428","j","true","img/C_ambi40.png","三角","word_first",""
"","","","","","html-keyboard-response","268","456568","0.0-13.0-1.0-1.0-0.0-1.29","null","<span style='color:GreenYellow; font-size: 70px;'>正确! </span>","null","","","","","","","","","","","","","","","","","","","","","","","feedback_test"
"","","","","","psychophysics","269","458359","0.0-13.0-1.0-1.0-0.0-0.30","632","","f","","","","","","","","","","","","","key","f","16.67364761904769","768","428","f","true","img/C_ambi40.png","圆形","word_first",""
"","","","","","html-keyboard-response","270","458663","0.0-13.0-1.0-1.0-0.0-1.30","null","<span style='color:GreenYellow; font-size: 70px;'>正确! </span>","null","","","","","","","","","","","","","","","","","","","","","","","feedback_test"
"","","","","","psychophysics","271","460355","0.0-13.0-1.0-1.0-0.0-0.31","523","","j","","","","","","","","","","","","","key","j","16.672649999999557","768","428","j","true","img/C_ambi40.png","方形","word_first",""
"","","","","","html-keyboard-response","272","460659","0.0-13.0-1.0-1.0-0.0-1.31","null","<span style='color:GreenYellow; font-size: 70px;'>正确! </span>","null","","","","","","","","","","","","","","","","","","","","","","","feedback_test"
"","","","","","psychophysics","273","462595","0.0-13.0-1.0-1.0-0.0-0.32","784","","f","","","","","","","","","","","","","key","f","16.672730434782622","768","428","f","true","img/S_ambi40.png","方形","word_first",""
"","","","","","html-keyboard-response","274","462897","0.0-13.0-1.0-1.0-0.0-1.32","null","<span style='color:GreenYellow; font-size: 70px;'>正确! </span>","null","","","","","","","","","","","","","","","","","","","","","","","feedback_test"
"","","","","","psychophysics","275","464663","0.0-13.0-1.0-1.0-0.0-0.33","613","","j","","","","","","","","","","","","","key","j","16.672990476190378","768","428","j","true","img/T_ambi40.png","方形","word_first",""
"","","","","","html-keyboard-response","276","464965","0.0-13.0-1.0-1.0-0.0-1.33","null","<span style='color:GreenYellow; font-size: 70px;'>正确! </span>","null","","","","","","","","","","","","","","","","","","","","","","","feedback_test"
"","","","","","psychophysics","277","466787","0.0-13.0-1.0-1.0-0.0-0.34","671","","f","","","","","","","","","","","","","key","f","16.673574074073933","768","428","f","true","img/C_ambi40.png","圆形","word_first",""
"","","","","","html-keyboard-response","278","467090","0.0-13.0-1.0-1.0-0.0-1.34","null","<span style='color:GreenYellow; font-size: 70px;'>正确! </span>","null","","","","","","","","","","","","","","","","","","","","","","","feedback_test"
"","","","","","psychophysics","279","468822","0.0-13.0-1.0-1.0-0.0-0.35","580","","j","","","","","","","","","","","","","key","j","16.673205882353095","768","428","f","false","img/S_ambi40.png","方形","word_first",""
"","","","","","html-keyboard-response","280","469126","0.0-13.0-1.0-1.0-0.0-1.35","null","<span style='color:red; font-size: 70px;'>错误! </span>","null","","","","","","","","","","","","","","","","","","","","","","","feedback_test"
"","","","","","psychophysics","281","470977","0.0-13.0-1.0-1.0-0.0-0.36","690","","f","","","","","","","","","","","","","key","f","16.67517431192698","768","428","f","true","img/C_ambi40.png","圆形","word_first",""
"","","","","","html-keyboard-response","282","471280","0.0-13.0-1.0-1.0-0.0-1.36","null","<span style='color:GreenYellow; font-size: 70px;'>正确! </span>","null","","","","","","","","","","","","","","","","","","","","","","","feedback_test"
"","","","","","psychophysics","283","472954","0.0-13.0-1.0-1.0-0.0-0.37","520","","f","","","","","","","","","","","","","key","f","16.672878787878695","768","428","f","true","img/T_ambi40.png","三角","word_first",""
"","","","","","html-keyboard-response","284","473257","0.0-13.0-1.0-1.0-0.0-1.37","null","<span style='color:GreenYellow; font-size: 70px;'>正确! </span>","null","","","","","","","","","","","","","","","","","","","","","","","feedback_test"
"","","","","","psychophysics","285","475006","0.0-13.0-1.0-1.0-0.0-0.38","597","","j","","","","","","","","","","","","","key","j","16.66315533980576","768","428","j","true","img/C_ambi40.png","三角","word_first",""
"","","","","","html-keyboard-response","286","475308","0.0-13.0-1.0-1.0-0.0-1.38","null","<span style='color:GreenYellow; font-size: 70px;'>正确! </span>","null","","","","","","","","","","","","","","","","","","","","","","","feedback_test"
"","","","","","psychophysics","287","476949","0.0-13.0-1.0-1.0-0.0-0.39","489","","f","","","","","","","","","","","","","key","f","16.660520833333067","768","428","f","true","img/T_ambi40.png","三角","word_first",""
"","","","","","html-keyboard-response","288","477274","0.0-13.0-1.0-1.0-0.0-1.39","null","<span style='color:GreenYellow; font-size: 70px;'>正确! </span>","null","","","","","","","","","","","","","","","","","","","","","","","feedback_test"
"","","","","","psychophysics","289","479008","0.0-13.0-1.0-1.0-0.0-0.40","573","","f","","","","","","","","","","","","","key","f","16.672203883495367","768","428","f","true","img/S_ambi40.png","方形","word_first",""
"","","","","","html-keyboard-response","290","479310","0.0-13.0-1.0-1.0-0.0-1.40","null","<span style='color:GreenYellow; font-size: 70px;'>正确! </span>","null","","","","","","","","","","","","","","","","","","","","","","","feedback_test"
"","","","","","psychophysics","291","481081","0.0-13.0-1.0-1.0-0.0-0.41","614","","f","","","","","","","","","","","","","key","f","16.669209523809453","768","428","f","true","img/C_ambi40.png","圆形","word_first",""
"","","","","","html-keyboard-response","292","481385","0.0-13.0-1.0-1.0-0.0-1.41","null","<span style='color:GreenYellow; font-size: 70px;'>正确! </span>","null","","","","","","","","","","","","","","","","","","","","","","","feedback_test"
"","","","","","psychophysics","293","483169","0.0-13.0-1.0-1.0-0.0-0.42","628","","j","","","","","","","","","","","","","key","j","16.673632075471414","768","428","j","true","img/C_ambi40.png","方形","word_first",""
"","","","","","html-keyboard-response","294","483471","0.0-13.0-1.0-1.0-0.0-1.42","null","<span style='color:GreenYellow; font-size: 70px;'>正确! </span>","null","","","","","","","","","","","","","","","","","","","","","","","feedback_test"
"","","","","","psychophysics","295","485343","0.0-13.0-1.0-1.0-0.0-0.43","718","","j","","","","","","","","","","","","","key","j","16.672459459459297","768","428","j","true","img/T_ambi40.png","圆形","word_first",""
"","","","","","html-keyboard-response","296","485646","0.0-13.0-1.0-1.0-0.0-1.43","null","<span style='color:GreenYellow; font-size: 70px;'>正确! </span>","null","","","","","","","","","","","","","","","","","","","","","","","feedback_test"
"","","","","","psychophysics","297","487349","0.0-13.0-1.0-1.0-0.0-0.44","549","","j","","","","","","","","","","","","","key","j","16.67280000000028","768","428","j","true","img/T_ambi40.png","方形","word_first",""
"","","","","","html-keyboard-response","298","487655","0.0-13.0-1.0-1.0-0.0-1.44","null","<span style='color:GreenYellow; font-size: 70px;'>正确! </span>","null","","","","","","","","","","","","","","","","","","","","","","","feedback_test"
"","","","","","psychophysics","299","489360","0.0-13.0-1.0-1.0-0.0-0.45","551","","j","","","","","","","","","","","","","key","j","16.6735940594059","768","428","j","true","img/S_ambi40.png","三角","word_first",""
"","","","","","html-keyboard-response","300","489662","0.0-13.0-1.0-1.0-0.0-1.45","null","<span style='color:GreenYellow; font-size: 70px;'>正确! </span>","null","","","","","","","","","","","","","","","","","","","","","","","feedback_test"
"","","","","","psychophysics","301","491507","0.0-13.0-1.0-1.0-0.0-0.46","680","","j","","","","","","","","","","","","","key","j","16.673109090909236","768","428","j","true","img/S_ambi40.png","圆形","word_first",""
"","","","","","html-keyboard-response","302","491809","0.0-13.0-1.0-1.0-0.0-1.46","null","<span style='color:GreenYellow; font-size: 70px;'>正确! </span>","null","","","","","","","","","","","","","","","","","","","","","","","feedback_test"
"","","","","","psychophysics","303","493457","0.0-13.0-1.0-1.0-0.0-0.47","494","","f","","","","","","","","","","","","","key","f","16.672510204081213","768","428","f","true","img/S_ambi40.png","方形","word_first",""
"","","","","","html-keyboard-response","304","493759","0.0-13.0-1.0-1.0-0.0-1.47","null","<span style='color:GreenYellow; font-size: 70px;'>正确! </span>","null","","","","","","","","","","","","","","","","","","","","","","","feedback_test"
"","","","","","psychophysics","305","495360","0.0-13.0-1.0-1.0-0.0-0.48","449","","f","","","","","","","","","","","","","key","f","16.670484210526276","768","428","f","true","img/S_ambi40.png","方形","word_first",""
"","","","","","html-keyboard-response","306","495661","0.0-13.0-1.0-1.0-0.0-1.48","null","<span style='color:GreenYellow; font-size: 70px;'>正确! </span>","null","","","","","","","","","","","","","","","","","","","","","","","feedback_test"
"","","","","","psychophysics","307","497263","0.0-13.0-1.0-1.0-0.0-0.49","450","","f","","","","","","","","","","","","","key","f","16.673170212765864","768","428","f","true","img/T_ambi40.png","三角","word_first",""
"","","","","","html-keyboard-response","308","497566","0.0-13.0-1.0-1.0-0.0-1.49","null","<span style='color:GreenYellow; font-size: 70px;'>正确! </span>","null","","","","","","","","","","","","","","","","","","","","","","","feedback_test"
"","","","","","psychophysics","309","499297","0.0-13.0-1.0-1.0-0.0-0.50","577","","j","","","","","","","","","","","","","key","j","16.672203883494802","768","428","j","true","img/T_ambi40.png","圆形","word_first",""
"","","","","","html-keyboard-response","310","499600","0.0-13.0-1.0-1.0-0.0-1.50","null","<span style='color:GreenYellow; font-size: 70px;'>正确! </span>","null","","","","","","","","","","","","","","","","","","","","","","","feedback_test"
"","","","","","psychophysics","311","501311","0.0-13.0-1.0-1.0-0.0-0.51","554","","j","","","","","","","","","","","","","key","j","16.672549019608187","768","428","j","true","img/S_ambi40.png","圆形","word_first",""
"","","","","","html-keyboard-response","312","501612","0.0-13.0-1.0-1.0-0.0-1.51","null","<span style='color:GreenYellow; font-size: 70px;'>正确! </span>","null","","","","","","","","","","","","","","","","","","","","","","","feedback_test"
"","","","","","psychophysics","313","503301","0.0-13.0-1.0-1.0-0.0-0.52","536","","j","","","","","","","","","","","","","key","j","16.66342424242428","768","428","f","false","img/C_ambi40.png","圆形","word_first",""
"","","","","","html-keyboard-response","314","503604","0.0-13.0-1.0-1.0-0.0-1.52","null","<span style='color:red; font-size: 70px;'>错误! </span>","null","","","","","","","","","","","","","","","","","","","","","","","feedback_test"
"","","","","","psychophysics","315","505230","0.0-13.0-1.0-1.0-0.0-0.53","464","","j","","","","","","","","","","","","","key","j","16.674989583333325","768","428","f","false","img/S_ambi40.png","方形","word_first",""
"","","","","","html-keyboard-response","316","505532","0.0-13.0-1.0-1.0-0.0-1.53","null","<span style='color:red; font-size: 70px;'>错误! </span>","null","","","","","","","","","","","","","","","","","","","","","","","feedback_test"
"","","","","","psychophysics","317","507104","0.0-13.0-1.0-1.0-0.0-0.54","418","","f","","","","","","","","","","","","","key","f","16.674021505375183","768","428","f","true","img/T_ambi40.png","三角","word_first",""
"","","","","","html-keyboard-response","318","507417","0.0-13.0-1.0-1.0-0.0-1.54","null","<span style='color:GreenYellow; font-size: 70px;'>正确! </span>","null","","","","","","","","","","","","","","","","","","","","","","","feedback_test"
"","","","","","psychophysics","319","509183","0.0-13.0-1.0-1.0-0.0-0.55","614","","j","","","","","","","","","","","","","key","j","16.673142857142235","768","428","j","true","img/S_ambi40.png","三角","word_first",""
"","","","","","html-keyboard-response","320","509484","0.0-13.0-1.0-1.0-0.0-1.55","null","<span style='color:GreenYellow; font-size: 70px;'>正确! </span>","null","","","","","","","","","","","","","","","","","","","","","","","feedback_test"
"","","","","","psychophysics","321","511564","0.0-13.0-1.0-1.0-0.0-0.56","925","","f","","","","","","","","","","","","","key","f","16.673390243902833","768","428","j","false","img/C_ambi40.png","三角","word_first",""
"","","","","","html-keyboard-response","322","511867","0.0-13.0-1.0-1.0-0.0-1.56","null","<span style='color:red; font-size: 70px;'>错误! </span>","null","","","","","","","","","","","","","","","","","","","","","","","feedback_test"
"","","","","","psychophysics","323","513864","0.0-13.0-1.0-1.0-0.0-0.57","845","","j","","","","","","","","","","","","","key","j","16.6731764705883","768","428","j","true","img/T_ambi40.png","方形","word_first",""
"","","","","","html-keyboard-response","324","514166","0.0-13.0-1.0-1.0-0.0-1.57","null","<span style='color:GreenYellow; font-size: 70px;'>正确! </span>","null","","","","","","","","","","","","","","","","","","","","","","","feedback_test"
"","","","","","psychophysics","325","515865","0.0-13.0-1.0-1.0-0.0-0.58","547","","f","","","","","","","","","","","","","key","f","16.673039603959953","768","428","f","true","img/C_ambi40.png","圆形","word_first",""
"","","","","","html-keyboard-response","326","516168","0.0-13.0-1.0-1.0-0.0-1.58","null","<span style='color:GreenYellow; font-size: 70px;'>正确! </span>","null","","","","","","","","","","","","","","","","","","","","","","","feedback_test"
"","","","","","psychophysics","327","517920","0.0-13.0-1.0-1.0-0.0-0.59","600","","j","","","","","","","","","","","","","key","j","16.6731057692299","768","428","j","true","img/C_ambi40.png","方形","word_first",""
"","","","","","html-keyboard-response","328","518222","0.0-13.0-1.0-1.0-0.0-1.59","null","<span style='color:GreenYellow; font-size: 70px;'>正确! </span>","null","","","","","","","","","","","","","","","","","","","","","","","feedback_test"
"","","","","","html-keyboard-response","329","520872","0.0-13.0-1.0-1.0-1.0","2648","<style>.context{color:white; font-size: 35px; line-height:40px}</style>                            <div><p class='context'>您正确回答了88% 的试次。</p><p class='context'>您的平均反应时为614毫秒。</p><p class='context'>请按任意键进入休息</p></div>","enter","","","","","","","","","","","","","","","","","","","","","","",""
"","","","","","html-button-response","330","583525","0.0-13.0-1.0-1.0-2.0","62649","
                    <p>您当前还剩余3组实验</p>
                    <p>现在是休息时间，当您结束休息后，您可以点击 结束休息 按钮 继续</p>
                    <p>建议休息时间还剩余<span id=""iii"">60</span>秒</p>","0","","","","","","","","","","","","","","","","","","","","","","",""
"","","","","","psychophysics","331","585327","0.0-13.0-1.0-1.0-0.1-0.60","646","","j","","","","","","","","","","","","","key","j","16.673504672897764","768","428","j","true","img/S_ambi40.png","三角","word_first",""
"","","","","","html-keyboard-response","332","585628","0.0-13.0-1.0-1.0-0.1-1.60","null","<span style='color:GreenYellow; font-size: 70px;'>正确! </span>","null","","","","","","","","","","","","","","","","","","","","","","","feedback_test"
"","","","","","psychophysics","333","587362","0.0-13.0-1.0-1.0-0.1-0.61","581","","f","","","","","","","","","","","","","key","f","16.67107766990333","768","428","f","true","img/S_ambi40.png","方形","word_first",""
"","","","","","html-keyboard-response","334","587664","0.0-13.0-1.0-1.0-0.1-1.61","null","<span style='color:GreenYellow; font-size: 70px;'>正确! </span>","null","","","","","","","","","","","","","","","","","","","","","","","feedback_test"
"","","","","","psychophysics","335","589325","0.0-13.0-1.0-1.0-0.1-0.62","508","","j","","","","","","","","","","","","","key","j","16.673333333332486","768","428","j","true","img/T_ambi40.png","圆形","word_first",""
"","","","","","html-keyboard-response","336","589629","0.0-13.0-1.0-1.0-0.1-1.62","null","<span style='color:GreenYellow; font-size: 70px;'>正确! </span>","null","","","","","","","","","","","","","","","","","","","","","","","feedback_test"
"","","","","","psychophysics","337","591318","0.0-13.0-1.0-1.0-0.1-0.63","534","","j","","","","","","","","","","","","","key","j","16.673530000000028","768","428","j","true","img/C_ambi40.png","三角","word_first",""
"","","","","","html-keyboard-response","338","591619","0.0-13.0-1.0-1.0-0.1-1.63","null","<span style='color:GreenYellow; font-size: 70px;'>正确! </span>","null","","","","","","","","","","","","","","","","","","","","","","","feedback_test"
"","","","","","psychophysics","339","593365","0.0-13.0-1.0-1.0-0.1-0.64","589","","f","","","","","","","","","","","","","key","f","16.6680485436894","768","428","f","true","img/S_ambi40.png","方形","word_first",""
"","","","","","html-keyboard-response","340","593670","0.0-13.0-1.0-1.0-0.1-1.64","null","<span style='color:GreenYellow; font-size: 70px;'>正确! </span>","null","","","","","","","","","","","","","","","","","","","","","","","feedback_test"
"","","","","","psychophysics","341","595353","0.0-13.0-1.0-1.0-0.1-0.65","522","","j","","","","","","","","","","","","","key","j","16.672810000000755","768","428","j","true","img/T_ambi40.png","方形","word_first",""
"","","","","","html-keyboard-response","342","595655","0.0-13.0-1.0-1.0-0.1-1.65","null","<span style='color:GreenYellow; font-size: 70px;'>正确! </span>","null","","","","","","","","","","","","","","","","","","","","","","","feedback_test"
"","","","","","psychophysics","343","597317","0.0-13.0-1.0-1.0-0.1-0.66","510","","f","","","","","","","","","","","","","key","f","16.67330612244954","768","428","f","true","img/T_ambi40.png","三角","word_first",""
"","","","","","html-keyboard-response","344","597620","0.0-13.0-1.0-1.0-0.1-1.66","null","<span style='color:GreenYellow; font-size: 70px;'>正确! </span>","null","","","","","","","","","","","","","","","","","","","","","","","feedback_test"
"","","","","","psychophysics","345","599266","0.0-13.0-1.0-1.0-0.1-0.67","483","","j","","","","","","","","","","","","","key","j","16.674340206186393","768","428","j","true","img/C_ambi40.png","方形","word_first",""
"","","","","","html-keyboard-response","346","599568","0.0-13.0-1.0-1.0-0.1-1.67","null","<span style='color:GreenYellow; font-size: 70px;'>正确! </span>","null","","","","","","","","","","","","","","","","","","","","","","","feedback_test"
"","","","","","psychophysics","347","601382","0.0-13.0-1.0-1.0-0.1-0.68","662","","f","","","","","","","","","","","","","key","f","16.669740740740153","768","428","f","true","img/C_ambi40.png","圆形","word_first",""
"","","","","","html-keyboard-response","348","601685","0.0-13.0-1.0-1.0-0.1-1.68","null","<span style='color:GreenYellow; font-size: 70px;'>正确! </span>","null","","","","","","","","","","","","","","","","","","","","","","","feedback_test"
"","","","","","psychophysics","349","603372","0.0-13.0-1.0-1.0-0.1-0.69","534","","f","","","","","","","","","","","","","key","f","16.673390000000364","768","428","f","true","img/T_ambi40.png","三角","word_first",""
"","","","","","html-keyboard-response","350","603674","0.0-13.0-1.0-1.0-0.1-1.69","null","<span style='color:GreenYellow; font-size: 70px;'>正确! </span>","null","","","","","","","","","","","","","","","","","","","","","","","feedback_test"
"","","","","","psychophysics","351","605336","0.0-13.0-1.0-1.0-0.1-0.70","508","","f","","","","","","","","","","","","","key","f","16.63701020408189","768","428","f","true","img/C_ambi40.png","圆形","word_first",""
"","","","","","html-keyboard-response","352","605638","0.0-13.0-1.0-1.0-0.1-1.70","null","<span style='color:GreenYellow; font-size: 70px;'>正确! </span>","null","","","","","","","","","","","","","","","","","","","","","","","feedback_test"
"","","","","","psychophysics","353","607290","0.0-13.0-1.0-1.0-0.1-0.71","495","","j","","","","","","","","","","","","","key","j","16.672081632652482","768","428","j","true","img/S_ambi40.png","圆形","word_first",""
"","","","","","html-keyboard-response","354","607593","0.0-13.0-1.0-1.0-0.1-1.71","null","<span style='color:GreenYellow; font-size: 70px;'>正确! </span>","null","","","","","","","","","","","","","","","","","","","","","","","feedback_test"
"","","","","","psychophysics","355","609353","0.0-13.0-1.0-1.0-0.1-0.72","606","","j","","","","","","","","","","","","","key","j","16.67298076923068","768","428","j","true","img/T_ambi40.png","方形","word_first",""
"","","","","","html-keyboard-response","356","609658","0.0-13.0-1.0-1.0-0.1-1.72","null","<span style='color:GreenYellow; font-size: 70px;'>正确! </span>","null","","","","","","","","","","","","","","","","","","","","","","","feedback_test"
"","","","","","psychophysics","357","611293","0.0-13.0-1.0-1.0-0.1-0.73","482","","f","","","","","","","","","","","","","key","f","16.674237113401592","768","428","f","true","img/T_ambi40.png","三角","word_first",""
"","","","","","html-keyboard-response","358","611601","0.0-13.0-1.0-1.0-0.1-1.73","null","<span style='color:GreenYellow; font-size: 70px;'>正确! </span>","null","","","","","","","","","","","","","","","","","","","","","","","feedback_test"
"","","","","","psychophysics","359","613503","0.0-13.0-1.0-1.0-0.1-0.74","750","","f","","","","","","","","","","","","","key","f","16.672633928571095","768","428","f","true","img/S_ambi40.png","方形","word_first",""
"","","","","","html-keyboard-response","360","613806","0.0-13.0-1.0-1.0-0.1-1.74","null","<span style='color:GreenYellow; font-size: 70px;'>正确! </span>","null","","","","","","","","","","","","","","","","","","","","","","","feedback_test"
"","","","","","psychophysics","361","615533","0.0-13.0-1.0-1.0-0.1-0.75","574","","f","","","","","","","","","","","","","key","f","16.672843137254947","768","428","f","true","img/C_ambi40.png","圆形","word_first",""
"","","","","","html-keyboard-response","362","615838","0.0-13.0-1.0-1.0-0.1-1.75","null","<span style='color:GreenYellow; font-size: 70px;'>正确! </span>","null","","","","","","","","","","","","","","","","","","","","","","","feedback_test"
"","","","","","psychophysics","363","617528","0.0-13.0-1.0-1.0-0.1-0.76","535","","j","","","","","","","","","","","","","key","j","16.672610000000567","768","428","j","true","img/C_ambi40.png","方形","word_first",""
"","","","","","html-keyboard-response","364","617830","0.0-13.0-1.0-1.0-0.1-1.76","null","<span style='color:GreenYellow; font-size: 70px;'>正确! </span>","null","","","","","","","","","","","","","","","","","","","","","","","feedback_test"
"","","","","","psychophysics","365","619565","0.0-13.0-1.0-1.0-0.1-0.77","582","","f","","","","","","","","","","","","","key","f","16.673274509803914","768","428","f","true","img/S_ambi40.png","方形","word_first",""
"","","","","","html-keyboard-response","366","619872","0.0-13.0-1.0-1.0-0.1-1.77","null","<span style='color:GreenYellow; font-size: 70px;'>正确! </span>","null","","","","","","","","","","","","","","","","","","","","","","","feedback_test"
"","","","","","psychophysics","367","621522","0.0-13.0-1.0-1.0-0.1-0.78","498","","j","","","","","","","","","","","","","key","j","16.67152040816335","768","428","j","true","img/S_ambi40.png","圆形","word_first",""
"","","","","","html-keyboard-response","368","621824","0.0-13.0-1.0-1.0-0.1-1.78","null","<span style='color:GreenYellow; font-size: 70px;'>正确! </span>","null","","","","","","","","","","","","","","","","","","","","","","","feedback_test"
"","","","","","psychophysics","369","623625","0.0-13.0-1.0-1.0-0.1-0.79","648","","j","","","","","","","","","","","","","key","j","16.673140186916548","768","428","j","true","img/S_ambi40.png","三角","word_first",""
"","","","","","html-keyboard-response","370","623927","0.0-13.0-1.0-1.0-0.1-1.79","null","<span style='color:GreenYellow; font-size: 70px;'>正确! </span>","null","","","","","","","","","","","","","","","","","","","","","","","feedback_test"
"","","","","","psychophysics","371","625813","0.0-13.0-1.0-1.0-0.1-0.80","733","","j","","","","","","","","","","","","","key","j","16.6727767857145","768","428","j","true","img/T_ambi40.png","圆形","word_first",""
"","","","","","html-keyboard-response","372","626115","0.0-13.0-1.0-1.0-0.1-1.80","null","<span style='color:GreenYellow; font-size: 70px;'>正确! </span>","null","","","","","","","","","","","","","","","","","","","","","","","feedback_test"
"","","","","","psychophysics","373","627813","0.0-13.0-1.0-1.0-0.1-0.81","544","","j","","","","","","","","","","","","","key","j","16.67322772277155","768","428","j","true","img/C_ambi40.png","三角","word_first",""
"","","","","","html-keyboard-response","374","628119","0.0-13.0-1.0-1.0-0.1-1.81","null","<span style='color:GreenYellow; font-size: 70px;'>正确! </span>","null","","","","","","","","","","","","","","","","","","","","","","","feedback_test"
"","","","","","psychophysics","375","629767","0.0-13.0-1.0-1.0-0.1-0.82","495","","f","","","","","","","","","","","","","key","f","16.673381443298663","768","428","f","true","img/T_ambi40.png","三角","word_first",""
"","","","","","html-keyboard-response","376","630071","0.0-13.0-1.0-1.0-0.1-1.82","null","<span style='color:GreenYellow; font-size: 70px;'>正确! </span>","null","","","","","","","","","","","","","","","","","","","","","","","feedback_test"
"","","","","","psychophysics","377","631914","0.0-13.0-1.0-1.0-0.1-0.83","688","","f","","","","","","","","","","","","","key","f","16.673532110091017","768","428","f","true","img/C_ambi40.png","圆形","word_first",""
"","","","","","html-keyboard-response","378","632217","0.0-13.0-1.0-1.0-0.1-1.83","null","<span style='color:GreenYellow; font-size: 70px;'>正确! </span>","null","","","","","","","","","","","","","","","","","","","","","","","feedback_test"
"","","","","","psychophysics","379","633807","0.0-13.0-1.0-1.0-0.1-0.84","436","","f","","","","","","","","","","","","","key","f","16.672851063830016","768","428","f","true","img/S_ambi40.png","方形","word_first",""
"","","","","","html-keyboard-response","380","634111","0.0-13.0-1.0-1.0-0.1-1.84","null","<span style='color:GreenYellow; font-size: 70px;'>正确! </span>","null","","","","","","","","","","","","","","","","","","","","","","","feedback_test"
"","","","","","psychophysics","381","635711","0.0-13.0-1.0-1.0-0.1-0.85","448","","f","","","","","","","","","","","","","key","f","16.67286315789495","768","428","f","true","img/T_ambi40.png","三角","word_first",""
"","","","","","html-keyboard-response","382","636014","0.0-13.0-1.0-1.0-0.1-1.85","null","<span style='color:GreenYellow; font-size: 70px;'>正确! </span>","null","","","","","","","","","","","","","","","","","","","","","","","feedback_test"
"","","","","","psychophysics","383","637684","0.0-13.0-1.0-1.0-0.1-0.86","516","","j","","","","","","","","","","","","","key","j","16.67191919191938","768","428","j","true","img/T_ambi40.png","圆形","word_first",""
"","","","","","html-keyboard-response","384","637985","0.0-13.0-1.0-1.0-0.1-1.86","null","<span style='color:GreenYellow; font-size: 70px;'>正确! </span>","null","","","","","","","","","","","","","","","","","","","","","","","feedback_test"
"","","","","","psychophysics","385","639698","0.0-13.0-1.0-1.0-0.1-0.87","560","","f","","","","","","","","","","","","","key","f","16.673549019608316","768","428","f","true","img/C_ambi40.png","圆形","word_first",""
"","","","","","html-keyboard-response","386","640000","0.0-13.0-1.0-1.0-0.1-1.87","null","<span style='color:GreenYellow; font-size: 70px;'>正确! </span>","null","","","","","","","","","","","","","","","","","","","","","","","feedback_test"
"","","","","","psychophysics","387","641670","0.0-13.0-1.0-1.0-0.1-0.88","514","","j","","","","","","","","","","","","","key","j","16.67303030303035","768","428","j","true","img/S_ambi40.png","圆形","word_first",""
"","","","","","html-keyboard-response","388","641973","0.0-13.0-1.0-1.0-0.1-1.88","null","<span style='color:GreenYellow; font-size: 70px;'>正确! </span>","null","","","","","","","","","","","","","","","","","","","","","","","feedback_test"
"","","","","","psychophysics","389","643833","0.0-13.0-1.0-1.0-0.1-0.89","707","","f","","","","","","","","","","","","","key","f","16.673618181818163","768","428","f","true","img/S_ambi40.png","方形","word_first",""
"","","","","","html-keyboard-response","390","644139","0.0-13.0-1.0-1.0-0.1-1.89","null","<span style='color:GreenYellow; font-size: 70px;'>正确! </span>","null","","","","","","","","","","","","","","","","","","","","","","","feedback_test"
"","","","","","psychophysics","391","645755","0.0-13.0-1.0-1.0-0.1-0.90","458","","f","","","","","","","","","","","","","key","f","16.67255208333275","768","428","f","true","img/T_ambi40.png","三角","word_first",""
"","","","","","html-keyboard-response","392","646057","0.0-13.0-1.0-1.0-0.1-1.90","null","<span style='color:GreenYellow; font-size: 70px;'>正确! </span>","null","","","","","","","","","","","","","","","","","","","","","","","feedback_test"
"","","","","","psychophysics","393","647636","0.0-13.0-1.0-1.0-0.1-0.91","426","","f","","","","","","","","","","","","","key","f","16.674978494622884","768","428","f","true","img/C_ambi40.png","圆形","word_first",""
"","","","","","html-keyboard-response","394","647939","0.0-13.0-1.0-1.0-0.1-1.91","null","<span style='color:GreenYellow; font-size: 70px;'>正确! </span>","null","","","","","","","","","","","","","","","","","","","","","","","feedback_test"
"","","","","","psychophysics","395","649603","0.0-13.0-1.0-1.0-0.1-0.92","501","","j","","","","","","","","","","","","","key","j","16.672717171716457","768","428","j","true","img/T_ambi40.png","方形","word_first",""
"","","","","","html-keyboard-response","396","649904","0.0-13.0-1.0-1.0-0.1-1.92","null","<span style='color:GreenYellow; font-size: 70px;'>正确! </span>","null","","","","","","","","","","","","","","","","","","","","","","","feedback_test"
"","","","","","psychophysics","397","651718","0.0-13.0-1.0-1.0-0.1-0.93","649","","j","","","","","","","","","","","","","key","j","16.673314814815832","768","428","j","true","img/C_ambi40.png","方形","word_first",""
"","","","","","html-keyboard-response","398","652041","0.0-13.0-1.0-1.0-0.1-1.93","null","<span style='color:GreenYellow; font-size: 70px;'>正确! </span>","null","","","","","","","","","","","","","","","","","","","","","","","feedback_test"
"","","","","","psychophysics","399","653673","0.0-13.0-1.0-1.0-0.1-0.94","481","","j","","","","","","","","","","","","","key","j","16.673690721649464","768","428","j","true","img/C_ambi40.png","三角","word_first",""
"","","","","","html-keyboard-response","400","653975","0.0-13.0-1.0-1.0-0.1-1.94","null","<span style='color:GreenYellow; font-size: 70px;'>正确! </span>","null","","","","","","","","","","","","","","","","","","","","","","","feedback_test"
"","","","","","psychophysics","401","655656","0.0-13.0-1.0-1.0-0.1-0.95","529","","f","","","","","","","","","","","","","key","f","16.673379999999888","768","428","j","false","img/S_ambi40.png","三角","word_first",""
"","","","","","html-keyboard-response","402","655958","0.0-13.0-1.0-1.0-0.1-1.95","null","<span style='color:red; font-size: 70px;'>错误! </span>","null","","","","","","","","","","","","","","","","","","","","","","","feedback_test"
"","","","","","psychophysics","403","657738","0.0-13.0-1.0-1.0-0.1-0.96","625","","j","","","","","","","","","","","","","key","j","16.673358490566486","768","428","f","false","img/C_ambi40.png","圆形","word_first",""
"","","","","","html-keyboard-response","404","658043","0.0-13.0-1.0-1.0-0.1-1.96","null","<span style='color:red; font-size: 70px;'>错误! </span>","null","","","","","","","","","","","","","","","","","","","","","","","feedback_test"
"","","","","","psychophysics","405","660006","0.0-13.0-1.0-1.0-0.1-0.97","809","","j","","","","","","","","","","","","","key","j","16.67525641025645","768","428","j","true","img/C_ambi40.png","三角","word_first",""
"","","","","","html-keyboard-response","406","660310","0.0-13.0-1.0-1.0-0.1-1.97","null","<span style='color:GreenYellow; font-size: 70px;'>正确! </span>","null","","","","","","","","","","","","","","","","","","","","","","","feedback_test"
"","","","","","psychophysics","407","662089","0.0-13.0-1.0-1.0-0.1-0.98","627","","f","","","","","","","","","","","","","key","f","16.67407547169747","768","428","f","true","img/S_ambi40.png","方形","word_first",""
"","","","","","html-keyboard-response","408","662391","0.0-13.0-1.0-1.0-0.1-1.98","null","<span style='color:GreenYellow; font-size: 70px;'>正确! </span>","null","","","","","","","","","","","","","","","","","","","","","","","feedback_test"
"","","","","","psychophysics","409","664389","0.0-13.0-1.0-1.0-0.1-0.99","845","","f","","","","","","","","","","","","","key","f","16.66674789915961","768","428","f","true","img/C_ambi40.png","圆形","word_first",""
"","","","","","html-keyboard-response","410","664690","0.0-13.0-1.0-1.0-0.1-1.99","null","<span style='color:GreenYellow; font-size: 70px;'>正确! </span>","null","","","","","","","","","","","","","","","","","","","","","","","feedback_test"
"","","","","","psychophysics","411","666390","0.0-13.0-1.0-1.0-0.1-0.100","548","","j","","","","","","","","","","","","","key","j","16.673584158415906","768","428","j","true","img/S_ambi40.png","圆形","word_first",""
"","","","","","html-keyboard-response","412","666696","0.0-13.0-1.0-1.0-0.1-1.100","null","<span style='color:GreenYellow; font-size: 70px;'>正确! </span>","null","","","","","","","","","","","","","","","","","","","","","","","feedback_test"
"","","","","","psychophysics","413","668460","0.0-13.0-1.0-1.0-0.1-0.101","610","","j","","","","","","","","","","","","","key","j","16.673209523809852","768","428","j","true","img/C_ambi40.png","方形","word_first",""
"","","","","","html-keyboard-response","414","668764","0.0-13.0-1.0-1.0-0.1-1.101","null","<span style='color:GreenYellow; font-size: 70px;'>正确! </span>","null","","","","","","","","","","","","","","","","","","","","","","","feedback_test"
"","","","","","psychophysics","415","670507","0.0-13.0-1.0-1.0-0.1-0.102","586","","j","","","","","","","","","","","","","key","j","16.672028846153317","768","428","j","true","img/T_ambi40.png","方形","word_first",""
"","","","","","html-keyboard-response","416","670809","0.0-13.0-1.0-1.0-0.1-1.102","null","<span style='color:GreenYellow; font-size: 70px;'>正确! </span>","null","","","","","","","","","","","","","","","","","","","","","","","feedback_test"
"","","","","","psychophysics","417","672599","0.0-13.0-1.0-1.0-0.1-0.103","637","","j","","","","","","","","","","","","","key","j","16.66799999999963","768","428","j","true","img/T_ambi40.png","圆形","word_first",""
"","","","","","html-keyboard-response","418","672902","0.0-13.0-1.0-1.0-0.1-1.103","null","<span style='color:GreenYellow; font-size: 70px;'>正确! </span>","null","","","","","","","","","","","","","","","","","","","","","","","feedback_test"
"","","","","","psychophysics","419","674502","0.0-13.0-1.0-1.0-0.1-0.104","447","","j","","","","","","","","","","","","","key","j","16.67495744680847","768","428","j","true","img/S_ambi40.png","三角","word_first",""
"","","","","","html-keyboard-response","420","674805","0.0-13.0-1.0-1.0-0.1-1.104","null","<span style='color:GreenYellow; font-size: 70px;'>正确! </span>","null","","","","","","","","","","","","","","","","","","","","","","","feedback_test"
"","","","","","psychophysics","421","676623","0.0-13.0-1.0-1.0-0.1-0.105","662","","f","","","","","","","","","","","","","key","f","16.673439252336085","768","428","f","true","img/T_ambi40.png","三角","word_first",""
"","","","","","html-keyboard-response","422","676928","0.0-13.0-1.0-1.0-0.1-1.105","null","<span style='color:GreenYellow; font-size: 70px;'>正确! </span>","null","","","","","","","","","","","","","","","","","","","","","","","feedback_test"
"","","","","","psychophysics","423","678685","0.0-13.0-1.0-1.0-0.1-0.106","604","","f","","","","","","","","","","","","","key","f","16.673528846154042","768","428","f","true","img/S_ambi40.png","方形","word_first",""
"","","","","","html-keyboard-response","424","678988","0.0-13.0-1.0-1.0-0.1-1.106","null","<span style='color:GreenYellow; font-size: 70px;'>正确! </span>","null","","","","","","","","","","","","","","","","","","","","","","","feedback_test"
"","","","","","psychophysics","425","680619","0.0-13.0-1.0-1.0-0.1-0.107","477","","f","","","","","","","","","","","","","key","f","16.670229166666104","768","428","f","true","img/T_ambi40.png","三角","word_first",""
"","","","","","html-keyboard-response","426","680922","0.0-13.0-1.0-1.0-0.1-1.107","null","<span style='color:GreenYellow; font-size: 70px;'>正确! </span>","null","","","","","","","","","","","","","","","","","","","","","","","feedback_test"
"","","","","","psychophysics","427","682567","0.0-13.0-1.0-1.0-0.1-0.108","491","","f","","","","","","","","","","","","","key","f","16.665092783504807","768","428","f","true","img/S_ambi40.png","方形","word_first",""
"","","","","","html-keyboard-response","428","682868","0.0-13.0-1.0-1.0-0.1-1.108","null","<span style='color:GreenYellow; font-size: 70px;'>正确! </span>","null","","","","","","","","","","","","","","","","","","","","","","","feedback_test"
"","","","","","psychophysics","429","684517","0.0-13.0-1.0-1.0-0.1-0.109","496","","f","","","","","","","","","","","","","key","f","16.673683673468876","768","428","f","true","img/T_ambi40.png","三角","word_first",""
"","","","","","html-keyboard-response","430","684820","0.0-13.0-1.0-1.0-0.1-1.109","null","<span style='color:GreenYellow; font-size: 70px;'>正确! </span>","null","","","","","","","","","","","","","","","","","","","","","","","feedback_test"
"","","","","","psychophysics","431","686497","0.0-13.0-1.0-1.0-0.1-0.110","517","","j","","","","","","","","","","","","","key","j","16.67392929292853","768","428","j","true","img/T_ambi40.png","方形","word_first",""
"","","","","","html-keyboard-response","432","686800","0.0-13.0-1.0-1.0-0.1-1.110","null","<span style='color:GreenYellow; font-size: 70px;'>正确! </span>","null","","","","","","","","","","","","","","","","","","","","","","","feedback_test"
"","","","","","psychophysics","433","688454","0.0-13.0-1.0-1.0-0.1-0.111","500","","j","","","","","","","","","","","","","key","j","16.673948979592044","768","428","j","true","img/S_ambi40.png","三角","word_first",""
"","","","","","html-keyboard-response","434","688756","0.0-13.0-1.0-1.0-0.1-1.111","null","<span style='color:GreenYellow; font-size: 70px;'>正确! </span>","null","","","","","","","","","","","","","","","","","","","","","","","feedback_test"
