"success","timeout","failed_images","failed_audio","failed_video","trial_type","trial_index","time_elapsed","internal_node_id","rt","stimulus","response","value","item_width_mm","item_height_mm","item_width_px","px2mm","view_dist_mm","item_width_deg","px2deg","scale_factor","win_width_deg","win_height_deg","view_history","response_type","key_press","avg_frame_time","center_x","center_y","correct_response","correct","Image","word","condition","screen_id"
"true","false","[]","[]","[]","preload","0","415","0.0-0.0","","","","","","","","","","","","","","","","","","","","","","","","","",""
"","","","","","html-keyboard-response","1","7526","0.0-1.0","7109","
     <p>您好，欢迎参加本次实验。</p>
     <p>为充分保障您的权利，请确保您已经知晓并同意《参与实验同意书》以及《数据公开知情同意书》。</p>
     <p>如果您未见过上述内容，请咨询实验员。</p>
     <p>如果您选择继续实验，则表示您已经清楚两份知情同意书的内容并同意。</p>
     <p> <div style = ""color: green""><按任意键至下页></div> </p>
     "," ","","","","","","","","","","","","","","","","","","","","","","",""
"","","","","","html-keyboard-response","2","8414","0.0-2.0","887","
     <p>本实验首先需要您填写一些基本个人信息。</p>
     <p> <div style = ""color: green""><按任意键至下页></div></p>
     "," ","","","","","","","","","","","","","","","","","","","","","","",""
"","","","","","call-function","3","8416","0.0-3.0-0.0","","","","","","","","","","","","","","","","","","","","","","","","","",""
"","","","","","survey-html-form","4","11323","0.0-3.0-1.0","2904","","{""Q0"":""11""}","","","","","","","","","","","","","","","","","","","","","","",""
"","","","","","html-button-response","5","12242","0.0-3.0-2.0","915","<p style = 'color : white'>您的性别</p>","0","","","","","","","","","","","","","","","","","","","","","","",""
"","","","","","survey-html-form","6","16116","0.0-3.0-3.0","3872","","{""Q0"":""1999""}","","","","","","","","","","","","","","","","","","","","","","",""
"","","","","","survey-html-form","7","18353","0.0-3.0-4.0","2235","","{""Q0"":""5""}","","","","","","","","","","","","","","","","","","","","","","",""
"","","","","","virtual-chinrest","8","72744","0.0-4.0","54388","","","","85.6","53.98","492.8888129319849","5.759599611789487","496.3","9.857776258639698","50","0.722272428709242","25.6","12.18","","","","","","","","","","","",""
"true","","","","","fullscreen","9","75989","0.0-5.0","","","","","","","","","","","","","","","","","","","","","","","","","",""
"","","","","","instructions","10","95118","0.0-6.0","19128","","","","","","","","","","","","","","[{""page_index"":0,""viewing_time"":3098},{""page_index"":1,""viewing_time"":4596},{""page_index"":2,""viewing_time"":5415},{""page_index"":3,""viewing_time"":6018}]","","","","","","","","","","",""
"","","","","","psychophysics","11","96949","0.0-7.0-0.0-0.0","670","","f","","","","","","","","","","","","","key","f","16.66011926605499","640","356","j","false","img/C_ambi40.png","坏人","prac_image_first",""
"","","","","","html-keyboard-response","12","97259","0.0-7.0-0.0-1.0","null","<span style='color:red; font-size: 70px;'>错误! </span>","null","","","","","","","","","","","","","","","","","","","","","","","feedback_test"
"","","","","","psychophysics","13","99917","0.0-7.0-0.0-0.1","null","","null","","","","","","","","","","","","","key","null","16.660765822784796","640","356","f","false","img/T_ambi40.png","常人","prac_image_first",""
"","","","","","html-keyboard-response","14","100231","0.0-7.0-0.0-1.1","null","<span class='add_' style='color:yellow; font-size: 70px;'> 太慢! </span>","null","","","","","","","","","","","","","","","","","","","","","","","feedback_test"
"","","","","","psychophysics","15","102892","0.0-7.0-0.0-0.2","null","","null","","","","","","","","","","","","","key","null","16.979666666666628","640","356","f","false","img/S_ambi40.png","好人","prac_image_first",""
"","","","","","html-keyboard-response","16","103200","0.0-7.0-0.0-1.2","null","<span class='add_' style='color:yellow; font-size: 70px;'> 太慢! </span>","null","","","","","","","","","","","","","","","","","","","","","","","feedback_test"
"","","","","","psychophysics","17","105855","0.0-7.0-0.0-0.3","null","","null","","","","","","","","","","","","","key","null","16.57365189873419","640","300.3333333333333","j","false","img/T_ambi40.png","好人","prac_image_first",""
"","","","","","html-keyboard-response","18","106160","0.0-7.0-0.0-1.3","null","<span class='add_' style='color:yellow; font-size: 70px;'> 太慢! </span>","null","","","","","","","","","","","","","","","","","","","","","","","feedback_test"
"","","","","","psychophysics","19","108813","0.0-7.0-0.0-0.4","null","","null","","","","","","","","","","","","","key","null","16.656613924050603","640","300.3333333333333","j","false","img/C_ambi40.png","坏人","prac_image_first",""
"","","","","","html-keyboard-response","20","109120","0.0-7.0-0.0-1.4","null","<span class='add_' style='color:yellow; font-size: 70px;'> 太慢! </span>","null","","","","","","","","","","","","","","","","","","","","","","","feedback_test"
"","","","","","psychophysics","21","111805","0.0-7.0-0.0-0.5","null","","null","","","","","","","","","","","","","key","null","16.728018867924558","640","300.3333333333333","f","false","img/C_ambi40.png","好人","prac_image_first",""
"","","","","","html-keyboard-response","22","112123","0.0-7.0-0.0-1.5","null","<span class='add_' style='color:yellow; font-size: 70px;'> 太慢! </span>","null","","","","","","","","","","","","","","","","","","","","","","","feedback_test"
"","","","","","psychophysics","23","114781","0.0-7.0-0.0-0.6","null","","null","","","","","","","","","","","","","key","null","16.65891772151906","640","300.3333333333333","f","false","img/S_ambi40.png","坏人","prac_image_first",""
"","","","","","html-keyboard-response","24","115096","0.0-7.0-0.0-1.6","null","<span class='add_' style='color:yellow; font-size: 70px;'> 太慢! </span>","null","","","","","","","","","","","","","","","","","","","","","","","feedback_test"
"","","","","","psychophysics","25","117761","0.0-7.0-0.0-0.7","null","","null","","","","","","","","","","","","","key","null","16.751898089172037","640","300.3333333333333","j","false","img/S_ambi40.png","常人","prac_image_first",""
"","","","","","html-keyboard-response","26","118078","0.0-7.0-0.0-1.7","null","<span class='add_' style='color:yellow; font-size: 70px;'> 太慢! </span>","null","","","","","","","","","","","","","","","","","","","","","","","feedback_test"
"","","","","","psychophysics","27","120755","0.0-7.0-0.0-0.8","null","","null","","","","","","","","","","","","","key","null","16.872641025641013","640","300.3333333333333","j","false","img/T_ambi40.png","好人","prac_image_first",""
"","","","","","html-keyboard-response","28","121063","0.0-7.0-0.0-1.8","null","<span class='add_' style='color:yellow; font-size: 70px;'> 太慢! </span>","null","","","","","","","","","","","","","","","","","","","","","","","feedback_test"
"","","","","","psychophysics","29","123720","0.0-7.0-0.0-0.9","null","","null","","","","","","","","","","","","","key","null","16.982780645161327","640","300.3333333333333","f","false","img/T_ambi40.png","坏人","prac_image_first",""
"","","","","","html-keyboard-response","30","124024","0.0-7.0-0.0-1.9","null","<span class='add_' style='color:yellow; font-size: 70px;'> 太慢! </span>","null","","","","","","","","","","","","","","","","","","","","","","","feedback_test"
"","","","","","psychophysics","31","126682","0.0-7.0-0.0-0.10","null","","null","","","","","","","","","","","","","key","null","16.659559748427643","640","300.3333333333333","f","false","img/C_ambi40.png","常人","prac_image_first",""
"","","","","","html-keyboard-response","32","126994","0.0-7.0-0.0-1.10","null","<span class='add_' style='color:yellow; font-size: 70px;'> 太慢! </span>","null","","","","","","","","","","","","","","","","","","","","","","","feedback_test"
"","","","","","psychophysics","33","129647","0.0-7.0-0.0-0.11","null","","null","","","","","","","","","","","","","key","null","16.659265822784928","640","300.3333333333333","j","false","img/S_ambi40.png","常人","prac_image_first",""
"","","","","","html-keyboard-response","34","129960","0.0-7.0-0.0-1.11","null","<span class='add_' style='color:yellow; font-size: 70px;'> 太慢! </span>","null","","","","","","","","","","","","","","","","","","","","","","","feedback_test"
"","","","","","psychophysics","35","132624","0.0-7.0-0.0-0.12","null","","null","","","","","","","","","","","","","key","null","16.656823899371055","640","300.3333333333333","f","false","img/T_ambi40.png","坏人","prac_image_first",""
"","","","","","html-keyboard-response","36","132935","0.0-7.0-0.0-1.12","null","<span class='add_' style='color:yellow; font-size: 70px;'> 太慢! </span>","null","","","","","","","","","","","","","","","","","","","","","","","feedback_test"
"","","","","","psychophysics","37","135590","0.0-7.0-0.0-0.13","null","","null","","","","","","","","","","","","","key","null","16.659018867924434","640","300.3333333333333","j","false","img/T_ambi40.png","好人","prac_image_first",""
"","","","","","html-keyboard-response","38","135901","0.0-7.0-0.0-1.13","null","<span class='add_' style='color:yellow; font-size: 70px;'> 太慢! </span>","null","","","","","","","","","","","","","","","","","","","","","","","feedback_test"
"","","","","","psychophysics","39","138557","0.0-7.0-0.0-0.14","null","","null","","","","","","","","","","","","","key","null","16.65892452830189","640","300.3333333333333","f","false","img/T_ambi40.png","常人","prac_image_first",""
"","","","","","html-keyboard-response","40","138863","0.0-7.0-0.0-1.14","null","<span class='add_' style='color:yellow; font-size: 70px;'> 太慢! </span>","null","","","","","","","","","","","","","","","","","","","","","","","feedback_test"
"","","","","","psychophysics","41","141533","0.0-7.0-0.0-0.15","null","","null","","","","","","","","","","","","","key","null","16.659031446540833","640","300.3333333333333","f","false","img/C_ambi40.png","常人","prac_image_first",""
"","","","","","html-keyboard-response","42","141842","0.0-7.0-0.0-1.15","null","<span class='add_' style='color:yellow; font-size: 70px;'> 太慢! </span>","null","","","","","","","","","","","","","","","","","","","","","","","feedback_test"
"","","","","","psychophysics","43","144497","0.0-7.0-0.0-0.16","null","","null","","","","","","","","","","","","","key","null","16.657563291139173","640","300.3333333333333","j","false","img/S_ambi40.png","常人","prac_image_first",""
"","","","","","html-keyboard-response","44","144810","0.0-7.0-0.0-1.16","null","<span class='add_' style='color:yellow; font-size: 70px;'> 太慢! </span>","null","","","","","","","","","","","","","","","","","","","","","","","feedback_test"
"","","","","","psychophysics","45","147463","0.0-7.0-0.0-0.17","null","","null","","","","","","","","","","","","","key","null","16.66113924050646","640","300.3333333333333","f","false","img/S_ambi40.png","坏人","prac_image_first",""
"","","","","","html-keyboard-response","46","147767","0.0-7.0-0.0-1.17","null","<span class='add_' style='color:yellow; font-size: 70px;'> 太慢! </span>","null","","","","","","","","","","","","","","","","","","","","","","","feedback_test"
"","","","","","psychophysics","47","150425","0.0-7.0-0.0-0.18","null","","null","","","","","","","","","","","","","key","null","16.65886708860775","640","300.3333333333333","j","false","img/T_ambi40.png","好人","prac_image_first",""
"","","","","","html-keyboard-response","48","150739","0.0-7.0-0.0-1.18","null","<span class='add_' style='color:yellow; font-size: 70px;'> 太慢! </span>","null","","","","","","","","","","","","","","","","","","","","","","","feedback_test"
"","","","","","psychophysics","49","153397","0.0-7.0-0.0-0.19","null","","null","","","","","","","","","","","","","key","null","16.658968553459015","640","300.3333333333333","f","false","img/S_ambi40.png","好人","prac_image_first",""
"","","","","","html-keyboard-response","50","153712","0.0-7.0-0.0-1.19","null","<span class='add_' style='color:yellow; font-size: 70px;'> 太慢! </span>","null","","","","","","","","","","","","","","","","","","","","","","","feedback_test"
"","","","","","psychophysics","51","156365","0.0-7.0-0.0-0.20","null","","null","","","","","","","","","","","","","key","null","16.659158227848085","640","300.3333333333333","j","false","img/S_ambi40.png","常人","prac_image_first",""
"","","","","","html-keyboard-response","52","156682","0.0-7.0-0.0-1.20","null","<span class='add_' style='color:yellow; font-size: 70px;'> 太慢! </span>","null","","","","","","","","","","","","","","","","","","","","","","","feedback_test"
"","","","","","psychophysics","53","159335","0.0-7.0-0.0-0.21","null","","null","","","","","","","","","","","","","key","null","16.65891139240511","640","300.3333333333333","f","false","img/C_ambi40.png","好人","prac_image_first",""
"","","","","","html-keyboard-response","54","159646","0.0-7.0-0.0-1.21","null","<span class='add_' style='color:yellow; font-size: 70px;'> 太慢! </span>","null","","","","","","","","","","","","","","","","","","","","","","","feedback_test"
"","","","","","psychophysics","55","162300","0.0-7.0-0.0-0.22","null","","null","","","","","","","","","","","","","key","null","16.658930379746863","640","300.3333333333333","j","false","img/C_ambi40.png","坏人","prac_image_first",""
"","","","","","html-keyboard-response","56","162610","0.0-7.0-0.0-1.22","null","<span class='add_' style='color:yellow; font-size: 70px;'> 太慢! </span>","null","","","","","","","","","","","","","","","","","","","","","","","feedback_test"
"","","","","","psychophysics","57","165267","0.0-7.0-0.0-0.23","null","","null","","","","","","","","","","","","","key","null","16.658683544303706","640","300.3333333333333","j","false","img/C_ambi40.png","坏人","prac_image_first",""
"","","","","","html-keyboard-response","58","165570","0.0-7.0-0.0-1.23","null","<span class='add_' style='color:yellow; font-size: 70px;'> 太慢! </span>","null","","","","","","","","","","","","","","","","","","","","","","","feedback_test"
"","","","","","html-keyboard-response","59","172317","0.0-7.0-1.0-0.0","6741","<style>.context{color:white; font-size: 35px; line-height:40px}</style>                              <div><p class='context'>您正确回答了0% 的试次。</p><p class='context'>您的平均反应时为NaN毫秒。</p>"," ","","","","","","","","","","","","","","","","","","","","","","",""
"","","","","","instructions","60","258394","0.0-7.0-1.0-1.0","86073","","","","","","","","","","","","","","[{""page_index"":0,""viewing_time"":8904},{""page_index"":1,""viewing_time"":74856},{""page_index"":2,""viewing_time"":2313}]","","","","","","","","","","",""
"","","","","","psychophysics","61","261054","0.0-7.1-0.1-0.24","null","","null","","","","","","","","","","","","","key","null","16.660082278481045","640","300.3333333333333","f","false","img/S_ambi40.png","好人","prac_image_first",""
"","","","","","html-keyboard-response","62","261371","0.0-7.1-0.1-1.24","null","<span class='add_' style='color:yellow; font-size: 70px;'> 太慢! </span>","null","","","","","","","","","","","","","","","","","","","","","","","feedback_test"
"","","","","","psychophysics","63","263422","0.0-7.1-0.1-0.25","895","","j","","","","","","","","","","","","","key","j","16.660008196721375","640","300.3333333333333","j","true","img/C_ambi40.png","坏人","prac_image_first",""
"","","","","","html-keyboard-response","64","263723","0.0-7.1-0.1-1.25","null","<span style='color:GreenYellow; font-size: 70px;'>正确! </span>","null","","","","","","","","","","","","","","","","","","","","","","","feedback_test"
"","","","","","psychophysics","65","265809","0.0-7.1-0.1-0.26","934","","j","","","","","","","","","","","","","key","j","16.658701612903254","640","300.3333333333333","j","true","img/T_ambi40.png","好人","prac_image_first",""
"","","","","","html-keyboard-response","66","266112","0.0-7.1-0.1-1.26","null","<span style='color:GreenYellow; font-size: 70px;'>正确! </span>","null","","","","","","","","","","","","","","","","","","","","","","","feedback_test"
"","","","","","psychophysics","67","268124","0.0-7.1-0.1-0.27","859","","f","","","","","","","","","","","","","key","f","16.659369747898886","640","300.3333333333333","f","true","img/C_ambi40.png","好人","prac_image_first",""
"","","","","","html-keyboard-response","68","268434","0.0-7.1-0.1-1.27","null","<span style='color:GreenYellow; font-size: 70px;'>正确! </span>","null","","","","","","","","","","","","","","","","","","","","","","","feedback_test"
"","","","","","psychophysics","69","270824","0.0-7.1-0.1-0.28","1237","","f","","","","","","","","","","","","","key","f","16.659225352112987","640","300.3333333333333","f","true","img/S_ambi40.png","坏人","prac_image_first",""
"","","","","","html-keyboard-response","70","271131","0.0-7.1-0.1-1.28","null","<span style='color:GreenYellow; font-size: 70px;'>正确! </span>","null","","","","","","","","","","","","","","","","","","","","","","","feedback_test"
"","","","","","psychophysics","71","273069","0.0-7.1-0.1-0.29","785","","j","","","","","","","","","","","","","key","j","16.658817391304563","640","300.3333333333333","j","true","img/S_ambi40.png","常人","prac_image_first",""
"","","","","","html-keyboard-response","72","273381","0.0-7.1-0.1-1.29","null","<span style='color:GreenYellow; font-size: 70px;'>正确! </span>","null","","","","","","","","","","","","","","","","","","","","","","","feedback_test"
"","","","","","psychophysics","73","275332","0.0-7.1-0.1-0.30","798","","f","","","","","","","","","","","","","key","f","16.65924137930992","640","300.3333333333333","f","true","img/C_ambi40.png","常人","prac_image_first",""
"","","","","","html-keyboard-response","74","275644","0.0-7.1-0.1-1.30","null","<span style='color:GreenYellow; font-size: 70px;'>正确! </span>","null","","","","","","","","","","","","","","","","","","","","","","","feedback_test"
"","","","","","psychophysics","75","277548","0.0-7.1-0.1-0.31","751","","j","","","","","","","","","","","","","key","j","16.65707079646027","640","300.3333333333333","j","true","img/S_ambi40.png","常人","prac_image_first",""
"","","","","","html-keyboard-response","76","277849","0.0-7.1-0.1-1.31","null","<span style='color:GreenYellow; font-size: 70px;'>正确! </span>","null","","","","","","","","","","","","","","","","","","","","","","","feedback_test"
"","","","","","psychophysics","77","279578","0.0-7.1-0.1-0.32","576","","f","","","","","","","","","","","","","key","f","16.657529411764415","640","300.3333333333333","f","true","img/T_ambi40.png","坏人","prac_image_first",""
"","","","","","html-keyboard-response","78","279898","0.0-7.1-0.1-1.32","null","<span style='color:GreenYellow; font-size: 70px;'>正确! </span>","null","","","","","","","","","","","","","","","","","","","","","","","feedback_test"
"","","","","","psychophysics","79","281911","0.0-7.1-0.1-0.33","859","","f","","","","","","","","","","","","","key","f","16.65972268907549","640","300.3333333333333","f","true","img/T_ambi40.png","常人","prac_image_first",""
"","","","","","html-keyboard-response","80","282222","0.0-7.1-0.1-1.33","null","<span style='color:GreenYellow; font-size: 70px;'>正确! </span>","null","","","","","","","","","","","","","","","","","","","","","","","feedback_test"
"","","","","","psychophysics","81","284428","0.0-7.1-0.1-0.34","1048","","f","","","","","","","","","","","","","key","f","16.660022900763273","640","300.3333333333333","j","false","img/C_ambi40.png","坏人","prac_image_first",""
"","","","","","html-keyboard-response","82","284748","0.0-7.1-0.1-1.34","null","<span style='color:red; font-size: 70px;'>错误! </span>","null","","","","","","","","","","","","","","","","","","","","","","","feedback_test"
"","","","","","psychophysics","83","287204","0.0-7.1-0.1-0.35","1303","","j","","","","","","","","","","","","","key","j","16.661130136986063","640","300.3333333333333","j","true","img/T_ambi40.png","好人","prac_image_first",""
"","","","","","html-keyboard-response","84","287518","0.0-7.1-0.1-1.35","null","<span style='color:GreenYellow; font-size: 70px;'>正确! </span>","null","","","","","","","","","","","","","","","","","","","","","","","feedback_test"
"","","","","","psychophysics","85","289431","0.0-7.1-0.1-0.36","759","","f","","","","","","","","","","","","","key","f","16.660601769911384","640","300.3333333333333","f","true","img/T_ambi40.png","常人","prac_image_first",""
"","","","","","html-keyboard-response","86","289747","0.0-7.1-0.1-1.36","null","<span style='color:GreenYellow; font-size: 70px;'>正确! </span>","null","","","","","","","","","","","","","","","","","","","","","","","feedback_test"
"","","","","","psychophysics","87","291875","0.0-7.1-0.1-0.37","977","","j","","","","","","","","","","","","","key","j","16.659496062992538","640","300.3333333333333","j","true","img/T_ambi40.png","好人","prac_image_first",""
"","","","","","html-keyboard-response","88","292185","0.0-7.1-0.1-1.37","null","<span style='color:GreenYellow; font-size: 70px;'>正确! </span>","null","","","","","","","","","","","","","","","","","","","","","","","feedback_test"
"","","","","","psychophysics","89","294267","0.0-7.1-0.1-0.38","929","","f","","","","","","","","","","","","","key","f","16.66038211382125","640","300.3333333333333","f","true","img/S_ambi40.png","坏人","prac_image_first",""
"","","","","","html-keyboard-response","90","294581","0.0-7.1-0.1-1.38","null","<span style='color:GreenYellow; font-size: 70px;'>正确! </span>","null","","","","","","","","","","","","","","","","","","","","","","","feedback_test"
"","","","","","psychophysics","91","296656","0.0-7.1-0.1-0.39","923","","f","","","","","","","","","","","","","key","f","16.656723577235788","640","300.3333333333333","f","true","img/S_ambi40.png","好人","prac_image_first",""
"","","","","","html-keyboard-response","92","296958","0.0-7.1-0.1-1.39","null","<span style='color:GreenYellow; font-size: 70px;'>正确! </span>","null","","","","","","","","","","","","","","","","","","","","","","","feedback_test"
"","","","","","psychophysics","93","299020","0.0-7.1-0.1-0.40","909","","j","","","","","","","","","","","","","key","j","16.65926829268266","640","300.3333333333333","j","true","img/S_ambi40.png","常人","prac_image_first",""
"","","","","","html-keyboard-response","94","299329","0.0-7.1-0.1-1.40","null","<span style='color:GreenYellow; font-size: 70px;'>正确! </span>","null","","","","","","","","","","","","","","","","","","","","","","","feedback_test"
"","","","","","psychophysics","95","301510","0.0-7.1-0.1-0.41","1028","","j","","","","","","","","","","","","","key","j","16.658860465115957","640","300.3333333333333","f","false","img/T_ambi40.png","坏人","prac_image_first",""
"","","","","","html-keyboard-response","96","301824","0.0-7.1-0.1-1.41","null","<span style='color:red; font-size: 70px;'>错误! </span>","null","","","","","","","","","","","","","","","","","","","","","","","feedback_test"
"","","","","","psychophysics","97","303758","0.0-7.1-0.1-0.42","780","","f","","","","","","","","","","","","","key","f","16.658704347825992","640","300.3333333333333","f","true","img/C_ambi40.png","好人","prac_image_first",""
"","","","","","html-keyboard-response","98","304070","0.0-7.1-0.1-1.42","null","<span style='color:GreenYellow; font-size: 70px;'>正确! </span>","null","","","","","","","","","","","","","","","","","","","","","","","feedback_test"
"","","","","","psychophysics","99","306402","0.0-7.1-0.1-0.43","1181","","f","","","","","","","","","","","","","key","f","16.651669064748166","640","300.3333333333333","f","true","img/C_ambi40.png","常人","prac_image_first",""
"","","","","","html-keyboard-response","100","306715","0.0-7.1-0.1-1.43","null","<span style='color:GreenYellow; font-size: 70px;'>正确! </span>","null","","","","","","","","","","","","","","","","","","","","","","","feedback_test"
"","","","","","psychophysics","101","308712","0.0-7.1-0.1-0.44","844","","f","","","","","","","","","","","","","key","f","16.659466101694754","640","300.3333333333333","j","false","img/C_ambi40.png","坏人","prac_image_first",""
"","","","","","html-keyboard-response","102","309016","0.0-7.1-0.1-1.44","null","<span style='color:red; font-size: 70px;'>错误! </span>","null","","","","","","","","","","","","","","","","","","","","","","","feedback_test"
"","","","","","psychophysics","103","310850","0.0-7.1-0.1-0.45","681","","j","","","","","","","","","","","","","key","j","16.65967889908229","640","300.3333333333333","j","true","img/C_ambi40.png","坏人","prac_image_first",""
"","","","","","html-keyboard-response","104","311164","0.0-7.1-0.1-1.45","null","<span style='color:GreenYellow; font-size: 70px;'>正确! </span>","null","","","","","","","","","","","","","","","","","","","","","","","feedback_test"
"","","","","","psychophysics","105","313054","0.0-7.1-0.1-0.46","731","","j","","","","","","","","","","","","","key","j","16.660535714286066","640","300.3333333333333","j","true","img/S_ambi40.png","常人","prac_image_first",""
"","","","","","html-keyboard-response","106","313364","0.0-7.1-0.1-1.46","null","<span style='color:GreenYellow; font-size: 70px;'>正确! </span>","null","","","","","","","","","","","","","","","","","","","","","","","feedback_test"
"","","","","","psychophysics","107","315519","0.0-7.1-0.1-0.47","1001","","j","","","","","","","","","","","","","key","j","16.656023437500153","640","300.3333333333333","j","true","img/T_ambi40.png","好人","prac_image_first",""
"","","","","","html-keyboard-response","108","315835","0.0-7.1-0.1-1.47","null","<span style='color:GreenYellow; font-size: 70px;'>正确! </span>","null","","","","","","","","","","","","","","","","","","","","","","","feedback_test"
"","","","","","html-keyboard-response","109","319881","0.0-8.0","4044","<style>.context{color:white; font-size: 35px; line-height:40px}</style>                              <div><p class='context'>您正确回答了83% 的试次。</p><p class='context'>您的平均反应时为893毫秒。</p><p class='context'>恭喜您完成这一阶段的练习。按任意键进入<span style='color: yellow;'>先文字后图形条件</span>的练习。</p></div>"," ","","","","","","","","","","","","","","","","","","","","","","",""
"","","","","","psychophysics","110","322344","0.0-9.0-0.0-0.0","1301","","j","","","","","","","","","","","","","key","j","16.65876190476183","640","300.3333333333333","j","true","img/C_ambi40.png","坏人","prac_word_first",""
"","","","","","html-keyboard-response","111","322654","0.0-9.0-0.0-1.0","null","<span style='color:GreenYellow; font-size: 70px;'>正确! </span>","null","","","","","","","","","","","","","","","","","","","","","","","feedback_test"
"","","","","","psychophysics","112","324524","0.0-9.0-0.0-0.1","716","","f","","","","","","","","","","","","","key","f","16.659618181818356","640","300.3333333333333","f","true","img/C_ambi40.png","好人","prac_word_first",""
"","","","","","html-keyboard-response","113","324829","0.0-9.0-0.0-1.1","null","<span style='color:GreenYellow; font-size: 70px;'>正确! </span>","null","","","","","","","","","","","","","","","","","","","","","","","feedback_test"
"","","","","","psychophysics","114","326860","0.0-9.0-0.0-0.2","875","","j","","","","","","","","","","","","","key","j","16.6595454545454","640","300.3333333333333","j","true","img/S_ambi40.png","常人","prac_word_first",""
"","","","","","html-keyboard-response","115","327176","0.0-9.0-0.0-1.2","null","<span style='color:GreenYellow; font-size: 70px;'>正确! </span>","null","","","","","","","","","","","","","","","","","","","","","","","feedback_test"
"","","","","","psychophysics","116","329820","0.0-9.0-0.0-0.3","1491","","f","","","","","","","","","","","","","key","f","16.659259493670888","640","300.3333333333333","j","false","img/C_ambi40.png","坏人","prac_word_first",""
"","","","","","html-keyboard-response","117","330126","0.0-9.0-0.0-1.3","null","<span style='color:red; font-size: 70px;'>错误! </span>","null","","","","","","","","","","","","","","","","","","","","","","","feedback_test"
"","","","","","psychophysics","118","332186","0.0-9.0-0.0-0.4","908","","j","","","","","","","","","","","","","key","j","16.653672131147715","640","300.3333333333333","j","true","img/T_ambi40.png","好人","prac_word_first",""
"","","","","","html-keyboard-response","119","332496","0.0-9.0-0.0-1.4","null","<span style='color:GreenYellow; font-size: 70px;'>正确! </span>","null","","","","","","","","","","","","","","","","","","","","","","","feedback_test"
"","","","","","psychophysics","120","334387","0.0-9.0-0.0-0.5","738","","f","","","","","","","","","","","","","key","f","16.539261261261327","640","300.3333333333333","f","true","img/T_ambi40.png","常人","prac_word_first",""
"","","","","","html-keyboard-response","121","334698","0.0-9.0-0.0-1.5","null","<span style='color:GreenYellow; font-size: 70px;'>正确! </span>","null","","","","","","","","","","","","","","","","","","","","","","","feedback_test"
"","","","","","psychophysics","122","337302","0.0-9.0-0.0-0.6","1447","","f","","","","","","","","","","","","","key","f","16.659096774193383","640","300.3333333333333","f","true","img/S_ambi40.png","好人","prac_word_first",""
"","","","","","html-keyboard-response","123","337618","0.0-9.0-0.0-1.6","null","<span style='color:GreenYellow; font-size: 70px;'>正确! </span>","null","","","","","","","","","","","","","","","","","","","","","","","feedback_test"
"","","","","","psychophysics","124","339590","0.0-9.0-0.0-0.7","818","","j","","","","","","","","","","","","","key","j","16.658316239316125","640","300.3333333333333","j","true","img/T_ambi40.png","好人","prac_word_first",""
"","","","","","html-keyboard-response","125","339901","0.0-9.0-0.0-1.7","null","<span style='color:GreenYellow; font-size: 70px;'>正确! </span>","null","","","","","","","","","","","","","","","","","","","","","","","feedback_test"
"","","","","","psychophysics","126","341789","0.0-9.0-0.0-0.8","736","","f","","","","","","","","","","","","","key","f","16.66070535714295","640","300.3333333333333","f","true","img/S_ambi40.png","坏人","prac_word_first",""
"","","","","","html-keyboard-response","127","342094","0.0-9.0-0.0-1.8","null","<span style='color:GreenYellow; font-size: 70px;'>正确! </span>","null","","","","","","","","","","","","","","","","","","","","","","","feedback_test"
"","","","","","psychophysics","128","343944","0.0-9.0-0.0-0.9","694","","j","","","","","","","","","","","","","key","j","16.658724770641996","640","300.3333333333333","j","true","img/S_ambi40.png","常人","prac_word_first",""
"","","","","","html-keyboard-response","129","344253","0.0-9.0-0.0-1.9","null","<span style='color:GreenYellow; font-size: 70px;'>正确! </span>","null","","","","","","","","","","","","","","","","","","","","","","","feedback_test"
"","","","","","psychophysics","130","346293","0.0-9.0-0.0-0.10","884","","f","","","","","","","","","","","","","key","f","16.658975206611846","640","300.3333333333333","f","true","img/T_ambi40.png","坏人","prac_word_first",""
"","","","","","html-keyboard-response","131","346607","0.0-9.0-0.0-1.10","null","<span style='color:GreenYellow; font-size: 70px;'>正确! </span>","null","","","","","","","","","","","","","","","","","","","","","","","feedback_test"
"","","","","","psychophysics","132","348650","0.0-9.0-0.0-0.11","889","","f","","","","","","","","","","","","","key","f","16.661446280991523","640","300.3333333333333","f","true","img/C_ambi40.png","常人","prac_word_first",""
"","","","","","html-keyboard-response","133","348961","0.0-9.0-0.0-1.11","null","<span style='color:GreenYellow; font-size: 70px;'>正确! </span>","null","","","","","","","","","","","","","","","","","","","","","","","feedback_test"
"","","","","","psychophysics","134","351319","0.0-9.0-0.0-0.12","1202","","f","","","","","","","","","","","","","key","f","16.651507142857216","640","300.3333333333333","f","true","img/S_ambi40.png","坏人","prac_word_first",""
"","","","","","html-keyboard-response","135","351631","0.0-9.0-0.0-1.12","null","<span style='color:GreenYellow; font-size: 70px;'>正确! </span>","null","","","","","","","","","","","","","","","","","","","","","","","feedback_test"
"","","","","","psychophysics","136","354064","0.0-9.0-0.0-0.13","1279","","j","","","","","","","","","","","","","key","j","16.659186206896518","640","300.3333333333333","j","true","img/C_ambi40.png","坏人","prac_word_first",""
"","","","","","html-keyboard-response","137","354375","0.0-9.0-0.0-1.13","null","<span style='color:GreenYellow; font-size: 70px;'>正确! </span>","null","","","","","","","","","","","","","","","","","","","","","","","feedback_test"
"","","","","","psychophysics","138","356677","0.0-9.0-0.0-0.14","1149","","j","","","","","","","","","","","","","key","j","16.65802189781004","640","300.3333333333333","j","true","img/T_ambi40.png","好人","prac_word_first",""
"","","","","","html-keyboard-response","139","356989","0.0-9.0-0.0-1.14","null","<span style='color:GreenYellow; font-size: 70px;'>正确! </span>","null","","","","","","","","","","","","","","","","","","","","","","","feedback_test"
"","","","","","psychophysics","140","359317","0.0-9.0-0.0-0.15","1175","","j","","","","","","","","","","","","","key","j","16.658181159420486","640","300.3333333333333","j","true","img/S_ambi40.png","常人","prac_word_first",""
"","","","","","html-keyboard-response","141","359627","0.0-9.0-0.0-1.15","null","<span style='color:GreenYellow; font-size: 70px;'>正确! </span>","null","","","","","","","","","","","","","","","","","","","","","","","feedback_test"
"","","","","","psychophysics","142","361407","0.0-9.0-0.0-0.16","628","","f","","","","","","","","","","","","","key","f","16.651349056603273","640","300.3333333333333","f","true","img/C_ambi40.png","好人","prac_word_first",""
"","","","","","html-keyboard-response","143","361719","0.0-9.0-0.0-1.16","null","<span style='color:GreenYellow; font-size: 70px;'>正确! </span>","null","","","","","","","","","","","","","","","","","","","","","","","feedback_test"
"","","","","","psychophysics","144","363924","0.0-9.0-0.0-0.17","1053","","f","","","","","","","","","","","","","key","f","16.660816793892984","640","300.3333333333333","f","true","img/C_ambi40.png","常人","prac_word_first",""
"","","","","","html-keyboard-response","145","364241","0.0-9.0-0.0-1.17","null","<span style='color:GreenYellow; font-size: 70px;'>正确! </span>","null","","","","","","","","","","","","","","","","","","","","","","","feedback_test"
"","","","","","psychophysics","146","366905","0.0-9.0-0.0-0.18","null","","null","","","","","","","","","","","","","key","null","16.660377358490567","640","300.3333333333333","f","false","img/T_ambi40.png","常人","prac_word_first",""
"","","","","","html-keyboard-response","147","367213","0.0-9.0-0.0-1.18","null","<span class='add_' style='color:yellow; font-size: 70px;'> 太慢! </span>","null","","","","","","","","","","","","","","","","","","","","","","","feedback_test"
"","","","","","psychophysics","148","369363","0.0-9.0-0.0-0.19","999","","j","","","","","","","","","","","","","key","j","16.65942187499968","640","300.3333333333333","j","true","img/T_ambi40.png","好人","prac_word_first",""
"","","","","","html-keyboard-response","149","369673","0.0-9.0-0.0-1.19","null","<span style='color:GreenYellow; font-size: 70px;'>正确! </span>","null","","","","","","","","","","","","","","","","","","","","","","","feedback_test"
"","","","","","psychophysics","150","371673","0.0-9.0-0.0-0.20","848","","f","","","","","","","","","","","","","key","f","16.65826890756329","640","300.3333333333333","f","true","img/S_ambi40.png","好人","prac_word_first",""
"","","","","","html-keyboard-response","151","371977","0.0-9.0-0.0-1.20","null","<span style='color:GreenYellow; font-size: 70px;'>正确! </span>","null","","","","","","","","","","","","","","","","","","","","","","","feedback_test"
"","","","","","psychophysics","152","374061","0.0-9.0-0.0-0.21","932","","f","","","","","","","","","","","","","key","f","16.661612903226107","640","300.3333333333333","j","false","img/S_ambi40.png","常人","prac_word_first",""
"","","","","","html-keyboard-response","153","374369","0.0-9.0-0.0-1.21","null","<span style='color:red; font-size: 70px;'>错误! </span>","null","","","","","","","","","","","","","","","","","","","","","","","feedback_test"
"","","","","","psychophysics","154","376435","0.0-9.0-0.0-0.22","906","","f","","","","","","","","","","","","","key","f","16.659739837398263","640","300.3333333333333","f","true","img/T_ambi40.png","坏人","prac_word_first",""
"","","","","","html-keyboard-response","155","376745","0.0-9.0-0.0-1.22","null","<span style='color:GreenYellow; font-size: 70px;'>正确! </span>","null","","","","","","","","","","","","","","","","","","","","","","","feedback_test"
"","","","","","psychophysics","156","379324","0.0-9.0-0.0-0.23","1427","","j","","","","","","","","","","","","","key","j","16.66204575163364","640","300.3333333333333","j","true","img/C_ambi40.png","坏人","prac_word_first",""
"","","","","","html-keyboard-response","157","379638","0.0-9.0-0.0-1.23","null","<span style='color:GreenYellow; font-size: 70px;'>正确! </span>","null","","","","","","","","","","","","","","","","","","","","","","","feedback_test"
"","","","","","html-keyboard-response","158","382596","0.0-10.0","2953","<style>.context{color:white; font-size: 35px; line-height:40px}</style>                              <div><p class='context'>您正确回答了88% 的试次。</p><p class='context'>您的平均反应时为984毫秒。</p><p class='context'>恭喜您完成练习。按任意键进入<span style='color: yellow;'>图形和文字同时呈现条件</span>的练习。</p></div>"," ","","","","","","","","","","","","","","","","","","","","","","",""
"","","","","","psychophysics","159","384619","0.0-11.0-0.0-0.0","1018","","f","","","","","","","","","","","","","key","f","16.656741666666253","640","300.3333333333333","f","true","img/C_ambi40.png","好人","prac_simultaneous",""
"","","","","","html-keyboard-response","160","384922","0.0-11.0-0.0-1.0","null","<span style='color:GreenYellow; font-size: 70px;'>正确! </span>","null","","","","","","","","","","","","","","","","","","","","","","","feedback_test"
"","","","","","psychophysics","161","386911","0.0-11.0-0.0-0.1","982","","f","","","","","","","","","","","","","key","f","16.659466101695248","640","300.3333333333333","f","true","img/S_ambi40.png","坏人","prac_simultaneous",""
"","","","","","html-keyboard-response","162","387228","0.0-11.0-0.0-1.1","null","<span style='color:GreenYellow; font-size: 70px;'>正确! </span>","null","","","","","","","","","","","","","","","","","","","","","","","feedback_test"
"","","","","","psychophysics","163","389116","0.0-11.0-0.0-0.2","875","","f","","","","","","","","","","","","","key","f","16.660792792792776","640","300.3333333333333","f","true","img/C_ambi40.png","常人","prac_simultaneous",""
"","","","","","html-keyboard-response","164","389431","0.0-11.0-0.0-1.2","null","<span style='color:GreenYellow; font-size: 70px;'>正确! </span>","null","","","","","","","","","","","","","","","","","","","","","","","feedback_test"
"","","","","","psychophysics","165","391080","0.0-11.0-0.0-0.3","644","","j","","","","","","","","","","","","","key","j","16.65970408163219","640","300.3333333333333","f","false","img/S_ambi40.png","好人","prac_simultaneous",""
"","","","","","html-keyboard-response","166","391384","0.0-11.0-0.0-1.3","null","<span style='color:red; font-size: 70px;'>错误! </span>","null","","","","","","","","","","","","","","","","","","","","","","","feedback_test"
"","","","","","psychophysics","167","393276","0.0-11.0-0.0-0.4","890","","j","","","","","","","","","","","","","key","j","16.659840707964392","640","300.3333333333333","j","true","img/T_ambi40.png","好人","prac_simultaneous",""
"","","","","","html-keyboard-response","168","393588","0.0-11.0-0.0-1.4","null","<span style='color:GreenYellow; font-size: 70px;'>正确! </span>","null","","","","","","","","","","","","","","","","","","","","","","","feedback_test"
"","","","","","psychophysics","169","396096","0.0-11.0-0.0-0.5","null","","null","","","","","","","","","","","","","key","null","16.6593154362413","640","300.3333333333333","j","false","img/C_ambi40.png","坏人","prac_simultaneous",""
"","","","","","html-keyboard-response","170","396410","0.0-11.0-0.0-1.5","null","<span class='add_' style='color:yellow; font-size: 70px;'> 太慢! </span>","null","","","","","","","","","","","","","","","","","","","","","","","feedback_test"
"","","","","","psychophysics","171","398198","0.0-11.0-0.0-0.6","786","","j","","","","","","","","","","","","","key","j","16.661452830188693","640","300.3333333333333","j","true","img/S_ambi40.png","常人","prac_simultaneous",""
"","","","","","html-keyboard-response","172","398506","0.0-11.0-0.0-1.6","null","<span style='color:GreenYellow; font-size: 70px;'>正确! </span>","null","","","","","","","","","","","","","","","","","","","","","","","feedback_test"
"","","","","","psychophysics","173","400275","0.0-11.0-0.0-0.7","765","","j","","","","","","","","","","","","","key","j","16.66048571428539","640","300.3333333333333","j","true","img/T_ambi40.png","好人","prac_simultaneous",""
"","","","","","html-keyboard-response","174","400580","0.0-11.0-0.0-1.7","null","<span style='color:GreenYellow; font-size: 70px;'>正确! </span>","null","","","","","","","","","","","","","","","","","","","","","","","feedback_test"
"","","","","","psychophysics","175","402529","0.0-11.0-0.0-0.8","944","","f","","","","","","","","","","","","","key","f","16.660862068965297","640","300.3333333333333","f","true","img/T_ambi40.png","常人","prac_simultaneous",""
"","","","","","html-keyboard-response","176","402835","0.0-11.0-0.0-1.8","null","<span style='color:GreenYellow; font-size: 70px;'>正确! </span>","null","","","","","","","","","","","","","","","","","","","","","","","feedback_test"
"","","","","","psychophysics","177","404629","0.0-11.0-0.0-0.9","793","","f","","","","","","","","","","","","","key","f","16.65700943396209","640","300.3333333333333","j","false","img/C_ambi40.png","坏人","prac_simultaneous",""
"","","","","","html-keyboard-response","178","404945","0.0-11.0-0.0-1.9","null","<span style='color:red; font-size: 70px;'>错误! </span>","null","","","","","","","","","","","","","","","","","","","","","","","feedback_test"
"","","","","","psychophysics","179","406939","0.0-11.0-0.0-0.10","992","","j","","","","","","","","","","","","","key","j","16.65981512605027","640","300.3333333333333","j","true","img/S_ambi40.png","常人","prac_simultaneous",""
"","","","","","html-keyboard-response","180","407255","0.0-11.0-0.0-1.10","null","<span style='color:GreenYellow; font-size: 70px;'>正确! </span>","null","","","","","","","","","","","","","","","","","","","","","","","feedback_test"
"","","","","","psychophysics","181","409620","0.0-11.0-0.0-0.11","1361","","f","","","","","","","","","","","","","key","f","16.65695035460955","640","300.3333333333333","f","true","img/T_ambi40.png","坏人","prac_simultaneous",""
"","","","","","html-keyboard-response","182","409936","0.0-11.0-0.0-1.11","null","<span style='color:GreenYellow; font-size: 70px;'>正确! </span>","null","","","","","","","","","","","","","","","","","","","","","","","feedback_test"
"","","","","","psychophysics","183","411688","0.0-11.0-0.0-0.12","749","","f","","","","","","","","","","","","","key","f","16.657999999999728","640","300.3333333333333","f","true","img/C_ambi40.png","常人","prac_simultaneous",""
"","","","","","html-keyboard-response","184","412001","0.0-11.0-0.0-1.12","null","<span style='color:GreenYellow; font-size: 70px;'>正确! </span>","null","","","","","","","","","","","","","","","","","","","","","","","feedback_test"
"","","","","","psychophysics","185","413737","0.0-11.0-0.0-0.13","733","","j","","","","","","","","","","","","","key","j","16.655660194174718","640","300.3333333333333","f","false","img/S_ambi40.png","好人","prac_simultaneous",""
"","","","","","html-keyboard-response","186","414047","0.0-11.0-0.0-1.13","null","<span style='color:red; font-size: 70px;'>错误! </span>","null","","","","","","","","","","","","","","","","","","","","","","","feedback_test"
"","","","","","psychophysics","187","416117","0.0-11.0-0.0-0.14","1068","","f","","","","","","","","","","","","","key","f","16.658532786885367","640","300.3333333333333","j","false","img/C_ambi40.png","坏人","prac_simultaneous",""
"","","","","","html-keyboard-response","188","416436","0.0-11.0-0.0-1.14","null","<span style='color:red; font-size: 70px;'>错误! </span>","null","","","","","","","","","","","","","","","","","","","","","","","feedback_test"
"","","","","","psychophysics","189","418274","0.0-11.0-0.0-0.15","835","","f","","","","","","","","","","","","","key","f","16.6590366972479","640","300.3333333333333","f","true","img/C_ambi40.png","好人","prac_simultaneous",""
"","","","","","html-keyboard-response","190","418592","0.0-11.0-0.0-1.15","null","<span style='color:GreenYellow; font-size: 70px;'>正确! </span>","null","","","","","","","","","","","","","","","","","","","","","","","feedback_test"
"","","","","","psychophysics","191","420698","0.0-11.0-0.0-0.16","1104","","f","","","","","","","","","","","","","key","f","16.658240000000223","640","300.3333333333333","j","false","img/C_ambi40.png","坏人","prac_simultaneous",""
"","","","","","html-keyboard-response","192","421016","0.0-11.0-0.0-1.16","null","<span style='color:red; font-size: 70px;'>错误! </span>","null","","","","","","","","","","","","","","","","","","","","","","","feedback_test"
"","","","","","psychophysics","193","423283","0.0-11.0-0.0-0.17","1264","","j","","","","","","","","","","","","","key","j","16.660925925926186","640","300.3333333333333","f","false","img/T_ambi40.png","常人","prac_simultaneous",""
"","","","","","html-keyboard-response","194","423585","0.0-11.0-0.0-1.17","null","<span style='color:red; font-size: 70px;'>错误! </span>","null","","","","","","","","","","","","","","","","","","","","","","","feedback_test"
"","","","","","psychophysics","195","425786","0.0-11.0-0.0-0.18","1199","","f","","","","","","","","","","","","","key","f","16.660977099236558","640","300.3333333333333","f","true","img/T_ambi40.png","坏人","prac_simultaneous",""
"","","","","","html-keyboard-response","196","426098","0.0-11.0-0.0-1.18","null","<span style='color:GreenYellow; font-size: 70px;'>正确! </span>","null","","","","","","","","","","","","","","","","","","","","","","","feedback_test"
"","","","","","psychophysics","197","428225","0.0-11.0-0.0-0.19","1123","","f","","","","","","","","","","","","","key","f","16.659007936507734","640","300.3333333333333","f","true","img/S_ambi40.png","坏人","prac_simultaneous",""
"","","","","","html-keyboard-response","198","428541","0.0-11.0-0.0-1.19","null","<span style='color:GreenYellow; font-size: 70px;'>正确! </span>","null","","","","","","","","","","","","","","","","","","","","","","","feedback_test"
"","","","","","psychophysics","199","430449","0.0-11.0-0.0-0.20","906","","j","","","","","","","","","","","","","key","j","16.660176991150237","640","300.3333333333333","j","true","img/S_ambi40.png","常人","prac_simultaneous",""
"","","","","","html-keyboard-response","200","430759","0.0-11.0-0.0-1.20","null","<span style='color:GreenYellow; font-size: 70px;'>正确! </span>","null","","","","","","","","","","","","","","","","","","","","","","","feedback_test"
"","","","","","psychophysics","201","432453","0.0-11.0-0.0-0.21","690","","j","","","","","","","","","","","","","key","j","16.661080000000073","640","300.3333333333333","j","true","img/S_ambi40.png","常人","prac_simultaneous",""
"","","","","","html-keyboard-response","202","432770","0.0-11.0-0.0-1.21","null","<span style='color:GreenYellow; font-size: 70px;'>正确! </span>","null","","","","","","","","","","","","","","","","","","","","","","","feedback_test"
"","","","","","psychophysics","203","434566","0.0-11.0-0.0-0.22","789","","j","","","","","","","","","","","","","key","j","16.657075471698334","640","300.3333333333333","j","true","img/T_ambi40.png","好人","prac_simultaneous",""
"","","","","","html-keyboard-response","204","434880","0.0-11.0-0.0-1.22","null","<span style='color:GreenYellow; font-size: 70px;'>正确! </span>","null","","","","","","","","","","","","","","","","","","","","","","","feedback_test"
"","","","","","psychophysics","205","436558","0.0-11.0-0.0-0.23","675","","j","","","","","","","","","","","","","key","j","16.659679999999934","640","300.3333333333333","j","true","img/T_ambi40.png","好人","prac_simultaneous",""
"","","","","","html-keyboard-response","206","436874","0.0-11.0-0.0-1.23","null","<span style='color:GreenYellow; font-size: 70px;'>正确! </span>","null","","","","","","","","","","","","","","","","","","","","","","","feedback_test"
"","","","","","html-keyboard-response","207","440388","0.0-12.0","3512","<style>.context{color:white; font-size: 35px; line-height:40px}</style>                              <div><p class='context'>您正确回答了71% 的试次。</p><p class='context'>您的平均反应时为916毫秒。</p><p class='context'>恭喜您完成练习。按任意键进入正式实验。</p><p class='footer' style='font-size: 35px; line-height:40px;'>请在进入正式实验实验之前将您的<span style='color: lightgreen;'>食指</span>放在电脑键盘的相应键位上进行按键。</p>"," ","","","","","","","","","","","","","","","","","","","","","","",""
"","","","","","html-keyboard-response","208","442377","0.0-13.0-2.0-0.0","1983","
      <p>请您将手指放在按键上，准备进入呈现顺序为<span style='color: yellow;'>图形和文字同时呈现条件</span>的正式匹配任务</p>
      <p> <div style = ""color: green""><按任意键进入下一阶段的匹配任务></div></p>
      "," ","","","","","","","","","","","","","","","","","","","","","","",""
"","","","","","psychophysics","209","444246","0.0-13.0-2.0-1.0-0.0-0.0","864","","f","","","","","","","","","","","","","key","f","16.659054054053783","640","300.3333333333333","f","true","img/C_ambi40.png","常人","simultaneous",""
"","","","","","html-keyboard-response","210","444570","0.0-13.0-2.0-1.0-0.0-1.0","null","<span style='color:GreenYellow; font-size: 70px;'>正确! </span>","null","","","","","","","","","","","","","","","","","","","","","","","feedback_test"
"","","","","","psychophysics","211","446554","0.0-13.0-2.0-1.0-0.0-0.1","981","","j","","","","","","","","","","","","","key","j","16.658279661016667","640","300.3333333333333","j","true","img/S_ambi40.png","常人","simultaneous",""
"","","","","","html-keyboard-response","212","446862","0.0-13.0-2.0-1.0-0.0-1.1","null","<span style='color:GreenYellow; font-size: 70px;'>正确! </span>","null","","","","","","","","","","","","","","","","","","","","","","","feedback_test"
"","","","","","psychophysics","213","448722","0.0-13.0-2.0-1.0-0.0-0.2","855","","f","","","","","","","","","","","","","key","f","16.662245454545534","640","300.3333333333333","f","true","img/S_ambi40.png","坏人","simultaneous",""
"","","","","","html-keyboard-response","214","449038","0.0-13.0-2.0-1.0-0.0-1.2","null","<span style='color:GreenYellow; font-size: 70px;'>正确! </span>","null","","","","","","","","","","","","","","","","","","","","","","","feedback_test"
"","","","","","psychophysics","215","451379","0.0-13.0-2.0-1.0-0.0-0.3","1322","","f","","","","","","","","","","","","","key","f","16.659726618704966","640","300.3333333333333","f","true","img/C_ambi40.png","好人","simultaneous",""
"","","","","","html-keyboard-response","216","451699","0.0-13.0-2.0-1.0-0.0-1.3","null","<span style='color:GreenYellow; font-size: 70px;'>正确! </span>","null","","","","","","","","","","","","","","","","","","","","","","","feedback_test"
"","","","","","psychophysics","217","454013","0.0-13.0-2.0-1.0-0.0-0.4","1308","","j","","","","","","","","","","","","","key","j","16.659173913043166","640","300.3333333333333","j","true","img/T_ambi40.png","好人","simultaneous",""
"","","","","","html-keyboard-response","218","454325","0.0-13.0-2.0-1.0-0.0-1.4","null","<span style='color:GreenYellow; font-size: 70px;'>正确! </span>","null","","","","","","","","","","","","","","","","","","","","","","","feedback_test"
"","","","","","psychophysics","219","456216","0.0-13.0-2.0-1.0-0.0-0.5","889","","f","","","","","","","","","","","","","key","f","16.658794642856915","640","300.3333333333333","f","true","img/T_ambi40.png","常人","simultaneous",""
"","","","","","html-keyboard-response","220","456523","0.0-13.0-2.0-1.0-0.0-1.5","null","<span style='color:GreenYellow; font-size: 70px;'>正确! </span>","null","","","","","","","","","","","","","","","","","","","","","","","feedback_test"
"","","","","","psychophysics","221","458720","0.0-13.0-2.0-1.0-0.0-0.6","1194","","f","","","","","","","","","","","","","key","f","16.658892307691993","640","300.3333333333333","j","false","img/T_ambi40.png","好人","simultaneous",""
"","","","","","html-keyboard-response","222","459029","0.0-13.0-2.0-1.0-0.0-1.6","null","<span style='color:red; font-size: 70px;'>错误! </span>","null","","","","","","","","","","","","","","","","","","","","","","","feedback_test"
"","","","","","psychophysics","223","460803","0.0-13.0-2.0-1.0-0.0-0.7","763","","j","","","","","","","","","","","","","key","j","16.65901904761891","640","300.3333333333333","j","true","img/S_ambi40.png","常人","simultaneous",""
"","","","","","html-keyboard-response","224","461115","0.0-13.0-2.0-1.0-0.0-1.7","null","<span style='color:GreenYellow; font-size: 70px;'>正确! </span>","null","","","","","","","","","","","","","","","","","","","","","","","feedback_test"
"","","","","","psychophysics","225","462915","0.0-13.0-2.0-1.0-0.0-0.8","796","","f","","","","","","","","","","","","","key","f","16.657775700934423","640","300.3333333333333","j","false","img/C_ambi40.png","坏人","simultaneous",""
"","","","","","html-keyboard-response","226","463228","0.0-13.0-2.0-1.0-0.0-1.8","null","<span style='color:red; font-size: 70px;'>错误! </span>","null","","","","","","","","","","","","","","","","","","","","","","","feedback_test"
"","","","","","psychophysics","227","465130","0.0-13.0-2.0-1.0-0.0-0.9","898","","j","","","","","","","","","","","","","key","j","16.65904424778769","640","300.3333333333333","f","false","img/S_ambi40.png","好人","simultaneous",""
"","","","","","html-keyboard-response","228","465443","0.0-13.0-2.0-1.0-0.0-1.9","null","<span style='color:red; font-size: 70px;'>错误! </span>","null","","","","","","","","","","","","","","","","","","","","","","","feedback_test"
"","","","","","psychophysics","229","467242","0.0-13.0-2.0-1.0-0.0-0.10","795","","f","","","","","","","","","","","","","key","f","16.658009433962366","640","300.3333333333333","f","true","img/T_ambi40.png","坏人","simultaneous",""
"","","","","","html-keyboard-response","230","467547","0.0-13.0-2.0-1.0-0.0-1.10","null","<span style='color:GreenYellow; font-size: 70px;'>正确! </span>","null","","","","","","","","","","","","","","","","","","","","","","","feedback_test"
"","","","","","psychophysics","231","469483","0.0-13.0-2.0-1.0-0.0-0.11","931","","f","","","","","","","","","","","","","key","f","16.6600956521736","640","300.3333333333333","j","false","img/C_ambi40.png","坏人","simultaneous",""
"","","","","","html-keyboard-response","232","469786","0.0-13.0-2.0-1.0-0.0-1.11","null","<span style='color:red; font-size: 70px;'>错误! </span>","null","","","","","","","","","","","","","","","","","","","","","","","feedback_test"
"","","","","","psychophysics","233","471581","0.0-13.0-2.0-1.0-0.0-0.12","790","","j","","","","","","","","","","","","","key","j","16.65968867924552","640","300.3333333333333","j","true","img/T_ambi40.png","好人","simultaneous",""
"","","","","","html-keyboard-response","234","471896","0.0-13.0-2.0-1.0-0.0-1.12","null","<span style='color:GreenYellow; font-size: 70px;'>正确! </span>","null","","","","","","","","","","","","","","","","","","","","","","","feedback_test"
"","","","","","psychophysics","235","473797","0.0-13.0-2.0-1.0-0.0-0.13","899","","f","","","","","","","","","","","","","key","f","16.662539823009094","640","300.3333333333333","f","true","img/C_ambi40.png","常人","simultaneous",""
"","","","","","html-keyboard-response","236","474102","0.0-13.0-2.0-1.0-0.0-1.13","null","<span style='color:GreenYellow; font-size: 70px;'>正确! </span>","null","","","","","","","","","","","","","","","","","","","","","","","feedback_test"
"","","","","","psychophysics","237","476024","0.0-13.0-2.0-1.0-0.0-0.14","913","","f","","","","","","","","","","","","","key","f","16.655140350877588","640","300.3333333333333","f","true","img/S_ambi40.png","好人","simultaneous",""
"","","","","","html-keyboard-response","238","476341","0.0-13.0-2.0-1.0-0.0-1.14","null","<span style='color:GreenYellow; font-size: 70px;'>正确! </span>","null","","","","","","","","","","","","","","","","","","","","","","","feedback_test"
"","","","","","psychophysics","239","478407","0.0-13.0-2.0-1.0-0.0-0.15","1060","","f","","","","","","","","","","","","","key","f","16.65982113821135","640","300.3333333333333","f","true","img/T_ambi40.png","常人","simultaneous",""
"","","","","","html-keyboard-response","240","478714","0.0-13.0-2.0-1.0-0.0-1.15","null","<span style='color:GreenYellow; font-size: 70px;'>正确! </span>","null","","","","","","","","","","","","","","","","","","","","","","","feedback_test"
"","","","","","psychophysics","241","480518","0.0-13.0-2.0-1.0-0.0-0.16","798","","j","","","","","","","","","","","","","key","j","16.657867924528272","640","300.3333333333333","j","true","img/S_ambi40.png","常人","simultaneous",""
"","","","","","html-keyboard-response","242","480826","0.0-13.0-2.0-1.0-0.0-1.16","null","<span style='color:GreenYellow; font-size: 70px;'>正确! </span>","null","","","","","","","","","","","","","","","","","","","","","","","feedback_test"
"","","","","","psychophysics","243","482594","0.0-13.0-2.0-1.0-0.0-0.17","765","","f","","","","","","","","","","","","","key","f","16.66088571428554","640","300.3333333333333","f","true","img/C_ambi40.png","好人","simultaneous",""
"","","","","","html-keyboard-response","244","482905","0.0-13.0-2.0-1.0-0.0-1.17","null","<span style='color:GreenYellow; font-size: 70px;'>正确! </span>","null","","","","","","","","","","","","","","","","","","","","","","","feedback_test"
"","","","","","psychophysics","245","484726","0.0-13.0-2.0-1.0-0.0-0.18","817","","j","","","","","","","","","","","","","key","j","16.661425925926004","640","300.3333333333333","j","true","img/S_ambi40.png","常人","simultaneous",""
"","","","","","html-keyboard-response","246","485031","0.0-13.0-2.0-1.0-0.0-1.18","null","<span style='color:GreenYellow; font-size: 70px;'>正确! </span>","null","","","","","","","","","","","","","","","","","","","","","","","feedback_test"
"","","","","","psychophysics","247","487166","0.0-13.0-2.0-1.0-0.0-0.19","1120","","j","","","","","","","","","","","","","key","j","16.65944444444465","640","300.3333333333333","f","false","img/T_ambi40.png","坏人","simultaneous",""
"","","","","","html-keyboard-response","248","487487","0.0-13.0-2.0-1.0-0.0-1.19","null","<span style='color:red; font-size: 70px;'>错误! </span>","null","","","","","","","","","","","","","","","","","","","","","","","feedback_test"
"","","","","","psychophysics","249","489990","0.0-13.0-2.0-1.0-0.0-0.20","null","","null","","","","","","","","","","","","","key","null","16.65996644295316","640","300.3333333333333","f","false","img/S_ambi40.png","坏人","simultaneous",""
"","","","","","html-keyboard-response","250","490304","0.0-13.0-2.0-1.0-0.0-1.20","null","<span class='add_' style='color:yellow; font-size: 70px;'> 太慢! </span>","null","","","","","","","","","","","","","","","","","","","","","","","feedback_test"
"","","","","","psychophysics","251","491987","0.0-13.0-2.0-1.0-0.0-0.21","670","","j","","","","","","","","","","","","","key","j","16.65941999999981","640","300.3333333333333","j","true","img/T_ambi40.png","好人","simultaneous",""
"","","","","","html-keyboard-response","252","492301","0.0-13.0-2.0-1.0-0.0-1.21","null","<span style='color:GreenYellow; font-size: 70px;'>正确! </span>","null","","","","","","","","","","","","","","","","","","","","","","","feedback_test"
"","","","","","psychophysics","253","494602","0.0-13.0-2.0-1.0-0.0-0.22","1296","","j","","","","","","","","","","","","","key","j","16.659014598539958","640","300.3333333333333","j","true","img/C_ambi40.png","坏人","simultaneous",""
"","","","","","html-keyboard-response","254","494914","0.0-13.0-2.0-1.0-0.0-1.22","null","<span style='color:GreenYellow; font-size: 70px;'>正确! </span>","null","","","","","","","","","","","","","","","","","","","","","","","feedback_test"
"","","","","","psychophysics","255","496572","0.0-13.0-2.0-1.0-0.0-0.23","655","","f","","","","","","","","","","","","","key","f","16.659265306122524","640","300.3333333333333","j","false","img/C_ambi40.png","坏人","simultaneous",""
"","","","","","html-keyboard-response","256","496881","0.0-13.0-2.0-1.0-0.0-1.23","null","<span style='color:red; font-size: 70px;'>错误! </span>","null","","","","","","","","","","","","","","","","","","","","","","","feedback_test"
"","","","","","psychophysics","257","499268","0.0-13.0-2.0-1.0-0.0-0.24","1384","","j","","","","","","","","","","","","","key","j","16.656401408450517","640","300.3333333333333","j","true","img/T_ambi40.png","好人","simultaneous",""
"","","","","","html-keyboard-response","258","499573","0.0-13.0-2.0-1.0-0.0-1.24","null","<span style='color:GreenYellow; font-size: 70px;'>正确! </span>","null","","","","","","","","","","","","","","","","","","","","","","","feedback_test"
"","","","","","psychophysics","259","501529","0.0-13.0-2.0-1.0-0.0-0.25","950","","f","","","","","","","","","","","","","key","f","16.65874999999982","640","300.3333333333333","f","true","img/C_ambi40.png","好人","simultaneous",""
"","","","","","html-keyboard-response","260","501838","0.0-13.0-2.0-1.0-0.0-1.25","null","<span style='color:GreenYellow; font-size: 70px;'>正确! </span>","null","","","","","","","","","","","","","","","","","","","","","","","feedback_test"
"","","","","","psychophysics","261","503659","0.0-13.0-2.0-1.0-0.0-0.26","819","","j","","","","","","","","","","","","","key","j","16.660915887850408","640","300.3333333333333","j","true","img/S_ambi40.png","常人","simultaneous",""
"","","","","","html-keyboard-response","262","503977","0.0-13.0-2.0-1.0-0.0-1.26","null","<span style='color:GreenYellow; font-size: 70px;'>正确! </span>","null","","","","","","","","","","","","","","","","","","","","","","","feedback_test"
"","","","","","psychophysics","263","505838","0.0-13.0-2.0-1.0-0.0-0.27","858","","f","","","","","","","","","","","","","key","f","16.66117117117077","640","300.3333333333333","f","true","img/T_ambi40.png","坏人","simultaneous",""
"","","","","","html-keyboard-response","264","506141","0.0-13.0-2.0-1.0-0.0-1.27","null","<span style='color:GreenYellow; font-size: 70px;'>正确! </span>","null","","","","","","","","","","","","","","","","","","","","","","","feedback_test"
"","","","","","psychophysics","265","508160","0.0-13.0-2.0-1.0-0.0-0.28","1017","","f","","","","","","","","","","","","","key","f","16.659350000000266","640","300.3333333333333","f","true","img/S_ambi40.png","好人","simultaneous",""
"","","","","","html-keyboard-response","266","508473","0.0-13.0-2.0-1.0-0.0-1.28","null","<span style='color:GreenYellow; font-size: 70px;'>正确! </span>","null","","","","","","","","","","","","","","","","","","","","","","","feedback_test"
"","","","","","psychophysics","267","510376","0.0-13.0-2.0-1.0-0.0-0.29","900","","j","","","","","","","","","","","","","key","j","16.659522123893918","640","300.3333333333333","j","true","img/S_ambi40.png","常人","simultaneous",""
"","","","","","html-keyboard-response","268","510696","0.0-13.0-2.0-1.0-0.0-1.29","null","<span style='color:GreenYellow; font-size: 70px;'>正确! </span>","null","","","","","","","","","","","","","","","","","","","","","","","feedback_test"
"","","","","","psychophysics","269","512794","0.0-13.0-2.0-1.0-0.0-0.30","1095","","j","","","","","","","","","","","","","key","j","16.66055200000014","640","300.3333333333333","j","true","img/T_ambi40.png","好人","simultaneous",""
"","","","","","html-keyboard-response","270","513101","0.0-13.0-2.0-1.0-0.0-1.30","null","<span style='color:GreenYellow; font-size: 70px;'>正确! </span>","null","","","","","","","","","","","","","","","","","","","","","","","feedback_test"
"","","","","","psychophysics","271","515372","0.0-13.0-2.0-1.0-0.0-0.31","1262","","f","","","","","","","","","","","","","key","f","16.6558134328355","640","300.3333333333333","j","false","img/C_ambi40.png","坏人","simultaneous",""
"","","","","","html-keyboard-response","272","515681","0.0-13.0-2.0-1.0-0.0-1.31","null","<span style='color:red; font-size: 70px;'>错误! </span>","null","","","","","","","","","","","","","","","","","","","","","","","feedback_test"
"","","","","","psychophysics","273","517793","0.0-13.0-2.0-1.0-0.0-0.32","1111","","j","","","","","","","","","","","","","key","j","16.66128000000026","640","300.3333333333333","j","true","img/C_ambi40.png","坏人","simultaneous",""
"","","","","","html-keyboard-response","274","518104","0.0-13.0-2.0-1.0-0.0-1.32","null","<span style='color:GreenYellow; font-size: 70px;'>正确! </span>","null","","","","","","","","","","","","","","","","","","","","","","","feedback_test"
"","","","","","psychophysics","275","519924","0.0-13.0-2.0-1.0-0.0-0.33","812","","f","","","","","","","","","","","","","key","f","16.658740740740473","640","300.3333333333333","f","true","img/S_ambi40.png","坏人","simultaneous",""
"","","","","","html-keyboard-response","276","520228","0.0-13.0-2.0-1.0-0.0-1.33","null","<span style='color:GreenYellow; font-size: 70px;'>正确! </span>","null","","","","","","","","","","","","","","","","","","","","","","","feedback_test"
"","","","","","psychophysics","277","522193","0.0-13.0-2.0-1.0-0.0-0.34","963","","f","","","","","","","","","","","","","key","f","16.660801724137354","640","300.3333333333333","f","true","img/T_ambi40.png","常人","simultaneous",""
"","","","","","html-keyboard-response","278","522507","0.0-13.0-2.0-1.0-0.0-1.34","null","<span style='color:GreenYellow; font-size: 70px;'>正确! </span>","null","","","","","","","","","","","","","","","","","","","","","","","feedback_test"
"","","","","","psychophysics","279","524324","0.0-13.0-2.0-1.0-0.0-0.35","813","","f","","","","","","","","","","","","","key","f","16.66141666666738","640","300.3333333333333","f","true","img/C_ambi40.png","常人","simultaneous",""
"","","","","","html-keyboard-response","280","524630","0.0-13.0-2.0-1.0-0.0-1.35","null","<span style='color:GreenYellow; font-size: 70px;'>正确! </span>","null","","","","","","","","","","","","","","","","","","","","","","","feedback_test"
"","","","","","psychophysics","281","526576","0.0-13.0-2.0-1.0-0.0-0.36","938","","f","","","","","","","","","","","","","key","f","16.659843478260722","640","300.3333333333333","f","true","img/T_ambi40.png","坏人","simultaneous",""
"","","","","","html-keyboard-response","282","526884","0.0-13.0-2.0-1.0-0.0-1.36","null","<span style='color:GreenYellow; font-size: 70px;'>正确! </span>","null","","","","","","","","","","","","","","","","","","","","","","","feedback_test"
"","","","","","psychophysics","283","528721","0.0-13.0-2.0-1.0-0.0-0.37","836","","f","","","","","","","","","","","","","key","f","16.658844036697367","640","300.3333333333333","f","true","img/C_ambi40.png","常人","simultaneous",""
"","","","","","html-keyboard-response","284","529030","0.0-13.0-2.0-1.0-0.0-1.37","null","<span style='color:GreenYellow; font-size: 70px;'>正确! </span>","null","","","","","","","","","","","","","","","","","","","","","","","feedback_test"
"","","","","","psychophysics","285","530955","0.0-13.0-2.0-1.0-0.0-0.38","920","","j","","","","","","","","","","","","","key","j","16.6592982456133","640","300.3333333333333","j","true","img/T_ambi40.png","好人","simultaneous",""
"","","","","","html-keyboard-response","286","531273","0.0-13.0-2.0-1.0-0.0-1.38","null","<span style='color:GreenYellow; font-size: 70px;'>正确! </span>","null","","","","","","","","","","","","","","","","","","","","","","","feedback_test"
"","","","","","psychophysics","287","533196","0.0-13.0-2.0-1.0-0.0-0.39","922","","f","","","","","","","","","","","","","key","f","16.5367456140352","640","300.3333333333333","j","false","img/C_ambi40.png","坏人","simultaneous",""
"","","","","","html-keyboard-response","288","533513","0.0-13.0-2.0-1.0-0.0-1.39","null","<span style='color:red; font-size: 70px;'>错误! </span>","null","","","","","","","","","","","","","","","","","","","","","","","feedback_test"
"","","","","","psychophysics","289","535414","0.0-13.0-2.0-1.0-0.0-0.40","895","","f","","","","","","","","","","","","","key","f","16.65704424778799","640","300.3333333333333","f","true","img/C_ambi40.png","好人","simultaneous",""
"","","","","","html-keyboard-response","290","535719","0.0-13.0-2.0-1.0-0.0-1.40","null","<span style='color:GreenYellow; font-size: 70px;'>正确! </span>","null","","","","","","","","","","","","","","","","","","","","","","","feedback_test"
"","","","","","psychophysics","291","537546","0.0-13.0-2.0-1.0-0.0-0.41","826","","f","","","","","","","","","","","","","key","f","16.659385321101112","640","300.3333333333333","f","true","img/T_ambi40.png","常人","simultaneous",""
"","","","","","html-keyboard-response","292","537856","0.0-13.0-2.0-1.0-0.0-1.41","null","<span style='color:GreenYellow; font-size: 70px;'>正确! </span>","null","","","","","","","","","","","","","","","","","","","","","","","feedback_test"
"","","","","","psychophysics","293","539943","0.0-13.0-2.0-1.0-0.0-0.42","1084","","j","","","","","","","","","","","","","key","j","16.657137096774083","640","300.3333333333333","j","true","img/T_ambi40.png","好人","simultaneous",""
"","","","","","html-keyboard-response","294","540254","0.0-13.0-2.0-1.0-0.0-1.42","null","<span style='color:GreenYellow; font-size: 70px;'>正确! </span>","null","","","","","","","","","","","","","","","","","","","","","","","feedback_test"
"","","","","","psychophysics","295","542175","0.0-13.0-2.0-1.0-0.0-0.43","918","","f","","","","","","","","","","","","","key","f","16.658157894737087","640","300.3333333333333","j","false","img/C_ambi40.png","坏人","simultaneous",""
"","","","","","html-keyboard-response","296","542488","0.0-13.0-2.0-1.0-0.0-1.43","null","<span style='color:red; font-size: 70px;'>错误! </span>","null","","","","","","","","","","","","","","","","","","","","","","","feedback_test"
"","","","","","psychophysics","297","544611","0.0-13.0-2.0-1.0-0.0-0.44","1120","","f","","","","","","","","","","","","","key","f","16.657365079365842","640","300.3333333333333","f","true","img/S_ambi40.png","好人","simultaneous",""
"","","","","","html-keyboard-response","298","544914","0.0-13.0-2.0-1.0-0.0-1.44","null","<span style='color:GreenYellow; font-size: 70px;'>正确! </span>","null","","","","","","","","","","","","","","","","","","","","","","","feedback_test"
"","","","","","psychophysics","299","546809","0.0-13.0-2.0-1.0-0.0-0.45","882","","j","","","","","","","","","","","","","key","j","16.65962831858459","640","300.3333333333333","j","true","img/S_ambi40.png","常人","simultaneous",""
"","","","","","html-keyboard-response","300","547116","0.0-13.0-2.0-1.0-0.0-1.45","null","<span style='color:GreenYellow; font-size: 70px;'>正确! </span>","null","","","","","","","","","","","","","","","","","","","","","","","feedback_test"
"","","","","","psychophysics","301","549329","0.0-13.0-2.0-1.0-0.0-0.46","1205","","f","","","","","","","","","","","","","key","f","16.660625954198593","640","300.3333333333333","f","true","img/S_ambi40.png","坏人","simultaneous",""
"","","","","","html-keyboard-response","302","549634","0.0-13.0-2.0-1.0-0.0-1.46","null","<span style='color:GreenYellow; font-size: 70px;'>正确! </span>","null","","","","","","","","","","","","","","","","","","","","","","","feedback_test"
"","","","","","psychophysics","303","551824","0.0-13.0-2.0-1.0-0.0-0.47","1188","","j","","","","","","","","","","","","","key","j","16.65747692307744","640","300.3333333333333","j","true","img/S_ambi40.png","常人","simultaneous",""
"","","","","","html-keyboard-response","304","552138","0.0-13.0-2.0-1.0-0.0-1.47","null","<span style='color:GreenYellow; font-size: 70px;'>正确! </span>","null","","","","","","","","","","","","","","","","","","","","","","","feedback_test"
"","","","","","psychophysics","305","554222","0.0-13.0-2.0-1.0-0.0-0.48","1082","","j","","","","","","","","","","","","","key","j","16.65994354838697","640","300.3333333333333","j","true","img/S_ambi40.png","常人","simultaneous",""
"","","","","","html-keyboard-response","306","554524","0.0-13.0-2.0-1.0-0.0-1.48","null","<span style='color:GreenYellow; font-size: 70px;'>正确! </span>","null","","","","","","","","","","","","","","","","","","","","","","","feedback_test"
"","","","","","psychophysics","307","557021","0.0-13.0-2.0-1.0-0.0-0.49","1494","","f","","","","","","","","","","","","","key","f","16.658255033556767","640","300.3333333333333","f","true","img/T_ambi40.png","坏人","simultaneous",""
"","","","","","html-keyboard-response","308","557327","0.0-13.0-2.0-1.0-0.0-1.49","null","<span style='color:GreenYellow; font-size: 70px;'>正确! </span>","null","","","","","","","","","","","","","","","","","","","","","","","feedback_test"
"","","","","","psychophysics","309","559829","0.0-13.0-2.0-1.0-0.0-0.50","null","","null","","","","","","","","","","","","","key","null","16.571530201342643","640","300.3333333333333","j","false","img/C_ambi40.png","坏人","simultaneous",""
"","","","","","html-keyboard-response","310","560138","0.0-13.0-2.0-1.0-0.0-1.50","null","<span class='add_' style='color:yellow; font-size: 70px;'> 太慢! </span>","null","","","","","","","","","","","","","","","","","","","","","","","feedback_test"
"","","","","","psychophysics","311","562189","0.0-13.0-2.0-1.0-0.0-0.51","1050","","f","","","","","","","","","","","","","key","f","16.649959016393787","640","300.3333333333333","f","true","img/C_ambi40.png","常人","simultaneous",""
"","","","","","html-keyboard-response","312","562506","0.0-13.0-2.0-1.0-0.0-1.51","null","<span style='color:GreenYellow; font-size: 70px;'>正确! </span>","null","","","","","","","","","","","","","","","","","","","","","","","feedback_test"
"","","","","","psychophysics","313","564712","0.0-13.0-2.0-1.0-0.0-0.52","1202","","f","","","","","","","","","","","","","key","f","16.660229007633518","640","300.3333333333333","j","false","img/T_ambi40.png","好人","simultaneous",""
"","","","","","html-keyboard-response","314","565021","0.0-13.0-2.0-1.0-0.0-1.52","null","<span style='color:red; font-size: 70px;'>错误! </span>","null","","","","","","","","","","","","","","","","","","","","","","","feedback_test"
"","","","","","psychophysics","315","566836","0.0-13.0-2.0-1.0-0.0-0.53","810","","f","","","","","","","","","","","","","key","f","16.659333333334263","640","300.3333333333333","f","true","img/C_ambi40.png","好人","simultaneous",""
"","","","","","html-keyboard-response","316","567165","0.0-13.0-2.0-1.0-0.0-1.53","null","<span style='color:GreenYellow; font-size: 70px;'>正确! </span>","null","","","","","","","","","","","","","","","","","","","","","","","feedback_test"
"","","","","","psychophysics","317","569121","0.0-13.0-2.0-1.0-0.0-0.54","950","","j","","","","","","","","","","","","","key","j","16.66193103448263","640","300.3333333333333","j","true","img/T_ambi40.png","好人","simultaneous",""
"","","","","","html-keyboard-response","318","569435","0.0-13.0-2.0-1.0-0.0-1.54","null","<span style='color:GreenYellow; font-size: 70px;'>正确! </span>","null","","","","","","","","","","","","","","","","","","","","","","","feedback_test"
"","","","","","psychophysics","319","571249","0.0-13.0-2.0-1.0-0.0-0.55","806","","j","","","","","","","","","","","","","key","j","16.659296296296546","640","300.3333333333333","j","true","img/S_ambi40.png","常人","simultaneous",""
"","","","","","html-keyboard-response","320","571560","0.0-13.0-2.0-1.0-0.0-1.55","null","<span style='color:GreenYellow; font-size: 70px;'>正确! </span>","null","","","","","","","","","","","","","","","","","","","","","","","feedback_test"
"","","","","","psychophysics","321","573828","0.0-13.0-2.0-1.0-0.0-0.56","1261","","f","","","","","","","","","","","","","key","f","16.65834814814799","640","300.3333333333333","j","false","img/C_ambi40.png","坏人","simultaneous",""
"","","","","","html-keyboard-response","322","574138","0.0-13.0-2.0-1.0-0.0-1.56","null","<span style='color:red; font-size: 70px;'>错误! </span>","null","","","","","","","","","","","","","","","","","","","","","","","feedback_test"
"","","","","","psychophysics","323","576113","0.0-13.0-2.0-1.0-0.0-0.57","972","","f","","","","","","","","","","","","","key","f","16.66192307692264","640","300.3333333333333","f","true","img/S_ambi40.png","好人","simultaneous",""
"","","","","","html-keyboard-response","324","576433","0.0-13.0-2.0-1.0-0.0-1.57","null","<span style='color:GreenYellow; font-size: 70px;'>正确! </span>","null","","","","","","","","","","","","","","","","","","","","","","","feedback_test"
"","","","","","psychophysics","325","578596","0.0-13.0-2.0-1.0-0.0-0.58","1150","","f","","","","","","","","","","","","","key","f","16.66028124999957","640","300.3333333333333","f","true","img/S_ambi40.png","坏人","simultaneous",""
"","","","","","html-keyboard-response","326","578906","0.0-13.0-2.0-1.0-0.0-1.58","null","<span style='color:GreenYellow; font-size: 70px;'>正确! </span>","null","","","","","","","","","","","","","","","","","","","","","","","feedback_test"
"","","","","","psychophysics","327","580814","0.0-13.0-2.0-1.0-0.0-0.59","903","","j","","","","","","","","","","","","","key","j","16.659221238937782","640","300.3333333333333","f","false","img/T_ambi40.png","常人","simultaneous",""
"","","","","","html-keyboard-response","328","581123","0.0-13.0-2.0-1.0-0.0-1.59","null","<span style='color:red; font-size: 70px;'>错误! </span>","null","","","","","","","","","","","","","","","","","","","","","","","feedback_test"
"","","","","","html-keyboard-response","329","583405","0.0-13.0-2.0-1.0-1.0","2280","<style>.context{color:white; font-size: 35px; line-height:40px}</style>                              <div><p class='context'>您正确回答了77% 的试次。</p><p class='context'>您的平均反应时为972毫秒。</p><p class='context'>请按任意键进入休息</p></div>"," ","","","","","","","","","","","","","","","","","","","","","","",""
"","","","","","html-button-response","330","609924","0.0-13.0-2.0-1.0-2.0","26515","
                      <p>您当前还剩余3组实验</p>
                      <p>现在是休息时间，当您结束休息后，您可以点击 结束休息 按钮 继续</p>
                      <p>建议休息时间还剩余<span id=""iii"">60</span>秒</p>","0","","","","","","","","","","","","","","","","","","","","","","",""
"","","","","","psychophysics","331","612162","0.0-13.0-2.0-1.0-0.1-0.60","1234","","j","","","","","","","","","","","","","key","j","16.65717293233068","640","300.3333333333333","f","false","img/S_ambi40.png","好人","simultaneous",""
"","","","","","html-keyboard-response","332","612473","0.0-13.0-2.0-1.0-0.1-1.60","null","<span style='color:red; font-size: 70px;'>错误! </span>","null","","","","","","","","","","","","","","","","","","","","","","","feedback_test"
"","","","","","psychophysics","333","614134","0.0-13.0-2.0-1.0-0.1-0.61","659","","j","","","","","","","","","","","","","key","j","16.656857142858065","640","300.3333333333333","j","true","img/T_ambi40.png","好人","simultaneous",""
"","","","","","html-keyboard-response","334","614436","0.0-13.0-2.0-1.0-0.1-1.61","null","<span style='color:GreenYellow; font-size: 70px;'>正确! </span>","null","","","","","","","","","","","","","","","","","","","","","","","feedback_test"
"","","","","","psychophysics","335","616230","0.0-13.0-2.0-1.0-0.1-0.62","789","","j","","","","","","","","","","","","","key","j","16.659726415094173","640","300.3333333333333","j","true","img/S_ambi40.png","常人","simultaneous",""
"","","","","","html-keyboard-response","336","616546","0.0-13.0-2.0-1.0-0.1-1.62","null","<span style='color:GreenYellow; font-size: 70px;'>正确! </span>","null","","","","","","","","","","","","","","","","","","","","","","","feedback_test"
"","","","","","psychophysics","337","618728","0.0-13.0-2.0-1.0-0.1-0.63","1179","","j","","","","","","","","","","","","","key","j","16.658653846153847","640","300.3333333333333","f","false","img/S_ambi40.png","坏人","simultaneous",""
"","","","","","html-keyboard-response","338","619030","0.0-13.0-2.0-1.0-0.1-1.63","null","<span style='color:red; font-size: 70px;'>错误! </span>","null","","","","","","","","","","","","","","","","","","","","","","","feedback_test"
"","","","","","psychophysics","339","621124","0.0-13.0-2.0-1.0-0.1-0.64","1091","","j","","","","","","","","","","","","","key","j","16.659967741935567","640","300.3333333333333","j","true","img/C_ambi40.png","坏人","simultaneous",""
"","","","","","html-keyboard-response","340","621437","0.0-13.0-2.0-1.0-0.1-1.64","null","<span style='color:GreenYellow; font-size: 70px;'>正确! </span>","null","","","","","","","","","","","","","","","","","","","","","","","feedback_test"
"","","","","","psychophysics","341","623187","0.0-13.0-2.0-1.0-0.1-0.65","743","","f","","","","","","","","","","","","","key","f","16.66001941747647","640","300.3333333333333","f","true","img/C_ambi40.png","好人","simultaneous",""
"","","","","","html-keyboard-response","342","623501","0.0-13.0-2.0-1.0-0.1-1.65","null","<span style='color:GreenYellow; font-size: 70px;'>正确! </span>","null","","","","","","","","","","","","","","","","","","","","","","","feedback_test"
"","","","","","psychophysics","343","625518","0.0-13.0-2.0-1.0-0.1-0.66","1007","","j","","","","","","","","","","","","","key","j","16.658731092436692","640","300.3333333333333","j","true","img/C_ambi40.png","坏人","simultaneous",""
"","","","","","html-keyboard-response","344","625824","0.0-13.0-2.0-1.0-0.1-1.66","null","<span style='color:GreenYellow; font-size: 70px;'>正确! </span>","null","","","","","","","","","","","","","","","","","","","","","","","feedback_test"
"","","","","","psychophysics","345","627722","0.0-13.0-2.0-1.0-0.1-0.67","896","","f","","","","","","","","","","","","","key","f","16.654071428571893","640","300.3333333333333","f","true","img/T_ambi40.png","坏人","simultaneous",""
"","","","","","html-keyboard-response","346","628037","0.0-13.0-2.0-1.0-0.1-1.67","null","<span style='color:GreenYellow; font-size: 70px;'>正确! </span>","null","","","","","","","","","","","","","","","","","","","","","","","feedback_test"
"","","","","","psychophysics","347","630231","0.0-13.0-2.0-1.0-0.1-0.68","1190","","f","","","","","","","","","","","","","key","f","16.659236641221266","640","300.3333333333333","f","true","img/C_ambi40.png","常人","simultaneous",""
"","","","","","html-keyboard-response","348","630547","0.0-13.0-2.0-1.0-0.1-1.68","null","<span style='color:GreenYellow; font-size: 70px;'>正确! </span>","null","","","","","","","","","","","","","","","","","","","","","","","feedback_test"
"","","","","","psychophysics","349","632320","0.0-13.0-2.0-1.0-0.1-0.69","770","","j","","","","","","","","","","","","","key","j","16.661876190475944","640","300.3333333333333","j","true","img/T_ambi40.png","好人","simultaneous",""
"","","","","","html-keyboard-response","350","632636","0.0-13.0-2.0-1.0-0.1-1.69","null","<span style='color:GreenYellow; font-size: 70px;'>正确! </span>","null","","","","","","","","","","","","","","","","","","","","","","","feedback_test"
"","","","","","psychophysics","351","634590","0.0-13.0-2.0-1.0-0.1-0.70","948","","f","","","","","","","","","","","","","key","f","16.658499999999485","640","300.3333333333333","f","true","img/T_ambi40.png","常人","simultaneous",""
"","","","","","html-keyboard-response","352","634900","0.0-13.0-2.0-1.0-0.1-1.70","null","<span style='color:GreenYellow; font-size: 70px;'>正确! </span>","null","","","","","","","","","","","","","","","","","","","","","","","feedback_test"
"","","","","","psychophysics","353","636985","0.0-13.0-2.0-1.0-0.1-0.71","1082","","f","","","","","","","","","","","","","key","f","16.6601048387097","640","300.3333333333333","j","false","img/S_ambi40.png","常人","simultaneous",""
"","","","","","html-keyboard-response","354","637296","0.0-13.0-2.0-1.0-0.1-1.71","null","<span style='color:red; font-size: 70px;'>错误! </span>","null","","","","","","","","","","","","","","","","","","","","","","","feedback_test"
"","","","","","psychophysics","355","639659","0.0-13.0-2.0-1.0-0.1-0.72","1359","","f","","","","","","","","","","","","","key","f","16.65767142857159","640","300.3333333333333","f","true","img/T_ambi40.png","坏人","simultaneous",""
"","","","","","html-keyboard-response","356","639969","0.0-13.0-2.0-1.0-0.1-1.72","null","<span style='color:GreenYellow; font-size: 70px;'>正确! </span>","null","","","","","","","","","","","","","","","","","","","","","","","feedback_test"
"","","","","","psychophysics","357","641799","0.0-13.0-2.0-1.0-0.1-0.73","812","","j","","","","","","","","","","","","","key","j","16.65749541284418","640","300.3333333333333","j","true","img/C_ambi40.png","坏人","simultaneous",""
"","","","","","html-keyboard-response","358","642111","0.0-13.0-2.0-1.0-0.1-1.73","null","<span style='color:GreenYellow; font-size: 70px;'>正确! </span>","null","","","","","","","","","","","","","","","","","","","","","","","feedback_test"
"","","","","","psychophysics","359","644187","0.0-13.0-2.0-1.0-0.1-0.74","1073","","j","","","","","","","","","","","","","key","j","16.660772357723765","640","300.3333333333333","j","true","img/T_ambi40.png","好人","simultaneous",""
"","","","","","html-keyboard-response","360","644502","0.0-13.0-2.0-1.0-0.1-1.74","null","<span style='color:GreenYellow; font-size: 70px;'>正确! </span>","null","","","","","","","","","","","","","","","","","","","","","","","feedback_test"
"","","","","","psychophysics","361","646583","0.0-13.0-2.0-1.0-0.1-0.75","1070","","j","","","","","","","","","","","","","key","j","16.660846774193136","640","300.3333333333333","j","true","img/S_ambi40.png","常人","simultaneous",""
"","","","","","html-keyboard-response","362","646896","0.0-13.0-2.0-1.0-0.1-1.75","null","<span style='color:GreenYellow; font-size: 70px;'>正确! </span>","null","","","","","","","","","","","","","","","","","","","","","","","feedback_test"
"","","","","","psychophysics","363","648716","0.0-13.0-2.0-1.0-0.1-0.76","817","","f","","","","","","","","","","","","","key","f","16.654981481481595","640","300.3333333333333","f","true","img/S_ambi40.png","好人","simultaneous",""
"","","","","","html-keyboard-response","364","649034","0.0-13.0-2.0-1.0-0.1-1.76","null","<span style='color:GreenYellow; font-size: 70px;'>正确! </span>","null","","","","","","","","","","","","","","","","","","","","","","","feedback_test"
"","","","","","psychophysics","365","651164","0.0-13.0-2.0-1.0-0.1-0.77","1117","","f","","","","","","","","","","","","","key","f","16.660086614173274","640","300.3333333333333","j","false","img/T_ambi40.png","好人","simultaneous",""
"","","","","","html-keyboard-response","366","651465","0.0-13.0-2.0-1.0-0.1-1.77","null","<span style='color:red; font-size: 70px;'>错误! </span>","null","","","","","","","","","","","","","","","","","","","","","","","feedback_test"
"","","","","","psychophysics","367","653296","0.0-13.0-2.0-1.0-0.1-0.78","827","","f","","","","","","","","","","","","","key","f","16.65913761467908","640","300.3333333333333","f","true","img/T_ambi40.png","常人","simultaneous",""
"","","","","","html-keyboard-response","368","653613","0.0-13.0-2.0-1.0-0.1-1.78","null","<span style='color:GreenYellow; font-size: 70px;'>正确! </span>","null","","","","","","","","","","","","","","","","","","","","","","","feedback_test"
"","","","","","psychophysics","369","655726","0.0-13.0-2.0-1.0-0.1-0.79","1109","","f","","","","","","","","","","","","","key","f","16.66693650793639","640","300.3333333333333","f","true","img/C_ambi40.png","常人","simultaneous",""
"","","","","","html-keyboard-response","370","656031","0.0-13.0-2.0-1.0-0.1-1.79","null","<span style='color:GreenYellow; font-size: 70px;'>正确! </span>","null","","","","","","","","","","","","","","","","","","","","","","","feedback_test"
"","","","","","psychophysics","371","658312","0.0-13.0-2.0-1.0-0.1-0.80","1278","","f","","","","","","","","","","","","","key","f","16.6598592592593","640","300.3333333333333","f","true","img/S_ambi40.png","坏人","simultaneous",""
"","","","","","html-keyboard-response","372","658619","0.0-13.0-2.0-1.0-0.1-1.80","null","<span style='color:GreenYellow; font-size: 70px;'>正确! </span>","null","","","","","","","","","","","","","","","","","","","","","","","feedback_test"
"","","","","","psychophysics","373","660729","0.0-13.0-2.0-1.0-0.1-0.81","1105","","j","","","","","","","","","","","","","key","j","16.660456000000238","640","300.3333333333333","j","true","img/C_ambi40.png","坏人","simultaneous",""
"","","","","","html-keyboard-response","374","661036","0.0-13.0-2.0-1.0-0.1-1.81","null","<span style='color:GreenYellow; font-size: 70px;'>正确! </span>","null","","","","","","","","","","","","","","","","","","","","","","","feedback_test"
"","","","","","psychophysics","375","663007","0.0-13.0-2.0-1.0-0.1-0.82","968","","f","","","","","","","","","","","","","key","f","16.656905982906046","640","300.3333333333333","f","true","img/C_ambi40.png","好人","simultaneous",""
"","","","","","html-keyboard-response","376","663319","0.0-13.0-2.0-1.0-0.1-1.82","null","<span style='color:GreenYellow; font-size: 70px;'>正确! </span>","null","","","","","","","","","","","","","","","","","","","","","","","feedback_test"
"","","","","","psychophysics","377","665261","0.0-13.0-2.0-1.0-0.1-0.83","940","","j","","","","","","","","","","","","","key","j","16.66079130434816","640","300.3333333333333","j","true","img/S_ambi40.png","常人","simultaneous",""
"","","","","","html-keyboard-response","378","665573","0.0-13.0-2.0-1.0-0.1-1.83","null","<span style='color:GreenYellow; font-size: 70px;'>正确! </span>","null","","","","","","","","","","","","","","","","","","","","","","","feedback_test"
"","","","","","psychophysics","379","667608","0.0-13.0-2.0-1.0-0.1-0.84","1028","","f","","","","","","","","","","","","","key","f","16.659694214875824","640","300.3333333333333","f","true","img/T_ambi40.png","常人","simultaneous",""
"","","","","","html-keyboard-response","380","667919","0.0-13.0-2.0-1.0-0.1-1.84","null","<span style='color:GreenYellow; font-size: 70px;'>正确! </span>","null","","","","","","","","","","","","","","","","","","","","","","","feedback_test"
"","","","","","psychophysics","381","669920","0.0-13.0-2.0-1.0-0.1-0.85","999","","f","","","","","","","","","","","","","key","f","16.65912605042006","640","300.3333333333333","j","false","img/S_ambi40.png","常人","simultaneous",""
"","","","","","html-keyboard-response","382","670223","0.0-13.0-2.0-1.0-0.1-1.85","null","<span style='color:red; font-size: 70px;'>错误! </span>","null","","","","","","","","","","","","","","","","","","","","","","","feedback_test"
"","","","","","psychophysics","383","671972","0.0-13.0-2.0-1.0-0.1-0.86","746","","j","","","","","","","","","","","","","key","j","16.660375000000037","640","300.3333333333333","j","true","img/T_ambi40.png","好人","simultaneous",""
"","","","","","html-keyboard-response","384","672284","0.0-13.0-2.0-1.0-0.1-1.86","null","<span style='color:GreenYellow; font-size: 70px;'>正确! </span>","null","","","","","","","","","","","","","","","","","","","","","","","feedback_test"
"","","","","","psychophysics","385","673971","0.0-13.0-2.0-1.0-0.1-0.87","684","","f","","","","","","","","","","","","","key","f","16.659379999999654","640","300.3333333333333","f","true","img/T_ambi40.png","坏人","simultaneous",""
"","","","","","html-keyboard-response","386","674281","0.0-13.0-2.0-1.0-0.1-1.87","null","<span style='color:GreenYellow; font-size: 70px;'>正确! </span>","null","","","","","","","","","","","","","","","","","","","","","","","feedback_test"
"","","","","","psychophysics","387","676282","0.0-13.0-2.0-1.0-0.1-0.88","999","","j","","","","","","","","","","","","","key","j","16.657983193276724","640","300.3333333333333","j","true","img/S_ambi40.png","常人","simultaneous",""
"","","","","","html-keyboard-response","388","676592","0.0-13.0-2.0-1.0-0.1-1.88","null","<span style='color:GreenYellow; font-size: 70px;'>正确! </span>","null","","","","","","","","","","","","","","","","","","","","","","","feedback_test"
"","","","","","psychophysics","389","678709","0.0-13.0-2.0-1.0-0.1-0.89","1112","","f","","","","","","","","","","","","","key","f","16.657456000000238","640","300.3333333333333","f","true","img/S_ambi40.png","好人","simultaneous",""
"","","","","","html-keyboard-response","390","679021","0.0-13.0-2.0-1.0-0.1-1.89","null","<span style='color:GreenYellow; font-size: 70px;'>正确! </span>","null","","","","","","","","","","","","","","","","","","","","","","","feedback_test"
"","","","","","psychophysics","391","681527","0.0-13.0-2.0-1.0-0.1-0.90","null","","null","","","","","","","","","","","","","key","null","16.568825503355736","640","300.3333333333333","f","false","img/S_ambi40.png","坏人","simultaneous",""
"","","","","","html-keyboard-response","392","681841","0.0-13.0-2.0-1.0-0.1-1.90","null","<span class='add_' style='color:yellow; font-size: 70px;'> 太慢! </span>","null","","","","","","","","","","","","","","","","","","","","","","","feedback_test"
"","","","","","psychophysics","393","683669","0.0-13.0-2.0-1.0-0.1-0.91","823","","j","","","","","","","","","","","","","key","j","16.659259259258828","640","300.3333333333333","j","true","img/T_ambi40.png","好人","simultaneous",""
"","","","","","html-keyboard-response","394","683975","0.0-13.0-2.0-1.0-0.1-1.91","null","<span style='color:GreenYellow; font-size: 70px;'>正确! </span>","null","","","","","","","","","","","","","","","","","","","","","","","feedback_test"
"","","","","","psychophysics","395","685915","0.0-13.0-2.0-1.0-0.1-0.92","938","","j","","","","","","","","","","","","","key","j","16.657069565217093","640","300.3333333333333","j","true","img/C_ambi40.png","坏人","simultaneous",""
"","","","","","html-keyboard-response","396","686230","0.0-13.0-2.0-1.0-0.1-1.92","null","<span style='color:GreenYellow; font-size: 70px;'>正确! </span>","null","","","","","","","","","","","","","","","","","","","","","","","feedback_test"
"","","","","","psychophysics","397","688183","0.0-13.0-2.0-1.0-0.1-0.93","951","","f","","","","","","","","","","","","","key","f","16.660043103447794","640","300.3333333333333","f","true","img/C_ambi40.png","好人","simultaneous",""
"","","","","","html-keyboard-response","398","688494","0.0-13.0-2.0-1.0-0.1-1.93","null","<span style='color:GreenYellow; font-size: 70px;'>正确! </span>","null","","","","","","","","","","","","","","","","","","","","","","","feedback_test"
"","","","","","psychophysics","399","690411","0.0-13.0-2.0-1.0-0.1-0.94","915","","j","","","","","","","","","","","","","key","j","16.655543859649793","640","300.3333333333333","j","true","img/C_ambi40.png","坏人","simultaneous",""
"","","","","","html-keyboard-response","400","690726","0.0-13.0-2.0-1.0-0.1-1.94","null","<span style='color:GreenYellow; font-size: 70px;'>正确! </span>","null","","","","","","","","","","","","","","","","","","","","","","","feedback_test"
"","","","","","psychophysics","401","692558","0.0-13.0-2.0-1.0-0.1-0.95","828","","f","","","","","","","","","","","","","key","f","16.66024770642259","640","300.3333333333333","f","true","img/C_ambi40.png","常人","simultaneous",""
"","","","","","html-keyboard-response","402","692866","0.0-13.0-2.0-1.0-0.1-1.95","null","<span style='color:GreenYellow; font-size: 70px;'>正确! </span>","null","","","","","","","","","","","","","","","","","","","","","","","feedback_test"
"","","","","","psychophysics","403","694926","0.0-13.0-2.0-1.0-0.1-0.96","1057","","f","","","","","","","","","","","","","key","f","16.660057377049196","640","300.3333333333333","f","true","img/C_ambi40.png","常人","simultaneous",""
"","","","","","html-keyboard-response","404","695231","0.0-13.0-2.0-1.0-0.1-1.96","null","<span style='color:GreenYellow; font-size: 70px;'>正确! </span>","null","","","","","","","","","","","","","","","","","","","","","","","feedback_test"
"","","","","","psychophysics","405","697476","0.0-13.0-2.0-1.0-0.1-0.97","1236","","f","","","","","","","","","","","","","key","f","16.65613533834545","640","300.3333333333333","f","true","img/S_ambi40.png","好人","simultaneous",""
"","","","","","html-keyboard-response","406","697779","0.0-13.0-2.0-1.0-0.1-1.97","null","<span style='color:GreenYellow; font-size: 70px;'>正确! </span>","null","","","","","","","","","","","","","","","","","","","","","","","feedback_test"
"","","","","","psychophysics","407","699927","0.0-13.0-2.0-1.0-0.1-0.98","1141","","f","","","","","","","","","","","","","key","f","16.556015748031047","640","300.3333333333333","f","true","img/S_ambi40.png","坏人","simultaneous",""
"","","","","","html-keyboard-response","408","700236","0.0-13.0-2.0-1.0-0.1-1.98","null","<span style='color:GreenYellow; font-size: 70px;'>正确! </span>","null","","","","","","","","","","","","","","","","","","","","","","","feedback_test"
"","","","","","psychophysics","409","702114","0.0-13.0-2.0-1.0-0.1-0.99","867","","j","","","","","","","","","","","","","key","j","16.65966666666665","640","300.3333333333333","j","true","img/C_ambi40.png","坏人","simultaneous",""
"","","","","","html-keyboard-response","410","702440","0.0-13.0-2.0-1.0-0.1-1.99","null","<span style='color:GreenYellow; font-size: 70px;'>正确! </span>","null","","","","","","","","","","","","","","","","","","","","","","","feedback_test"
"","","","","","psychophysics","411","704270","0.0-13.0-2.0-1.0-0.1-0.100","826","","j","","","","","","","","","","","","","key","j","16.659522935780142","640","300.3333333333333","j","true","img/T_ambi40.png","好人","simultaneous",""
"","","","","","html-keyboard-response","412","704579","0.0-13.0-2.0-1.0-0.1-1.100","null","<span style='color:GreenYellow; font-size: 70px;'>正确! </span>","null","","","","","","","","","","","","","","","","","","","","","","","feedback_test"
"","","","","","psychophysics","413","706472","0.0-13.0-2.0-1.0-0.1-0.101","889","","f","","","","","","","","","","","","","key","f","16.6587589285721","640","300.3333333333333","f","true","img/T_ambi40.png","坏人","simultaneous",""
"","","","","","html-keyboard-response","414","706785","0.0-13.0-2.0-1.0-0.1-1.101","null","<span style='color:GreenYellow; font-size: 70px;'>正确! </span>","null","","","","","","","","","","","","","","","","","","","","","","","feedback_test"
"","","","","","psychophysics","415","708755","0.0-13.0-2.0-1.0-0.1-0.102","953","","j","","","","","","","","","","","","","key","j","16.659452991452643","640","300.3333333333333","j","true","img/T_ambi40.png","好人","simultaneous",""
"","","","","","html-keyboard-response","416","709072","0.0-13.0-2.0-1.0-0.1-1.102","null","<span style='color:GreenYellow; font-size: 70px;'>正确! </span>","null","","","","","","","","","","","","","","","","","","","","","","","feedback_test"
"","","","","","psychophysics","417","710934","0.0-13.0-2.0-1.0-0.1-0.103","860","","j","","","","","","","","","","","","","key","j","16.658990990990343","640","300.3333333333333","j","true","img/C_ambi40.png","坏人","simultaneous",""
"","","","","","html-keyboard-response","418","711241","0.0-13.0-2.0-1.0-0.1-1.103","null","<span style='color:GreenYellow; font-size: 70px;'>正确! </span>","null","","","","","","","","","","","","","","","","","","","","","","","feedback_test"
"","","","","","psychophysics","419","713067","0.0-13.0-2.0-1.0-0.1-0.104","815","","f","","","","","","","","","","","","","key","f","16.659222222222187","640","300.3333333333333","f","true","img/C_ambi40.png","好人","simultaneous",""
