"success","timeout","failed_images","failed_audio","failed_video","trial_type","trial_index","time_elapsed","internal_node_id","rt","stimulus","response","value","item_width_mm","item_height_mm","item_width_px","px2mm","view_dist_mm","item_width_deg","px2deg","scale_factor","win_width_deg","win_height_deg","view_history","response_type","key_press","avg_frame_time","center_x","center_y","correct_response","correct","Image","word","condition","screen_id"
"true","false","[]","[]","[]","preload","0","358","0.0-0.0","","","","","","","","","","","","","","","","","","","","","","","","","",""
"","","","","","html-keyboard-response","1","39443","0.0-1.0","39084","
     <p>您好，欢迎参加本次实验。</p>
     <p>为充分保障您的权利，请确保您已经知晓并同意《参与实验同意书》以及《数据公开知情同意书》。</p>
     <p>如果您未见过上述内容，请咨询实验员。</p>
     <p>如果您选择继续实验，则表示您已经清楚两份知情同意书的内容并同意。</p>
     <p> <div style = ""color: green""><按任意键至下页></div> </p>
     "," ","","","","","","","","","","","","","","","","","","","","","","",""
"","","","","","html-keyboard-response","2","41135","0.0-2.0","1691","
     <p>本实验首先需要您填写一些基本个人信息。</p>
     <p> <div style = ""color: green""><按任意键至下页></div></p>
     "," ","","","","","","","","","","","","","","","","","","","","","","",""
"","","","","","call-function","3","41135","0.0-3.0-0.0","","","","","","","","","","","","","","","","","","","","","","","","","",""
"","","","","","survey-html-form","4","46310","0.0-3.0-1.0","5173","","{""Q0"":""23""}","","","","","","","","","","","","","","","","","","","","","","",""
"","","","","","html-button-response","5","47660","0.0-3.0-2.0","1350","<p style = 'color : white'>您的性别</p>","1","","","","","","","","","","","","","","","","","","","","","","",""
"","","","","","survey-html-form","6","53201","0.0-3.0-3.0","5540","","{""Q0"":""2003""}","","","","","","","","","","","","","","","","","","","","","","",""
"","","","","","survey-html-form","7","56748","0.0-3.0-4.0","3547","","{""Q0"":""5""}","","","","","","","","","","","","","","","","","","","","","","",""
"","","","","","virtual-chinrest","8","108140","0.0-4.0","51392","","","","85.6","53.98","462.1921856681323","5.400350800964493","529.42","9.243843713362645","50","0.8221688115533206","25.5","14.22","","","","","","","","","","","",""
"true","","","","","fullscreen","9","110758","0.0-5.0","","","","","","","","","","","","","","","","","","","","","","","","","",""
"","","","","","instructions","10","145472","0.0-6.0","34713","","","","","","","","","","","","","","[{""page_index"":0,""viewing_time"":4299},{""page_index"":1,""viewing_time"":21325},{""page_index"":2,""viewing_time"":5550},{""page_index"":3,""viewing_time"":3539}]","","","","","","","","","","",""
"","","","","","psychophysics","11","147368","0.0-7.0-0.0-0.0","740","","f","","","","","","","","","","","","","key","f","11.093899408283887","660.779796278986","408.94494160549533","f","true","img/T_ambi40.png","坏人","prac_image_first",""
"","","","","","html-keyboard-response","12","147673","0.0-7.0-0.0-1.0","null","<span style='color:GreenYellow; font-size: 70px;'>正确! </span>","null","","","","","","","","","","","","","","","","","","","","","","","feedback_test"
"","","","","","psychophysics","13","149441","0.0-7.0-0.0-0.1","613","","f","","","","","","","","","","","","","key","f","11.111139240506315","660.779796278986","408.94494160549533","f","true","img/S_ambi40.png","坏人","prac_image_first",""
"","","","","","html-keyboard-response","14","149754","0.0-7.0-0.0-1.1","null","<span style='color:GreenYellow; font-size: 70px;'>正确! </span>","null","","","","","","","","","","","","","","","","","","","","","","","feedback_test"
"","","","","","psychophysics","15","151465","0.0-7.0-0.0-0.2","559","","j","","","","","","","","","","","","","key","j","11.111013071895524","660.779796278986","408.94494160549533","j","true","img/T_ambi40.png","好人","prac_image_first",""
"","","","","","html-keyboard-response","16","151781","0.0-7.0-0.0-1.2","null","<span style='color:GreenYellow; font-size: 70px;'>正确! </span>","null","","","","","","","","","","","","","","","","","","","","","","","feedback_test"
"","","","","","psychophysics","17","153674","0.0-7.0-0.0-0.3","735","","f","","","","","","","","","","","","","key","f","11.110870588235283","660.779796278986","408.94494160549533","f","true","img/C_ambi40.png","常人","prac_image_first",""
"","","","","","html-keyboard-response","18","153987","0.0-7.0-0.0-1.3","null","<span style='color:GreenYellow; font-size: 70px;'>正确! </span>","null","","","","","","","","","","","","","","","","","","","","","","","feedback_test"
"","","","","","psychophysics","19","155682","0.0-7.0-0.0-0.4","543","","f","","","","","","","","","","","","","key","f","11.111039735099288","660.779796278986","408.94494160549533","j","false","img/C_ambi40.png","坏人","prac_image_first",""
"","","","","","html-keyboard-response","20","155997","0.0-7.0-0.0-1.4","null","<span style='color:red; font-size: 70px;'>错误! </span>","null","","","","","","","","","","","","","","","","","","","","","","","feedback_test"
"","","","","","psychophysics","21","157802","0.0-7.0-0.0-0.5","651","","f","","","","","","","","","","","","","key","f","11.110937888198785","660.779796278986","408.94494160549533","f","true","img/S_ambi40.png","好人","prac_image_first",""
"","","","","","html-keyboard-response","22","158112","0.0-7.0-0.0-1.5","null","<span style='color:GreenYellow; font-size: 70px;'>正确! </span>","null","","","","","","","","","","","","","","","","","","","","","","","feedback_test"
"","","","","","psychophysics","23","159780","0.0-7.0-0.0-0.6","514","","j","","","","","","","","","","","","","key","j","11.110993288590608","660.779796278986","408.94494160549533","j","true","img/T_ambi40.png","好人","prac_image_first",""
"","","","","","html-keyboard-response","24","160091","0.0-7.0-0.0-1.6","null","<span style='color:GreenYellow; font-size: 70px;'>正确! </span>","null","","","","","","","","","","","","","","","","","","","","","","","feedback_test"
"","","","","","psychophysics","25","161769","0.0-7.0-0.0-0.7","526","","f","","","","","","","","","","","","","key","f","11.110726666666645","660.779796278986","408.94494160549533","f","true","img/T_ambi40.png","常人","prac_image_first",""
"","","","","","html-keyboard-response","26","162082","0.0-7.0-0.0-1.7","null","<span style='color:GreenYellow; font-size: 70px;'>正确! </span>","null","","","","","","","","","","","","","","","","","","","","","","","feedback_test"
"","","","","","psychophysics","27","164023","0.0-7.0-0.0-0.8","784","","f","","","","","","","","","","","","","key","f","11.096433526011502","660.779796278986","408.94494160549533","f","true","img/C_ambi40.png","好人","prac_image_first",""
"","","","","","html-keyboard-response","28","164333","0.0-7.0-0.0-1.8","null","<span style='color:GreenYellow; font-size: 70px;'>正确! </span>","null","","","","","","","","","","","","","","","","","","","","","","","feedback_test"
"","","","","","psychophysics","29","166141","0.0-7.0-0.0-0.9","657","","j","","","","","","","","","","","","","key","j","11.110722222222076","660.779796278986","408.94494160549533","j","true","img/S_ambi40.png","常人","prac_image_first",""
"","","","","","html-keyboard-response","30","166449","0.0-7.0-0.0-1.9","null","<span style='color:GreenYellow; font-size: 70px;'>正确! </span>","null","","","","","","","","","","","","","","","","","","","","","","","feedback_test"
"","","","","","psychophysics","31","168100","0.0-7.0-0.0-0.10","495","","j","","","","","","","","","","","","","key","j","11.085612244897904","660.779796278986","408.94494160549533","j","true","img/S_ambi40.png","常人","prac_image_first",""
"","","","","","html-keyboard-response","32","168409","0.0-7.0-0.0-1.10","null","<span style='color:GreenYellow; font-size: 70px;'>正确! </span>","null","","","","","","","","","","","","","","","","","","","","","","","feedback_test"
"","","","","","psychophysics","33","170148","0.0-7.0-0.0-0.11","587","","f","","","","","","","","","","","","","key","f","11.110838709677562","660.779796278986","408.94494160549533","j","false","img/C_ambi40.png","坏人","prac_image_first",""
"","","","","","html-keyboard-response","34","170461","0.0-7.0-0.0-1.11","null","<span style='color:red; font-size: 70px;'>错误! </span>","null","","","","","","","","","","","","","","","","","","","","","","","feedback_test"
"","","","","","psychophysics","35","172182","0.0-7.0-0.0-0.12","568","","j","","","","","","","","","","","","","key","j","11.078973856209046","660.779796278986","408.94494160549533","j","true","img/T_ambi40.png","好人","prac_image_first",""
"","","","","","html-keyboard-response","36","172488","0.0-7.0-0.0-1.12","null","<span style='color:GreenYellow; font-size: 70px;'>正确! </span>","null","","","","","","","","","","","","","","","","","","","","","","","feedback_test"
"","","","","","psychophysics","37","174197","0.0-7.0-0.0-0.13","557","","f","","","","","","","","","","","","","key","f","11.110856209150393","660.779796278986","408.94494160549533","f","true","img/T_ambi40.png","常人","prac_image_first",""
"","","","","","html-keyboard-response","38","174509","0.0-7.0-0.0-1.13","null","<span style='color:GreenYellow; font-size: 70px;'>正确! </span>","null","","","","","","","","","","","","","","","","","","","","","","","feedback_test"
"","","","","","psychophysics","39","176435","0.0-7.0-0.0-0.14","775","","j","","","","","","","","","","","","","key","j","11.110906976744191","660.779796278986","408.94494160549533","f","false","img/C_ambi40.png","好人","prac_image_first",""
"","","","","","html-keyboard-response","40","176746","0.0-7.0-0.0-1.14","null","<span style='color:red; font-size: 70px;'>错误! </span>","null","","","","","","","","","","","","","","","","","","","","","","","feedback_test"
"","","","","","psychophysics","41","178584","0.0-7.0-0.0-0.15","685","","f","","","","","","","","","","","","","key","f","11.110690909090883","660.779796278986","408.94494160549533","f","true","img/C_ambi40.png","常人","prac_image_first",""
"","","","","","html-keyboard-response","42","178893","0.0-7.0-0.0-1.15","null","<span style='color:GreenYellow; font-size: 70px;'>正确! </span>","null","","","","","","","","","","","","","","","","","","","","","","","feedback_test"
"","","","","","psychophysics","43","180652","0.0-7.0-0.0-0.16","602","","j","","","","","","","","","","","","","key","j","11.091509554140117","660.779796278986","408.94494160549533","f","false","img/S_ambi40.png","好人","prac_image_first",""
"","","","","","html-keyboard-response","44","180958","0.0-7.0-0.0-1.16","null","<span style='color:red; font-size: 70px;'>错误! </span>","null","","","","","","","","","","","","","","","","","","","","","","","feedback_test"
"","","","","","psychophysics","45","182981","0.0-7.0-0.0-0.17","871","","f","","","","","","","","","","","","","key","f","11.11077348066308","660.779796278986","408.94494160549533","f","true","img/T_ambi40.png","坏人","prac_image_first",""
"","","","","","html-keyboard-response","46","183282","0.0-7.0-0.0-1.17","null","<span style='color:GreenYellow; font-size: 70px;'>正确! </span>","null","","","","","","","","","","","","","","","","","","","","","","","feedback_test"
"","","","","","psychophysics","47","185113","0.0-7.0-0.0-0.18","676","","f","","","","","","","","","","","","","key","f","11.110914110429436","660.779796278986","408.94494160549533","j","false","img/S_ambi40.png","常人","prac_image_first",""
"","","","","","html-keyboard-response","48","185415","0.0-7.0-0.0-1.18","null","<span style='color:red; font-size: 70px;'>错误! </span>","null","","","","","","","","","","","","","","","","","","","","","","","feedback_test"
"","","","","","psychophysics","49","187263","0.0-7.0-0.0-0.19","691","","f","","","","","","","","","","","","","key","f","11.090339393939498","660.779796278986","408.94494160549533","j","false","img/C_ambi40.png","坏人","prac_image_first",""
"","","","","","html-keyboard-response","50","187566","0.0-7.0-0.0-1.19","null","<span style='color:red; font-size: 70px;'>错误! </span>","null","","","","","","","","","","","","","","","","","","","","","","","feedback_test"
"","","","","","psychophysics","51","190122","0.0-7.0-0.0-0.20","1405","","j","","","","","","","","","","","","","key","j","11.110890829694323","660.779796278986","408.94494160549533","f","false","img/S_ambi40.png","坏人","prac_image_first",""
"","","","","","html-keyboard-response","52","190429","0.0-7.0-0.0-1.20","null","<span style='color:red; font-size: 70px;'>错误! </span>","null","","","","","","","","","","","","","","","","","","","","","","","feedback_test"
"","","","","","psychophysics","53","192139","0.0-7.0-0.0-0.21","557","","j","","","","","","","","","","","","","key","j","11.11092810457503","660.779796278986","408.94494160549533","j","true","img/C_ambi40.png","坏人","prac_image_first",""
"","","","","","html-keyboard-response","54","192448","0.0-7.0-0.0-1.21","null","<span style='color:GreenYellow; font-size: 70px;'>正确! </span>","null","","","","","","","","","","","","","","","","","","","","","","","feedback_test"
"","","","","","psychophysics","55","195105","0.0-7.0-0.0-0.22","null","","null","","","","","","","","","","","","","key","null","11.096172995780613","660.779796278986","408.94494160549533","j","false","img/S_ambi40.png","常人","prac_image_first",""
"","","","","","html-keyboard-response","56","195417","0.0-7.0-0.0-1.22","null","<span class='add_' style='color:yellow; font-size: 70px;'> 太慢! </span>","null","","","","","","","","","","","","","","","","","","","","","","","feedback_test"
"","","","","","psychophysics","57","197057","0.0-7.0-0.0-0.23","485","","j","","","","","","","","","","","","","key","j","11.110986301369849","660.779796278986","408.94494160549533","j","true","img/T_ambi40.png","好人","prac_image_first",""
"","","","","","html-keyboard-response","58","197371","0.0-7.0-0.0-1.23","null","<span style='color:GreenYellow; font-size: 70px;'>正确! </span>","null","","","","","","","","","","","","","","","","","","","","","","","feedback_test"
"","","","","","html-keyboard-response","59","200515","0.0-8.0","3142","<style>.context{color:white; font-size: 35px; line-height:40px}</style>                              <div><p class='context'>您正确回答了67% 的试次。</p><p class='context'>您的平均反应时为625毫秒。</p><p class='context'>恭喜您完成这一阶段的练习。按任意键进入<span style='color: yellow;'>先文字后图形条件</span>的练习。</p></div>"," ","","","","","","","","","","","","","","","","","","","","","","",""
"","","","","","psychophysics","60","202158","0.0-9.0-0.0-0.0","490","","j","","","","","","","","","","","","","key","j","11.10417123287673","660.779796278986","408.94494160549533","f","false","img/T_ambi40.png","坏人","prac_word_first",""
"","","","","","html-keyboard-response","61","202462","0.0-9.0-0.0-1.0","null","<span style='color:red; font-size: 70px;'>错误! </span>","null","","","","","","","","","","","","","","","","","","","","","","","feedback_test"
"","","","","","psychophysics","62","204337","0.0-9.0-0.0-0.1","721","","f","","","","","","","","","","","","","key","f","11.110892215568864","660.779796278986","408.94494160549533","f","true","img/S_ambi40.png","好人","prac_word_first",""
"","","","","","html-keyboard-response","63","204639","0.0-9.0-0.0-1.1","null","<span style='color:GreenYellow; font-size: 70px;'>正确! </span>","null","","","","","","","","","","","","","","","","","","","","","","","feedback_test"
"","","","","","psychophysics","64","206676","0.0-9.0-0.0-0.2","883","","f","","","","","","","","","","","","","key","f","11.11089560439555","660.779796278986","408.94494160549533","f","true","img/T_ambi40.png","常人","prac_word_first",""
"","","","","","html-keyboard-response","65","206992","0.0-9.0-0.0-1.2","null","<span style='color:GreenYellow; font-size: 70px;'>正确! </span>","null","","","","","","","","","","","","","","","","","","","","","","","feedback_test"
"","","","","","psychophysics","66","208754","0.0-9.0-0.0-0.3","605","","f","","","","","","","","","","","","","key","f","11.091878980891831","660.779796278986","408.94494160549533","f","true","img/S_ambi40.png","坏人","prac_word_first",""
"","","","","","html-keyboard-response","67","209060","0.0-9.0-0.0-1.3","null","<span style='color:GreenYellow; font-size: 70px;'>正确! </span>","null","","","","","","","","","","","","","","","","","","","","","","","feedback_test"
"","","","","","psychophysics","68","210899","0.0-9.0-0.0-0.4","683","","f","","","","","","","","","","","","","key","f","11.11098780487799","660.779796278986","408.94494160549533","f","true","img/C_ambi40.png","好人","prac_word_first",""
"","","","","","html-keyboard-response","69","211206","0.0-9.0-0.0-1.4","null","<span style='color:GreenYellow; font-size: 70px;'>正确! </span>","null","","","","","","","","","","","","","","","","","","","","","","","feedback_test"
"","","","","","psychophysics","70","212796","0.0-9.0-0.0-0.5","438","","j","","","","","","","","","","","","","key","j","11.111035211267554","660.779796278986","408.94494160549533","j","true","img/T_ambi40.png","好人","prac_word_first",""
"","","","","","html-keyboard-response","71","213108","0.0-9.0-0.0-1.5","null","<span style='color:GreenYellow; font-size: 70px;'>正确! </span>","null","","","","","","","","","","","","","","","","","","","","","","","feedback_test"
"","","","","","psychophysics","72","214805","0.0-9.0-0.0-0.6","545","","j","","","","","","","","","","","","","key","j","11.110953947368552","660.779796278986","408.94494160549533","j","true","img/C_ambi40.png","坏人","prac_word_first",""
"","","","","","html-keyboard-response","73","215114","0.0-9.0-0.0-1.6","null","<span style='color:GreenYellow; font-size: 70px;'>正确! </span>","null","","","","","","","","","","","","","","","","","","","","","","","feedback_test"
"","","","","","psychophysics","74","216779","0.0-9.0-0.0-0.7","513","","f","","","","","","","","","","","","","key","f","11.110590604026864","660.779796278986","408.94494160549533","j","false","img/C_ambi40.png","坏人","prac_word_first",""
"","","","","","html-keyboard-response","75","217082","0.0-9.0-0.0-1.7","null","<span style='color:red; font-size: 70px;'>错误! </span>","null","","","","","","","","","","","","","","","","","","","","","","","feedback_test"
"","","","","","psychophysics","76","218808","0.0-9.0-0.0-0.8","570","","j","","","","","","","","","","","","","key","j","11.110902597402584","660.779796278986","408.94494160549533","j","true","img/S_ambi40.png","常人","prac_word_first",""
"","","","","","html-keyboard-response","77","219114","0.0-9.0-0.0-1.8","null","<span style='color:GreenYellow; font-size: 70px;'>正确! </span>","null","","","","","","","","","","","","","","","","","","","","","","","feedback_test"
"","","","","","psychophysics","78","220751","0.0-9.0-0.0-0.9","480","","j","","","","","","","","","","","","","key","j","11.110802721088438","660.779796278986","408.94494160549533","j","true","img/T_ambi40.png","好人","prac_word_first",""
"","","","","","html-keyboard-response","79","221057","0.0-9.0-0.0-1.9","null","<span style='color:GreenYellow; font-size: 70px;'>正确! </span>","null","","","","","","","","","","","","","","","","","","","","","","","feedback_test"
"","","","","","psychophysics","80","222641","0.0-9.0-0.0-0.10","426","","j","","","","","","","","","","","","","key","j","11.110866197183011","660.779796278986","408.94494160549533","j","true","img/S_ambi40.png","常人","prac_word_first",""
"","","","","","html-keyboard-response","81","222948","0.0-9.0-0.0-1.10","null","<span style='color:GreenYellow; font-size: 70px;'>正确! </span>","null","","","","","","","","","","","","","","","","","","","","","","","feedback_test"
"","","","","","psychophysics","82","224884","0.0-9.0-0.0-0.11","779","","f","","","","","","","","","","","","","key","f","11.090404624277538","660.779796278986","408.94494160549533","f","true","img/C_ambi40.png","常人","prac_word_first",""
"","","","","","html-keyboard-response","83","225185","0.0-9.0-0.0-1.11","null","<span style='color:GreenYellow; font-size: 70px;'>正确! </span>","null","","","","","","","","","","","","","","","","","","","","","","","feedback_test"
"","","","","","psychophysics","84","226917","0.0-9.0-0.0-0.12","579","","f","","","","","","","","","","","","","key","f","11.110922580645157","660.779796278986","408.94494160549533","j","false","img/C_ambi40.png","坏人","prac_word_first",""
"","","","","","html-keyboard-response","85","227232","0.0-9.0-0.0-1.12","null","<span style='color:red; font-size: 70px;'>错误! </span>","null","","","","","","","","","","","","","","","","","","","","","","","feedback_test"
"","","","","","psychophysics","86","228816","0.0-9.0-0.0-0.13","423","","j","","","","","","","","","","","","","key","j","11.110894366197204","660.779796278986","408.94494160549533","f","false","img/T_ambi40.png","坏人","prac_word_first",""
"","","","","","html-keyboard-response","87","229130","0.0-9.0-0.0-1.13","null","<span style='color:red; font-size: 70px;'>错误! </span>","null","","","","","","","","","","","","","","","","","","","","","","","feedback_test"
"","","","","","psychophysics","88","230825","0.0-9.0-0.0-0.14","543","","j","","","","","","","","","","","","","key","j","11.110847682119285","660.779796278986","408.94494160549533","j","true","img/S_ambi40.png","常人","prac_word_first",""
"","","","","","html-keyboard-response","89","231132","0.0-9.0-0.0-1.14","null","<span style='color:GreenYellow; font-size: 70px;'>正确! </span>","null","","","","","","","","","","","","","","","","","","","","","","","feedback_test"
"","","","","","psychophysics","90","233230","0.0-9.0-0.0-0.15","947","","f","","","","","","","","","","","","","key","f","11.111111702127635","660.779796278986","408.94494160549533","f","true","img/S_ambi40.png","坏人","prac_word_first",""
"","","","","","html-keyboard-response","91","233539","0.0-9.0-0.0-1.15","null","<span style='color:GreenYellow; font-size: 70px;'>正确! </span>","null","","","","","","","","","","","","","","","","","","","","","","","feedback_test"
"","","","","","psychophysics","92","235222","0.0-9.0-0.0-0.16","532","","j","","","","","","","","","","","","","key","j","11.110920000000043","660.779796278986","408.94494160549533","j","true","img/T_ambi40.png","好人","prac_word_first",""
"","","","","","html-keyboard-response","93","235530","0.0-9.0-0.0-1.16","null","<span style='color:GreenYellow; font-size: 70px;'>正确! </span>","null","","","","","","","","","","","","","","","","","","","","","","","feedback_test"
"","","","","","psychophysics","94","237326","0.0-9.0-0.0-0.17","644","","f","","","","","","","","","","","","","key","f","11.110893749999923","660.779796278986","408.94494160549533","f","true","img/C_ambi40.png","好人","prac_word_first",""
"","","","","","html-keyboard-response","95","237632","0.0-9.0-0.0-1.17","null","<span style='color:GreenYellow; font-size: 70px;'>正确! </span>","null","","","","","","","","","","","","","","","","","","","","","","","feedback_test"
"","","","","","psychophysics","96","239734","0.0-9.0-0.0-0.18","952","","f","","","","","","","","","","","","","key","f","11.110867021276562","660.779796278986","408.94494160549533","f","true","img/C_ambi40.png","常人","prac_word_first",""
"","","","","","html-keyboard-response","97","240039","0.0-9.0-0.0-1.18","null","<span style='color:GreenYellow; font-size: 70px;'>正确! </span>","null","","","","","","","","","","","","","","","","","","","","","","","feedback_test"
"","","","","","psychophysics","98","241599","0.0-9.0-0.0-0.19","406","","j","","","","","","","","","","","","","key","j","11.110820143884961","660.779796278986","408.94494160549533","j","true","img/T_ambi40.png","好人","prac_word_first",""
"","","","","","html-keyboard-response","99","241908","0.0-9.0-0.0-1.19","null","<span style='color:GreenYellow; font-size: 70px;'>正确! </span>","null","","","","","","","","","","","","","","","","","","","","","","","feedback_test"
"","","","","","psychophysics","100","243803","0.0-9.0-0.0-0.20","744","","j","","","","","","","","","","","","","key","j","11.110899408284014","660.779796278986","408.94494160549533","j","true","img/C_ambi40.png","坏人","prac_word_first",""
"","","","","","html-keyboard-response","101","244119","0.0-9.0-0.0-1.20","null","<span style='color:GreenYellow; font-size: 70px;'>正确! </span>","null","","","","","","","","","","","","","","","","","","","","","","","feedback_test"
"","","","","","psychophysics","102","245821","0.0-9.0-0.0-0.21","550","","f","","","","","","","","","","","","","key","f","11.110881578947508","660.779796278986","408.94494160549533","j","false","img/S_ambi40.png","常人","prac_word_first",""
"","","","","","html-keyboard-response","103","246130","0.0-9.0-0.0-1.21","null","<span style='color:red; font-size: 70px;'>错误! </span>","null","","","","","","","","","","","","","","","","","","","","","","","feedback_test"
"","","","","","psychophysics","104","247905","0.0-9.0-0.0-0.22","623","","f","","","","","","","","","","","","","key","f","11.11098742138363","660.779796278986","408.94494160549533","f","true","img/S_ambi40.png","好人","prac_word_first",""
"","","","","","html-keyboard-response","105","248208","0.0-9.0-0.0-1.22","null","<span style='color:GreenYellow; font-size: 70px;'>正确! </span>","null","","","","","","","","","","","","","","","","","","","","","","","feedback_test"
"","","","","","psychophysics","106","249829","0.0-9.0-0.0-0.23","469","","j","","","","","","","","","","","","","key","j","11.110931034482702","660.779796278986","408.94494160549533","f","false","img/T_ambi40.png","常人","prac_word_first",""
"","","","","","html-keyboard-response","107","250140","0.0-9.0-0.0-1.23","null","<span style='color:red; font-size: 70px;'>错误! </span>","null","","","","","","","","","","","","","","","","","","","","","","","feedback_test"
"","","","","","html-keyboard-response","108","251253","0.0-10.0","1112","<style>.context{color:white; font-size: 35px; line-height:40px}</style>                              <div><p class='context'>您正确回答了75% 的试次。</p><p class='context'>您的平均反应时为640毫秒。</p><p class='context'>恭喜您完成练习。按任意键进入<span style='color: yellow;'>图形和文字同时呈现条件</span>的练习。</p></div>"," ","","","","","","","","","","","","","","","","","","","","","","",""
"","","","","","psychophysics","109","252943","0.0-11.0-0.0-0.0","683","","f","","","","","","","","","","","","","key","f","11.110920529801202","660.779796278986","408.94494160549533","f","true","img/T_ambi40.png","常人","prac_simultaneous",""
"","","","","","html-keyboard-response","110","253257","0.0-11.0-0.0-1.0","null","<span style='color:GreenYellow; font-size: 70px;'>正确! </span>","null","","","","","","","","","","","","","","","","","","","","","","","feedback_test"
"","","","","","psychophysics","111","254967","0.0-11.0-0.0-0.1","707","","j","","","","","","","","","","","","","key","j","11.110640522875721","660.779796278986","408.94494160549533","f","false","img/C_ambi40.png","好人","prac_simultaneous",""
"","","","","","html-keyboard-response","112","255272","0.0-11.0-0.0-1.1","null","<span style='color:red; font-size: 70px;'>错误! </span>","null","","","","","","","","","","","","","","","","","","","","","","","feedback_test"
"","","","","","psychophysics","113","257030","0.0-11.0-0.0-0.2","747","","j","","","","","","","","","","","","","key","j","11.110923566879032","660.779796278986","408.94494160549533","j","true","img/S_ambi40.png","常人","prac_simultaneous",""
"","","","","","html-keyboard-response","114","257336","0.0-11.0-0.0-1.2","null","<span style='color:GreenYellow; font-size: 70px;'>正确! </span>","null","","","","","","","","","","","","","","","","","","","","","","","feedback_test"
"","","","","","psychophysics","115","259088","0.0-11.0-0.0-0.3","750","","j","","","","","","","","","","","","","key","j","11.11091719745235","660.779796278986","408.94494160549533","j","true","img/T_ambi40.png","好人","prac_simultaneous",""
"","","","","","html-keyboard-response","116","259389","0.0-11.0-0.0-1.3","null","<span style='color:GreenYellow; font-size: 70px;'>正确! </span>","null","","","","","","","","","","","","","","","","","","","","","","","feedback_test"
"","","","","","psychophysics","117","261202","0.0-11.0-0.0-0.4","808","","f","","","","","","","","","","","","","key","f","11.110975308642173","660.779796278986","408.94494160549533","f","true","img/S_ambi40.png","坏人","prac_simultaneous",""
"","","","","","html-keyboard-response","118","261504","0.0-11.0-0.0-1.4","null","<span style='color:GreenYellow; font-size: 70px;'>正确! </span>","null","","","","","","","","","","","","","","","","","","","","","","","feedback_test"
"","","","","","psychophysics","119","263371","0.0-11.0-0.0-0.5","866","","f","","","","","","","","","","","","","key","f","11.110921686746991","660.779796278986","408.94494160549533","j","false","img/C_ambi40.png","坏人","prac_simultaneous",""
"","","","","","html-keyboard-response","120","263681","0.0-11.0-0.0-1.5","null","<span style='color:red; font-size: 70px;'>错误! </span>","null","","","","","","","","","","","","","","","","","","","","","","","feedback_test"
"","","","","","psychophysics","121","265431","0.0-11.0-0.0-0.6","748","","j","","","","","","","","","","","","","key","j","11.110872611465009","660.779796278986","408.94494160549533","j","true","img/T_ambi40.png","好人","prac_simultaneous",""
"","","","","","html-keyboard-response","122","265733","0.0-11.0-0.0-1.6","null","<span style='color:GreenYellow; font-size: 70px;'>正确! </span>","null","","","","","","","","","","","","","","","","","","","","","","","feedback_test"
"","","","","","psychophysics","123","267613","0.0-11.0-0.0-0.7","875","","f","","","","","","","","","","","","","key","f","11.11094047619034","660.779796278986","408.94494160549533","f","true","img/C_ambi40.png","常人","prac_simultaneous",""
"","","","","","html-keyboard-response","124","267918","0.0-11.0-0.0-1.7","null","<span style='color:GreenYellow; font-size: 70px;'>正确! </span>","null","","","","","","","","","","","","","","","","","","","","","","","feedback_test"
"","","","","","psychophysics","125","269588","0.0-11.0-0.0-0.8","661","","f","","","","","","","","","","","","","key","f","11.11088590604025","660.779796278986","408.94494160549533","f","true","img/S_ambi40.png","好人","prac_simultaneous",""
"","","","","","html-keyboard-response","126","269899","0.0-11.0-0.0-1.8","null","<span style='color:GreenYellow; font-size: 70px;'>正确! </span>","null","","","","","","","","","","","","","","","","","","","","","","","feedback_test"
"","","","","","psychophysics","127","271801","0.0-11.0-0.0-0.9","896","","j","","","","","","","","","","","","","key","j","11.110858823529185","660.779796278986","408.94494160549533","f","false","img/T_ambi40.png","坏人","prac_simultaneous",""
"","","","","","html-keyboard-response","128","272115","0.0-11.0-0.0-1.9","null","<span style='color:red; font-size: 70px;'>错误! </span>","null","","","","","","","","","","","","","","","","","","","","","","","feedback_test"
"","","","","","psychophysics","129","273759","0.0-11.0-0.0-0.10","644","","j","","","","","","","","","","","","","key","j","11.110897260273916","660.779796278986","408.94494160549533","j","true","img/C_ambi40.png","坏人","prac_simultaneous",""
"","","","","","html-keyboard-response","130","274062","0.0-11.0-0.0-1.10","null","<span style='color:GreenYellow; font-size: 70px;'>正确! </span>","null","","","","","","","","","","","","","","","","","","","","","","","feedback_test"
"","","","","","psychophysics","131","275975","0.0-11.0-0.0-0.11","904","","j","","","","","","","","","","","","","key","j","11.110947368421105","660.779796278986","408.94494160549533","j","true","img/S_ambi40.png","常人","prac_simultaneous",""
"","","","","","html-keyboard-response","132","276289","0.0-11.0-0.0-1.11","null","<span style='color:GreenYellow; font-size: 70px;'>正确! </span>","null","","","","","","","","","","","","","","","","","","","","","","","feedback_test"
"","","","","","psychophysics","133","278052","0.0-11.0-0.0-0.12","759","","f","","","","","","","","","","","","","key","f","11.111082278480872","660.779796278986","408.94494160549533","f","true","img/S_ambi40.png","坏人","prac_simultaneous",""
"","","","","","html-keyboard-response","134","278356","0.0-11.0-0.0-1.12","null","<span style='color:GreenYellow; font-size: 70px;'>正确! </span>","null","","","","","","","","","","","","","","","","","","","","","","","feedback_test"
"","","","","","psychophysics","135","280256","0.0-11.0-0.0-0.13","897","","f","","","","","","","","","","","","","key","f","11.11080000000006","660.779796278986","408.94494160549533","f","true","img/T_ambi40.png","常人","prac_simultaneous",""
"","","","","","html-keyboard-response","136","280572","0.0-11.0-0.0-1.13","null","<span style='color:GreenYellow; font-size: 70px;'>正确! </span>","null","","","","","","","","","","","","","","","","","","","","","","","feedback_test"
"","","","","","psychophysics","137","282260","0.0-11.0-0.0-0.14","678","","f","","","","","","","","","","","","","key","f","11.110973333332998","660.779796278986","408.94494160549533","f","true","img/S_ambi40.png","好人","prac_simultaneous",""
"","","","","","html-keyboard-response","138","282563","0.0-11.0-0.0-1.14","null","<span style='color:GreenYellow; font-size: 70px;'>正确! </span>","null","","","","","","","","","","","","","","","","","","","","","","","feedback_test"
"","","","","","psychophysics","139","284223","0.0-11.0-0.0-0.15","654","","j","","","","","","","","","","","","","key","j","11.11091216216202","660.779796278986","408.94494160549533","j","true","img/C_ambi40.png","坏人","prac_simultaneous",""
"","","","","","html-keyboard-response","140","284533","0.0-11.0-0.0-1.15","null","<span style='color:GreenYellow; font-size: 70px;'>正确! </span>","null","","","","","","","","","","","","","","","","","","","","","","","feedback_test"
"","","","","","psychophysics","141","286408","0.0-11.0-0.0-0.16","871","","j","","","","","","","","","","","","","key","j","11.110886904761996","660.779796278986","408.94494160549533","j","true","img/S_ambi40.png","常人","prac_simultaneous",""
"","","","","","html-keyboard-response","142","286718","0.0-11.0-0.0-1.16","null","<span style='color:GreenYellow; font-size: 70px;'>正确! </span>","null","","","","","","","","","","","","","","","","","","","","","","","feedback_test"
"","","","","","psychophysics","143","288371","0.0-11.0-0.0-0.17","649","","f","","","","","","","","","","","","","key","f","11.110885135135282","660.779796278986","408.94494160549533","j","false","img/C_ambi40.png","坏人","prac_simultaneous",""
"","","","","","html-keyboard-response","144","288687","0.0-11.0-0.0-1.17","null","<span style='color:red; font-size: 70px;'>错误! </span>","null","","","","","","","","","","","","","","","","","","","","","","","feedback_test"
"","","","","","psychophysics","145","290340","0.0-11.0-0.0-0.18","653","","f","","","","","","","","","","","","","key","f","11.111067567567728","660.779796278986","408.94494160549533","f","true","img/T_ambi40.png","坏人","prac_simultaneous",""
"","","","","","html-keyboard-response","146","290655","0.0-11.0-0.0-1.18","null","<span style='color:GreenYellow; font-size: 70px;'>正确! </span>","null","","","","","","","","","","","","","","","","","","","","","","","feedback_test"
"","","","","","psychophysics","147","292324","0.0-11.0-0.0-0.19","665","","j","","","","","","","","","","","","","key","j","11.11085234899324","660.779796278986","408.94494160549533","f","false","img/C_ambi40.png","常人","prac_simultaneous",""
"","","","","","html-keyboard-response","148","292628","0.0-11.0-0.0-1.19","null","<span style='color:red; font-size: 70px;'>错误! </span>","null","","","","","","","","","","","","","","","","","","","","","","","feedback_test"
"","","","","","psychophysics","149","294189","0.0-11.0-0.0-0.20","551","","j","","","","","","","","","","","","","key","j","11.110856115107806","660.779796278986","408.94494160549533","j","true","img/T_ambi40.png","好人","prac_simultaneous",""
"","","","","","html-keyboard-response","150","294496","0.0-11.0-0.0-1.20","null","<span style='color:GreenYellow; font-size: 70px;'>正确! </span>","null","","","","","","","","","","","","","","","","","","","","","","","feedback_test"
"","","","","","psychophysics","151","296062","0.0-11.0-0.0-0.21","558","","j","","","","","","","","","","","","","key","j","11.111114285714159","660.779796278986","408.94494160549533","f","false","img/C_ambi40.png","好人","prac_simultaneous",""
"","","","","","html-keyboard-response","152","296364","0.0-11.0-0.0-1.21","null","<span style='color:red; font-size: 70px;'>错误! </span>","null","","","","","","","","","","","","","","","","","","","","","","","feedback_test"
"","","","","","psychophysics","153","297876","0.0-11.0-0.0-0.22","505","","j","","","","","","","","","","","","","key","j","11.110785185185227","660.779796278986","408.94494160549533","j","true","img/T_ambi40.png","好人","prac_simultaneous",""
"","","","","","html-keyboard-response","154","298188","0.0-11.0-0.0-1.22","null","<span style='color:GreenYellow; font-size: 70px;'>正确! </span>","null","","","","","","","","","","","","","","","","","","","","","","","feedback_test"
"","","","","","psychophysics","155","299840","0.0-11.0-0.0-0.23","649","","j","","","","","","","","","","","","","key","j","11.110898648648652","660.779796278986","408.94494160549533","j","true","img/S_ambi40.png","常人","prac_simultaneous",""
"","","","","","html-keyboard-response","156","300152","0.0-11.0-0.0-1.23","null","<span style='color:GreenYellow; font-size: 70px;'>正确! </span>","null","","","","","","","","","","","","","","","","","","","","","","","feedback_test"
"","","","","","html-keyboard-response","157","303812","0.0-12.0","3659","<style>.context{color:white; font-size: 35px; line-height:40px}</style>                              <div><p class='context'>您正确回答了75% 的试次。</p><p class='context'>您的平均反应时为724毫秒。</p><p class='context'>恭喜您完成练习。按任意键进入正式实验。</p><p class='footer' style='font-size: 35px; line-height:40px;'>请在进入正式实验实验之前将您的<span style='color: lightgreen;'>食指</span>放在电脑键盘的相应键位上进行按键。</p>"," ","","","","","","","","","","","","","","","","","","","","","","",""
"","","","","","html-keyboard-response","158","306586","0.0-13.0-1.0-0.0","2771","
      <p>请您将手指放在按键上，准备进入呈现顺序为<span style='color: yellow;'>先文字后图形条件</span>的正式匹配任务</p>
      <p> <div style = ""color: green""><按任意键进入下一阶段的匹配任务></div></p>
      "," ","","","","","","","","","","","","","","","","","","","","","","",""
"","","","","","psychophysics","159","308500","0.0-13.0-1.0-1.0-0.0-0.0","763","","j","","","","","","","","","","","","","key","j","11.11097076023372","660.779796278986","408.94494160549533","j","true","img/S_ambi40.png","常人","word_first",""
"","","","","","html-keyboard-response","160","308808","0.0-13.0-1.0-1.0-0.0-1.0","null","<span style='color:GreenYellow; font-size: 70px;'>正确! </span>","null","","","","","","","","","","","","","","","","","","","","","","","feedback_test"
"","","","","","psychophysics","161","310524","0.0-13.0-1.0-1.0-0.0-0.1","565","","f","","","","","","","","","","","","","key","f","11.111130718954419","660.779796278986","408.94494160549533","f","true","img/T_ambi40.png","坏人","word_first",""
"","","","","","html-keyboard-response","162","310829","0.0-13.0-1.0-1.0-0.0-1.1","null","<span style='color:GreenYellow; font-size: 70px;'>正确! </span>","null","","","","","","","","","","","","","","","","","","","","","","","feedback_test"
"","","","","","psychophysics","163","312512","0.0-13.0-1.0-1.0-0.0-0.2","531","","f","","","","","","","","","","","","","key","f","11.110919999999847","660.779796278986","408.94494160549533","f","true","img/S_ambi40.png","好人","word_first",""
"","","","","","html-keyboard-response","164","312819","0.0-13.0-1.0-1.0-0.0-1.2","null","<span style='color:GreenYellow; font-size: 70px;'>正确! </span>","null","","","","","","","","","","","","","","","","","","","","","","","feedback_test"
"","","","","","psychophysics","165","314536","0.0-13.0-1.0-1.0-0.0-0.3","566","","j","","","","","","","","","","","","","key","j","11.110960784313434","660.779796278986","408.94494160549533","j","true","img/T_ambi40.png","好人","word_first",""
"","","","","","html-keyboard-response","166","314843","0.0-13.0-1.0-1.0-0.0-1.3","null","<span style='color:GreenYellow; font-size: 70px;'>正确! </span>","null","","","","","","","","","","","","","","","","","","","","","","","feedback_test"
"","","","","","psychophysics","167","316510","0.0-13.0-1.0-1.0-0.0-0.4","517","","f","","","","","","","","","","","","","key","f","11.110912751677546","660.779796278986","408.94494160549533","j","false","img/C_ambi40.png","坏人","word_first",""
"","","","","","html-keyboard-response","168","316814","0.0-13.0-1.0-1.0-0.0-1.4","null","<span style='color:red; font-size: 70px;'>错误! </span>","null","","","","","","","","","","","","","","","","","","","","","","","feedback_test"
"","","","","","psychophysics","169","318484","0.0-13.0-1.0-1.0-0.0-0.5","518","","j","","","","","","","","","","","","","key","j","11.087885906040471","660.779796278986","408.94494160549533","j","true","img/T_ambi40.png","好人","word_first",""
"","","","","","html-keyboard-response","170","318790","0.0-13.0-1.0-1.0-0.0-1.5","null","<span style='color:GreenYellow; font-size: 70px;'>正确! </span>","null","","","","","","","","","","","","","","","","","","","","","","","feedback_test"
"","","","","","psychophysics","171","320739","0.0-13.0-1.0-1.0-0.0-0.6","791","","f","","","","","","","","","","","","","key","f","11.110879999999888","660.779796278986","408.94494160549533","f","true","img/S_ambi40.png","坏人","word_first",""
"","","","","","html-keyboard-response","172","321046","0.0-13.0-1.0-1.0-0.0-1.6","null","<span style='color:GreenYellow; font-size: 70px;'>正确! </span>","null","","","","","","","","","","","","","","","","","","","","","","","feedback_test"
"","","","","","psychophysics","173","322747","0.0-13.0-1.0-1.0-0.0-0.7","551","","f","","","","","","","","","","","","","key","f","11.110717105263335","660.779796278986","408.94494160549533","f","true","img/C_ambi40.png","好人","word_first",""
"","","","","","html-keyboard-response","174","323063","0.0-13.0-1.0-1.0-0.0-1.7","null","<span style='color:GreenYellow; font-size: 70px;'>正确! </span>","null","","","","","","","","","","","","","","","","","","","","","","","feedback_test"
"","","","","","psychophysics","175","324746","0.0-13.0-1.0-1.0-0.0-0.8","531","","j","","","","","","","","","","","","","key","j","11.111120000000033","660.779796278986","408.94494160549533","f","false","img/C_ambi40.png","常人","word_first",""
"","","","","","html-keyboard-response","176","325055","0.0-13.0-1.0-1.0-0.0-1.8","null","<span style='color:red; font-size: 70px;'>错误! </span>","null","","","","","","","","","","","","","","","","","","","","","","","feedback_test"
"","","","","","psychophysics","177","327010","0.0-13.0-1.0-1.0-0.0-0.9","804","","j","","","","","","","","","","","","","key","j","11.111017142857225","660.779796278986","408.94494160549533","j","true","img/C_ambi40.png","坏人","word_first",""
"","","","","","html-keyboard-response","178","327323","0.0-13.0-1.0-1.0-0.0-1.9","null","<span style='color:GreenYellow; font-size: 70px;'>正确! </span>","null","","","","","","","","","","","","","","","","","","","","","","","feedback_test"
"","","","","","psychophysics","179","329134","0.0-13.0-1.0-1.0-0.0-0.10","653","","f","","","","","","","","","","","","","key","f","11.110833333333433","660.779796278986","408.94494160549533","f","true","img/T_ambi40.png","常人","word_first",""
"","","","","","html-keyboard-response","180","329443","0.0-13.0-1.0-1.0-0.0-1.10","null","<span style='color:GreenYellow; font-size: 70px;'>正确! </span>","null","","","","","","","","","","","","","","","","","","","","","","","feedback_test"
"","","","","","psychophysics","181","331184","0.0-13.0-1.0-1.0-0.0-0.11","590","","j","","","","","","","","","","","","","key","j","11.110929487179442","660.779796278986","408.94494160549533","j","true","img/S_ambi40.png","常人","word_first",""
"","","","","","html-keyboard-response","182","331499","0.0-13.0-1.0-1.0-0.0-1.11","null","<span style='color:GreenYellow; font-size: 70px;'>正确! </span>","null","","","","","","","","","","","","","","","","","","","","","","","feedback_test"
"","","","","","psychophysics","183","333311","0.0-13.0-1.0-1.0-0.0-0.12","652","","j","","","","","","","","","","","","","key","j","11.110808641975314","660.779796278986","408.94494160549533","j","true","img/C_ambi40.png","坏人","word_first",""
"","","","","","html-keyboard-response","184","333624","0.0-13.0-1.0-1.0-0.0-1.12","null","<span style='color:GreenYellow; font-size: 70px;'>正确! </span>","null","","","","","","","","","","","","","","","","","","","","","","","feedback_test"
"","","","","","psychophysics","185","335465","0.0-13.0-1.0-1.0-0.0-0.13","684","","f","","","","","","","","","","","","","key","f","11.11080000000004","660.779796278986","408.94494160549533","f","true","img/C_ambi40.png","常人","word_first",""
"","","","","","html-keyboard-response","186","335781","0.0-13.0-1.0-1.0-0.0-1.13","null","<span style='color:GreenYellow; font-size: 70px;'>正确! </span>","null","","","","","","","","","","","","","","","","","","","","","","","feedback_test"
"","","","","","psychophysics","187","337505","0.0-13.0-1.0-1.0-0.0-0.14","572","","f","","","","","","","","","","","","","key","f","11.110935064935271","660.779796278986","408.94494160549533","f","true","img/S_ambi40.png","好人","word_first",""
"","","","","","html-keyboard-response","188","337816","0.0-13.0-1.0-1.0-0.0-1.14","null","<span style='color:GreenYellow; font-size: 70px;'>正确! </span>","null","","","","","","","","","","","","","","","","","","","","","","","feedback_test"
"","","","","","psychophysics","189","339568","0.0-13.0-1.0-1.0-0.0-0.15","598","","j","","","","","","","","","","","","","key","j","11.110865384615654","660.779796278986","408.94494160549533","j","true","img/T_ambi40.png","好人","word_first",""
"","","","","","html-keyboard-response","190","339883","0.0-13.0-1.0-1.0-0.0-1.15","null","<span style='color:GreenYellow; font-size: 70px;'>正确! </span>","null","","","","","","","","","","","","","","","","","","","","","","","feedback_test"
"","","","","","psychophysics","191","341512","0.0-13.0-1.0-1.0-0.0-0.16","478","","f","","","","","","","","","","","","","key","f","11.110924137930851","660.779796278986","408.94494160549533","f","true","img/T_ambi40.png","常人","word_first",""
"","","","","","html-keyboard-response","192","341828","0.0-13.0-1.0-1.0-0.0-1.16","null","<span style='color:GreenYellow; font-size: 70px;'>正确! </span>","null","","","","","","","","","","","","","","","","","","","","","","","feedback_test"
"","","","","","psychophysics","193","343466","0.0-13.0-1.0-1.0-0.0-0.17","484","","j","","","","","","","","","","","","","key","j","11.11095890410927","660.779796278986","408.94494160549533","j","true","img/S_ambi40.png","常人","word_first",""
"","","","","","html-keyboard-response","194","343774","0.0-13.0-1.0-1.0-0.0-1.17","null","<span style='color:GreenYellow; font-size: 70px;'>正确! </span>","null","","","","","","","","","","","","","","","","","","","","","","","feedback_test"
"","","","","","psychophysics","195","345395","0.0-13.0-1.0-1.0-0.0-0.18","469","","f","","","","","","","","","","","","","key","f","11.111124137931117","660.779796278986","408.94494160549533","f","true","img/S_ambi40.png","坏人","word_first",""
"","","","","","html-keyboard-response","196","345705","0.0-13.0-1.0-1.0-0.0-1.18","null","<span style='color:GreenYellow; font-size: 70px;'>正确! </span>","null","","","","","","","","","","","","","","","","","","","","","","","feedback_test"
"","","","","","psychophysics","197","347344","0.0-13.0-1.0-1.0-0.0-0.19","485","","f","","","","","","","","","","","","","key","f","11.11089041095892","660.779796278986","408.94494160549533","f","true","img/T_ambi40.png","坏人","word_first",""
"","","","","","html-keyboard-response","198","347653","0.0-13.0-1.0-1.0-0.0-1.19","null","<span style='color:GreenYellow; font-size: 70px;'>正确! </span>","null","","","","","","","","","","","","","","","","","","","","","","","feedback_test"
"","","","","","psychophysics","199","349442","0.0-13.0-1.0-1.0-0.0-0.20","638","","j","","","","","","","","","","","","","key","j","11.110912499999904","660.779796278986","408.94494160549533","j","true","img/C_ambi40.png","坏人","word_first",""
"","","","","","html-keyboard-response","200","349757","0.0-13.0-1.0-1.0-0.0-1.20","null","<span style='color:GreenYellow; font-size: 70px;'>正确! </span>","null","","","","","","","","","","","","","","","","","","","","","","","feedback_test"
"","","","","","psychophysics","201","351327","0.0-13.0-1.0-1.0-0.0-0.21","413","","j","","","","","","","","","","","","","key","j","11.110893617021267","660.779796278986","408.94494160549533","j","true","img/T_ambi40.png","好人","word_first",""
"","","","","","html-keyboard-response","202","351636","0.0-13.0-1.0-1.0-0.0-1.21","null","<span style='color:GreenYellow; font-size: 70px;'>正确! </span>","null","","","","","","","","","","","","","","","","","","","","","","","feedback_test"
"","","","","","psychophysics","203","353291","0.0-13.0-1.0-1.0-0.0-0.22","499","","j","","","","","","","","","","","","","key","j","11.110897959183845","660.779796278986","408.94494160549533","j","true","img/S_ambi40.png","常人","word_first",""
"","","","","","html-keyboard-response","204","353604","0.0-13.0-1.0-1.0-0.0-1.22","null","<span style='color:GreenYellow; font-size: 70px;'>正确! </span>","null","","","","","","","","","","","","","","","","","","","","","","","feedback_test"
"","","","","","psychophysics","205","355234","0.0-13.0-1.0-1.0-0.0-0.23","479","","j","","","","","","","","","","","","","key","j","11.110800000000344","660.779796278986","408.94494160549533","f","false","img/C_ambi40.png","好人","word_first",""
"","","","","","html-keyboard-response","206","355548","0.0-13.0-1.0-1.0-0.0-1.23","null","<span style='color:red; font-size: 70px;'>错误! </span>","null","","","","","","","","","","","","","","","","","","","","","","","feedback_test"
"","","","","","psychophysics","207","357288","0.0-13.0-1.0-1.0-0.0-0.24","585","","j","","","","","","","","","","","","","key","j","11.110883870967589","660.779796278986","408.94494160549533","f","false","img/S_ambi40.png","坏人","word_first",""
"","","","","","html-keyboard-response","208","357592","0.0-13.0-1.0-1.0-0.0-1.24","null","<span style='color:red; font-size: 70px;'>错误! </span>","null","","","","","","","","","","","","","","","","","","","","","","","feedback_test"
"","","","","","psychophysics","209","359447","0.0-13.0-1.0-1.0-0.0-0.25","702","","f","","","","","","","","","","","","","key","f","11.110896969697029","660.779796278986","408.94494160549533","f","true","img/T_ambi40.png","坏人","word_first",""
"","","","","","html-keyboard-response","210","359752","0.0-13.0-1.0-1.0-0.0-1.25","null","<span style='color:GreenYellow; font-size: 70px;'>正确! </span>","null","","","","","","","","","","","","","","","","","","","","","","","feedback_test"
"","","","","","psychophysics","211","361586","0.0-13.0-1.0-1.0-0.0-0.26","683","","f","","","","","","","","","","","","","key","f","11.110896341463624","660.779796278986","408.94494160549533","f","true","img/S_ambi40.png","好人","word_first",""
"","","","","","html-keyboard-response","212","361889","0.0-13.0-1.0-1.0-0.0-1.26","null","<span style='color:GreenYellow; font-size: 70px;'>正确! </span>","null","","","","","","","","","","","","","","","","","","","","","","","feedback_test"
"","","","","","psychophysics","213","363580","0.0-13.0-1.0-1.0-0.0-0.27","533","","j","","","","","","","","","","","","","key","j","11.11085430463577","660.779796278986","408.94494160549533","j","true","img/S_ambi40.png","常人","word_first",""
"","","","","","html-keyboard-response","214","363889","0.0-13.0-1.0-1.0-0.0-1.27","null","<span style='color:GreenYellow; font-size: 70px;'>正确! </span>","null","","","","","","","","","","","","","","","","","","","","","","","feedback_test"
"","","","","","psychophysics","215","365553","0.0-13.0-1.0-1.0-0.0-0.28","512","","j","","","","","","","","","","","","","key","j","11.110999999999931","660.779796278986","408.94494160549533","j","true","img/T_ambi40.png","好人","word_first",""
"","","","","","html-keyboard-response","216","365868","0.0-13.0-1.0-1.0-0.0-1.28","null","<span style='color:GreenYellow; font-size: 70px;'>正确! </span>","null","","","","","","","","","","","","","","","","","","","","","","","feedback_test"
"","","","","","psychophysics","217","367397","0.0-13.0-1.0-1.0-0.0-0.29","375","","j","","","","","","","","","","","","","key","j","11.110934306569584","660.779796278986","408.94494160549533","j","true","img/T_ambi40.png","好人","word_first",""
"","","","","","html-keyboard-response","218","367705","0.0-13.0-1.0-1.0-0.0-1.29","null","<span style='color:GreenYellow; font-size: 70px;'>正确! </span>","null","","","","","","","","","","","","","","","","","","","","","","","feedback_test"
"","","","","","psychophysics","219","369397","0.0-13.0-1.0-1.0-0.0-0.30","538","","j","","","","","","","","","","","","","key","j","11.111006622516475","660.779796278986","408.94494160549533","j","true","img/S_ambi40.png","常人","word_first",""
"","","","","","html-keyboard-response","220","369700","0.0-13.0-1.0-1.0-0.0-1.30","null","<span style='color:GreenYellow; font-size: 70px;'>正确! </span>","null","","","","","","","","","","","","","","","","","","","","","","","feedback_test"
"","","","","","psychophysics","221","371350","0.0-13.0-1.0-1.0-0.0-0.31","492","","f","","","","","","","","","","","","","key","f","11.11069594594576","660.779796278986","408.94494160549533","f","true","img/C_ambi40.png","好人","word_first",""
"","","","","","html-keyboard-response","222","371664","0.0-13.0-1.0-1.0-0.0-1.31","null","<span style='color:GreenYellow; font-size: 70px;'>正确! </span>","null","","","","","","","","","","","","","","","","","","","","","","","feedback_test"
"","","","","","psychophysics","223","373535","0.0-13.0-1.0-1.0-0.0-0.32","720","","f","","","","","","","","","","","","","key","f","11.11094011976049","660.779796278986","408.94494160549533","f","true","img/T_ambi40.png","常人","word_first",""
"","","","","","html-keyboard-response","224","373845","0.0-13.0-1.0-1.0-0.0-1.32","null","<span style='color:GreenYellow; font-size: 70px;'>正确! </span>","null","","","","","","","","","","","","","","","","","","","","","","","feedback_test"
"","","","","","psychophysics","225","375469","0.0-13.0-1.0-1.0-0.0-0.33","466","","f","","","","","","","","","","","","","key","f","11.110793103448293","660.779796278986","408.94494160549533","j","false","img/C_ambi40.png","坏人","word_first",""
"","","","","","html-keyboard-response","226","375770","0.0-13.0-1.0-1.0-0.0-1.33","null","<span style='color:red; font-size: 70px;'>错误! </span>","null","","","","","","","","","","","","","","","","","","","","","","","feedback_test"
"","","","","","psychophysics","227","377287","0.0-13.0-1.0-1.0-0.0-0.34","365","","j","","","","","","","","","","","","","key","j","11.11098518518524","660.779796278986","408.94494160549533","j","true","img/C_ambi40.png","坏人","word_first",""
"","","","","","html-keyboard-response","228","377589","0.0-13.0-1.0-1.0-0.0-1.34","null","<span style='color:GreenYellow; font-size: 70px;'>正确! </span>","null","","","","","","","","","","","","","","","","","","","","","","","feedback_test"
"","","","","","psychophysics","229","379301","0.0-13.0-1.0-1.0-0.0-0.35","554","","f","","","","","","","","","","","","","key","f","11.110915032679555","660.779796278986","408.94494160549533","f","true","img/C_ambi40.png","常人","word_first",""
"","","","","","html-keyboard-response","230","379606","0.0-13.0-1.0-1.0-0.0-1.35","null","<span style='color:GreenYellow; font-size: 70px;'>正确! </span>","null","","","","","","","","","","","","","","","","","","","","","","","feedback_test"
"","","","","","psychophysics","231","381351","0.0-13.0-1.0-1.0-0.0-0.36","592","","f","","","","","","","","","","","","","key","f","11.110903846153702","660.779796278986","408.94494160549533","f","true","img/C_ambi40.png","常人","word_first",""
"","","","","","html-keyboard-response","232","381652","0.0-13.0-1.0-1.0-0.0-1.36","null","<span style='color:GreenYellow; font-size: 70px;'>正确! </span>","null","","","","","","","","","","","","","","","","","","","","","","","feedback_test"
"","","","","","psychophysics","233","383400","0.0-13.0-1.0-1.0-0.0-0.37","597","","f","","","","","","","","","","","","","key","f","11.110961538461524","660.779796278986","408.94494160549533","f","true","img/C_ambi40.png","好人","word_first",""
"","","","","","html-keyboard-response","234","383709","0.0-13.0-1.0-1.0-0.0-1.37","null","<span style='color:GreenYellow; font-size: 70px;'>正确! </span>","null","","","","","","","","","","","","","","","","","","","","","","","feedback_test"
"","","","","","psychophysics","235","385509","0.0-13.0-1.0-1.0-0.0-0.38","646","","j","","","","","","","","","","","","","key","j","11.110968944099616","660.779796278986","408.94494160549533","j","true","img/T_ambi40.png","好人","word_first",""
"","","","","","html-keyboard-response","236","385811","0.0-13.0-1.0-1.0-0.0-1.38","null","<span style='color:GreenYellow; font-size: 70px;'>正确! </span>","null","","","","","","","","","","","","","","","","","","","","","","","feedback_test"
"","","","","","psychophysics","237","387367","0.0-13.0-1.0-1.0-0.0-0.39","402","","f","","","","","","","","","","","","","key","f","11.11087050359728","660.779796278986","408.94494160549533","f","true","img/T_ambi40.png","常人","word_first",""
"","","","","","html-keyboard-response","238","387678","0.0-13.0-1.0-1.0-0.0-1.39","null","<span style='color:GreenYellow; font-size: 70px;'>正确! </span>","null","","","","","","","","","","","","","","","","","","","","","","","feedback_test"
"","","","","","psychophysics","239","389281","0.0-13.0-1.0-1.0-0.0-0.40","445","","f","","","","","","","","","","","","","key","f","11.110909722222358","660.779796278986","408.94494160549533","j","false","img/C_ambi40.png","坏人","word_first",""
"","","","","","html-keyboard-response","240","389589","0.0-13.0-1.0-1.0-0.0-1.40","null","<span style='color:red; font-size: 70px;'>错误! </span>","null","","","","","","","","","","","","","","","","","","","","","","","feedback_test"
"","","","","","psychophysics","241","391275","0.0-13.0-1.0-1.0-0.0-0.41","533","","f","","","","","","","","","","","","","key","f","11.111006622516475","660.779796278986","408.94494160549533","f","true","img/S_ambi40.png","坏人","word_first",""
"","","","","","html-keyboard-response","242","391581","0.0-13.0-1.0-1.0-0.0-1.41","null","<span style='color:GreenYellow; font-size: 70px;'>正确! </span>","null","","","","","","","","","","","","","","","","","","","","","","","feedback_test"
"","","","","","psychophysics","243","393285","0.0-13.0-1.0-1.0-0.0-0.42","551","","f","","","","","","","","","","","","","key","f","11.110881578947316","660.779796278986","408.94494160549533","f","true","img/S_ambi40.png","好人","word_first",""
"","","","","","html-keyboard-response","244","393600","0.0-13.0-1.0-1.0-0.0-1.42","null","<span style='color:GreenYellow; font-size: 70px;'>正确! </span>","null","","","","","","","","","","","","","","","","","","","","","","","feedback_test"
"","","","","","psychophysics","245","395353","0.0-13.0-1.0-1.0-0.0-0.43","595","","j","","","","","","","","","","","","","key","j","11.110764331209909","660.779796278986","408.94494160549533","f","false","img/T_ambi40.png","坏人","word_first",""
"","","","","","html-keyboard-response","246","395665","0.0-13.0-1.0-1.0-0.0-1.43","null","<span style='color:red; font-size: 70px;'>错误! </span>","null","","","","","","","","","","","","","","","","","","","","","","","feedback_test"
"","","","","","psychophysics","247","397438","0.0-13.0-1.0-1.0-0.0-0.44","613","","j","","","","","","","","","","","","","key","j","11.110930817610285","660.779796278986","408.94494160549533","j","true","img/S_ambi40.png","常人","word_first",""
"","","","","","html-keyboard-response","248","397744","0.0-13.0-1.0-1.0-0.0-1.44","null","<span style='color:GreenYellow; font-size: 70px;'>正确! </span>","null","","","","","","","","","","","","","","","","","","","","","","","feedback_test"
"","","","","","psychophysics","249","399416","0.0-13.0-1.0-1.0-0.0-0.45","517","","j","","","","","","","","","","","","","key","j","11.110893333333467","660.779796278986","408.94494160549533","j","true","img/T_ambi40.png","好人","word_first",""
"","","","","","html-keyboard-response","250","399722","0.0-13.0-1.0-1.0-0.0-1.45","null","<span style='color:GreenYellow; font-size: 70px;'>正确! </span>","null","","","","","","","","","","","","","","","","","","","","","","","feedback_test"
"","","","","","psychophysics","251","401435","0.0-13.0-1.0-1.0-0.0-0.46","559","","j","","","","","","","","","","","","","key","j","11.111039215686283","660.779796278986","408.94494160549533","j","true","img/S_ambi40.png","常人","word_first",""
"","","","","","html-keyboard-response","252","401748","0.0-13.0-1.0-1.0-0.0-1.46","null","<span style='color:GreenYellow; font-size: 70px;'>正确! </span>","null","","","","","","","","","","","","","","","","","","","","","","","feedback_test"
"","","","","","psychophysics","253","403584","0.0-13.0-1.0-1.0-0.0-0.47","684","","j","","","","","","","","","","","","","key","j","11.110902439024535","660.779796278986","408.94494160549533","j","true","img/C_ambi40.png","坏人","word_first",""
"","","","","","html-keyboard-response","254","403899","0.0-13.0-1.0-1.0-0.0-1.47","null","<span style='color:GreenYellow; font-size: 70px;'>正确! </span>","null","","","","","","","","","","","","","","","","","","","","","","","feedback_test"
"","","","","","psychophysics","255","405498","0.0-13.0-1.0-1.0-0.0-0.48","445","","j","","","","","","","","","","","","","key","j","11.110944055944397","660.779796278986","408.94494160549533","j","true","img/S_ambi40.png","常人","word_first",""
"","","","","","html-keyboard-response","256","405802","0.0-13.0-1.0-1.0-0.0-1.48","null","<span style='color:GreenYellow; font-size: 70px;'>正确! </span>","null","","","","","","","","","","","","","","","","","","","","","","","feedback_test"
"","","","","","psychophysics","257","407397","0.0-13.0-1.0-1.0-0.0-0.49","439","","j","","","","","","","","","","","","","key","j","11.110985915492613","660.779796278986","408.94494160549533","j","true","img/T_ambi40.png","好人","word_first",""
"","","","","","html-keyboard-response","258","407710","0.0-13.0-1.0-1.0-0.0-1.49","null","<span style='color:GreenYellow; font-size: 70px;'>正确! </span>","null","","","","","","","","","","","","","","","","","","","","","","","feedback_test"
"","","","","","psychophysics","259","409177","0.0-13.0-1.0-1.0-0.0-0.50","312","","j","","","","","","","","","","","","","key","j","11.110641221374092","660.779796278986","408.94494160549533","f","false","img/C_ambi40.png","好人","word_first",""
"","","","","","html-keyboard-response","260","409484","0.0-13.0-1.0-1.0-0.0-1.50","null","<span style='color:red; font-size: 70px;'>错误! </span>","null","","","","","","","","","","","","","","","","","","","","","","","feedback_test"
"","","","","","psychophysics","261","411155","0.0-13.0-1.0-1.0-0.0-0.51","520","","j","","","","","","","","","","","","","key","j","11.110798657717865","660.779796278986","408.94494160549533","f","false","img/T_ambi40.png","坏人","word_first",""
"","","","","","html-keyboard-response","262","411464","0.0-13.0-1.0-1.0-0.0-1.51","null","<span style='color:red; font-size: 70px;'>错误! </span>","null","","","","","","","","","","","","","","","","","","","","","","","feedback_test"
"","","","","","psychophysics","263","413050","0.0-13.0-1.0-1.0-0.0-0.52","432","","j","","","","","","","","","","","","","key","j","11.110971830986133","660.779796278986","408.94494160549533","j","true","img/S_ambi40.png","常人","word_first",""
"","","","","","html-keyboard-response","264","413362","0.0-13.0-1.0-1.0-0.0-1.52","null","<span style='color:GreenYellow; font-size: 70px;'>正确! </span>","null","","","","","","","","","","","","","","","","","","","","","","","feedback_test"
"","","","","","psychophysics","265","414920","0.0-13.0-1.0-1.0-0.0-0.53","407","","j","","","","","","","","","","","","","key","j","11.110733812949587","660.779796278986","408.94494160549533","j","true","img/T_ambi40.png","好人","word_first",""
"","","","","","html-keyboard-response","266","415231","0.0-13.0-1.0-1.0-0.0-1.53","null","<span style='color:GreenYellow; font-size: 70px;'>正确! </span>","null","","","","","","","","","","","","","","","","","","","","","","","feedback_test"
"","","","","","psychophysics","267","416829","0.0-13.0-1.0-1.0-0.0-0.54","446","","f","","","","","","","","","","","","","key","f","11.110825174825163","660.779796278986","408.94494160549533","f","true","img/S_ambi40.png","坏人","word_first",""
"","","","","","html-keyboard-response","268","417144","0.0-13.0-1.0-1.0-0.0-1.54","null","<span style='color:GreenYellow; font-size: 70px;'>正确! </span>","null","","","","","","","","","","","","","","","","","","","","","","","feedback_test"
"","","","","","psychophysics","269","418823","0.0-13.0-1.0-1.0-0.0-0.55","521","","f","","","","","","","","","","","","","key","f","11.110933333333039","660.779796278986","408.94494160549533","f","true","img/S_ambi40.png","好人","word_first",""
"","","","","","html-keyboard-response","270","419130","0.0-13.0-1.0-1.0-0.0-1.55","null","<span style='color:GreenYellow; font-size: 70px;'>正确! </span>","null","","","","","","","","","","","","","","","","","","","","","","","feedback_test"
"","","","","","psychophysics","271","420877","0.0-13.0-1.0-1.0-0.0-0.56","586","","f","","","","","","","","","","","","","key","f","11.110878205127964","660.779796278986","408.94494160549533","f","true","img/C_ambi40.png","常人","word_first",""
"","","","","","html-keyboard-response","272","421185","0.0-13.0-1.0-1.0-0.0-1.56","null","<span style='color:GreenYellow; font-size: 70px;'>正确! </span>","null","","","","","","","","","","","","","","","","","","","","","","","feedback_test"
"","","","","","psychophysics","273","422861","0.0-13.0-1.0-1.0-0.0-0.57","525","","f","","","","","","","","","","","","","key","f","11.110986666666964","660.779796278986","408.94494160549533","f","true","img/T_ambi40.png","常人","word_first",""
"","","","","","html-keyboard-response","274","423175","0.0-13.0-1.0-1.0-0.0-1.57","null","<span style='color:GreenYellow; font-size: 70px;'>正确! </span>","null","","","","","","","","","","","","","","","","","","","","","","","feedback_test"
"","","","","","psychophysics","275","424820","0.0-13.0-1.0-1.0-0.0-0.58","492","","j","","","","","","","","","","","","","key","j","11.110925170068302","660.779796278986","408.94494160549533","j","true","img/C_ambi40.png","坏人","word_first",""
"","","","","","html-keyboard-response","276","425123","0.0-13.0-1.0-1.0-0.0-1.58","null","<span style='color:GreenYellow; font-size: 70px;'>正确! </span>","null","","","","","","","","","","","","","","","","","","","","","","","feedback_test"
"","","","","","psychophysics","277","426758","0.0-13.0-1.0-1.0-0.0-0.59","484","","j","","","","","","","","","","","","","key","j","11.085503448276171","660.779796278986","408.94494160549533","j","true","img/C_ambi40.png","坏人","word_first",""
"","","","","","html-keyboard-response","278","427067","0.0-13.0-1.0-1.0-0.0-1.59","null","<span style='color:GreenYellow; font-size: 70px;'>正确! </span>","null","","","","","","","","","","","","","","","","","","","","","","","feedback_test"
"","","","","","html-keyboard-response","279","428282","0.0-13.0-1.0-1.0-1.0","1213","<style>.context{color:white; font-size: 35px; line-height:40px}</style>                              <div><p class='context'>您正确回答了85% 的试次。</p><p class='context'>您的平均反应时为554毫秒。</p><p class='context'>请按任意键进入休息</p></div>"," ","","","","","","","","","","","","","","","","","","","","","","",""
"","","","","","html-button-response","280","433468","0.0-13.0-1.0-1.0-2.0","5184","
                      <p>您当前还剩余3组实验</p>
                      <p>现在是休息时间，当您结束休息后，您可以点击 结束休息 按钮 继续</p>
                      <p>建议休息时间还剩余<span id=""iii"">60</span>秒</p>","0","","","","","","","","","","","","","","","","","","","","","","",""
"","","","","","psychophysics","281","435049","0.0-13.0-1.0-1.0-0.1-0.60","425","","j","","","","","","","","","","","","","key","j","11.11094366197194","660.779796278986","408.94494160549533","j","true","img/S_ambi40.png","常人","word_first",""
"","","","","","html-keyboard-response","282","435360","0.0-13.0-1.0-1.0-0.1-1.60","null","<span style='color:GreenYellow; font-size: 70px;'>正确! </span>","null","","","","","","","","","","","","","","","","","","","","","","","feedback_test"
"","","","","","psychophysics","283","436829","0.0-13.0-1.0-1.0-0.1-0.61","316","","j","","","","","","","","","","","","","key","j","11.11090076335871","660.779796278986","408.94494160549533","f","false","img/T_ambi40.png","常人","word_first",""
"","","","","","html-keyboard-response","284","437131","0.0-13.0-1.0-1.0-0.1-1.61","null","<span style='color:red; font-size: 70px;'>错误! </span>","null","","","","","","","","","","","","","","","","","","","","","","","feedback_test"
"","","","","","psychophysics","285","438752","0.0-13.0-1.0-1.0-0.1-0.62","467","","j","","","","","","","","","","","","","key","j","11.1108896551726","660.779796278986","408.94494160549533","j","true","img/S_ambi40.png","常人","word_first",""
"","","","","","html-keyboard-response","286","439061","0.0-13.0-1.0-1.0-0.1-1.62","null","<span style='color:GreenYellow; font-size: 70px;'>正确! </span>","null","","","","","","","","","","","","","","","","","","","","","","","feedback_test"
"","","","","","psychophysics","287","440736","0.0-13.0-1.0-1.0-0.1-0.63","523","","f","","","","","","","","","","","","","key","f","11.11079999999997","660.779796278986","408.94494160549533","f","true","img/C_ambi40.png","好人","word_first",""
"","","","","","html-keyboard-response","288","441038","0.0-13.0-1.0-1.0-0.1-1.63","null","<span style='color:GreenYellow; font-size: 70px;'>正确! </span>","null","","","","","","","","","","","","","","","","","","","","","","","feedback_test"
"","","","","","psychophysics","289","442831","0.0-13.0-1.0-1.0-0.1-0.64","640","","j","","","","","","","","","","","","","key","j","11.110912500000268","660.779796278986","408.94494160549533","j","true","img/C_ambi40.png","坏人","word_first",""
"","","","","","html-keyboard-response","290","443141","0.0-13.0-1.0-1.0-0.1-1.64","null","<span style='color:GreenYellow; font-size: 70px;'>正确! </span>","null","","","","","","","","","","","","","","","","","","","","","","","feedback_test"
"","","","","","psychophysics","291","444795","0.0-13.0-1.0-1.0-0.1-0.65","504","","f","","","","","","","","","","","","","key","f","11.110986486486729","660.779796278986","408.94494160549533","f","true","img/S_ambi40.png","坏人","word_first",""
"","","","","","html-keyboard-response","292","445097","0.0-13.0-1.0-1.0-0.1-1.65","null","<span style='color:GreenYellow; font-size: 70px;'>正确! </span>","null","","","","","","","","","","","","","","","","","","","","","","","feedback_test"
"","","","","","psychophysics","293","446678","0.0-13.0-1.0-1.0-0.1-0.66","430","","j","","","","","","","","","","","","","key","j","11.11094326241163","660.779796278986","408.94494160549533","j","true","img/T_ambi40.png","好人","word_first",""
"","","","","","html-keyboard-response","294","446988","0.0-13.0-1.0-1.0-0.1-1.66","null","<span style='color:GreenYellow; font-size: 70px;'>正确! </span>","null","","","","","","","","","","","","","","","","","","","","","","","feedback_test"
"","","","","","psychophysics","295","448612","0.0-13.0-1.0-1.0-0.1-0.67","473","","f","","","","","","","","","","","","","key","f","11.110917241379202","660.779796278986","408.94494160549533","f","true","img/C_ambi40.png","常人","word_first",""
"","","","","","html-keyboard-response","296","448927","0.0-13.0-1.0-1.0-0.1-1.67","null","<span style='color:GreenYellow; font-size: 70px;'>正确! </span>","null","","","","","","","","","","","","","","","","","","","","","","","feedback_test"
"","","","","","psychophysics","297","450796","0.0-13.0-1.0-1.0-0.1-0.68","716","","f","","","","","","","","","","","","","key","f","11.11088622754515","660.779796278986","408.94494160549533","f","true","img/S_ambi40.png","好人","word_first",""
"","","","","","html-keyboard-response","298","451106","0.0-13.0-1.0-1.0-0.1-1.68","null","<span style='color:GreenYellow; font-size: 70px;'>正确! </span>","null","","","","","","","","","","","","","","","","","","","","","","","feedback_test"
"","","","","","psychophysics","299","452700","0.0-13.0-1.0-1.0-0.1-0.69","443","","j","","","","","","","","","","","","","key","j","11.110929577464638","660.779796278986","408.94494160549533","j","true","img/T_ambi40.png","好人","word_first",""
"","","","","","html-keyboard-response","300","453005","0.0-13.0-1.0-1.0-0.1-1.69","null","<span style='color:GreenYellow; font-size: 70px;'>正确! </span>","null","","","","","","","","","","","","","","","","","","","","","","","feedback_test"
"","","","","","psychophysics","301","454574","0.0-13.0-1.0-1.0-0.1-0.70","417","","f","","","","","","","","","","","","","key","f","11.110892857143023","660.779796278986","408.94494160549533","j","false","img/C_ambi40.png","坏人","word_first",""
"","","","","","html-keyboard-response","302","454880","0.0-13.0-1.0-1.0-0.1-1.70","null","<span style='color:red; font-size: 70px;'>错误! </span>","null","","","","","","","","","","","","","","","","","","","","","","","feedback_test"
"","","","","","psychophysics","303","456404","0.0-13.0-1.0-1.0-0.1-0.71","369","","j","","","","","","","","","","","","","key","j","11.110911764706115","660.779796278986","408.94494160549533","f","false","img/T_ambi40.png","坏人","word_first",""
"","","","","","html-keyboard-response","304","456715","0.0-13.0-1.0-1.0-0.1-1.71","null","<span style='color:red; font-size: 70px;'>错误! </span>","null","","","","","","","","","","","","","","","","","","","","","","","feedback_test"
"","","","","","psychophysics","305","458452","0.0-13.0-1.0-1.0-0.1-0.72","583","","f","","","","","","","","","","","","","key","f","11.110980645161227","660.779796278986","408.94494160549533","f","true","img/S_ambi40.png","坏人","word_first",""
"","","","","","html-keyboard-response","306","458766","0.0-13.0-1.0-1.0-0.1-1.72","null","<span style='color:GreenYellow; font-size: 70px;'>正确! </span>","null","","","","","","","","","","","","","","","","","","","","","","","feedback_test"
"","","","","","psychophysics","307","460531","0.0-13.0-1.0-1.0-0.1-0.73","612","","j","","","","","","","","","","","","","key","j","11.110993670886147","660.779796278986","408.94494160549533","j","true","img/C_ambi40.png","坏人","word_first",""
"","","","","","html-keyboard-response","308","460838","0.0-13.0-1.0-1.0-0.1-1.73","null","<span style='color:GreenYellow; font-size: 70px;'>正确! </span>","null","","","","","","","","","","","","","","","","","","","","","","","feedback_test"
"","","","","","psychophysics","309","462475","0.0-13.0-1.0-1.0-0.1-0.74","485","","j","","","","","","","","","","","","","key","j","11.11087671232893","660.779796278986","408.94494160549533","j","true","img/S_ambi40.png","常人","word_first",""
"","","","","","html-keyboard-response","310","462781","0.0-13.0-1.0-1.0-0.1-1.74","null","<span style='color:GreenYellow; font-size: 70px;'>正确! </span>","null","","","","","","","","","","","","","","","","","","","","","","","feedback_test"
"","","","","","psychophysics","311","464544","0.0-13.0-1.0-1.0-0.1-0.75","609","","j","","","","","","","","","","","","","key","j","11.110898089172114","660.779796278986","408.94494160549533","j","true","img/C_ambi40.png","坏人","word_first",""
"","","","","","html-keyboard-response","312","464852","0.0-13.0-1.0-1.0-0.1-1.75","null","<span style='color:GreenYellow; font-size: 70px;'>正确! </span>","null","","","","","","","","","","","","","","","","","","","","","","","feedback_test"
"","","","","","psychophysics","313","466484","0.0-13.0-1.0-1.0-0.1-0.76","471","","j","","","","","","","","","","","","","key","j","11.110952054794673","660.779796278986","408.94494160549533","j","true","img/S_ambi40.png","常人","word_first",""
"","","","","","html-keyboard-response","314","466790","0.0-13.0-1.0-1.0-0.1-1.76","null","<span style='color:GreenYellow; font-size: 70px;'>正确! </span>","null","","","","","","","","","","","","","","","","","","","","","","","feedback_test"
"","","","","","psychophysics","315","468432","0.0-13.0-1.0-1.0-0.1-0.77","489","","f","","","","","","","","","","","","","key","f","11.110924657534294","660.779796278986","408.94494160549533","f","true","img/S_ambi40.png","好人","word_first",""
"","","","","","html-keyboard-response","316","468741","0.0-13.0-1.0-1.0-0.1-1.77","null","<span style='color:GreenYellow; font-size: 70px;'>正确! </span>","null","","","","","","","","","","","","","","","","","","","","","","","feedback_test"
"","","","","","psychophysics","317","470471","0.0-13.0-1.0-1.0-0.1-0.78","577","","j","","","","","","","","","","","","","key","j","11.110922580645344","660.779796278986","408.94494160549533","f","false","img/T_ambi40.png","常人","word_first",""
"","","","","","html-keyboard-response","318","470782","0.0-13.0-1.0-1.0-0.1-1.78","null","<span style='color:red; font-size: 70px;'>错误! </span>","null","","","","","","","","","","","","","","","","","","","","","","","feedback_test"
"","","","","","psychophysics","319","472675","0.0-13.0-1.0-1.0-0.1-0.79","740","","j","","","","","","","","","","","","","key","j","11.110940828402086","660.779796278986","408.94494160549533","f","false","img/C_ambi40.png","好人","word_first",""
"","","","","","html-keyboard-response","320","472987","0.0-13.0-1.0-1.0-0.1-1.79","null","<span style='color:red; font-size: 70px;'>错误! </span>","null","","","","","","","","","","","","","","","","","","","","","","","feedback_test"
"","","","","","psychophysics","321","474890","0.0-13.0-1.0-1.0-0.1-0.80","747","","f","","","","","","","","","","","","","key","f","11.110923529411872","660.779796278986","408.94494160549533","f","true","img/T_ambi40.png","坏人","word_first",""
"","","","","","html-keyboard-response","322","475205","0.0-13.0-1.0-1.0-0.1-1.80","null","<span style='color:GreenYellow; font-size: 70px;'>正确! </span>","null","","","","","","","","","","","","","","","","","","","","","","","feedback_test"
"","","","","","psychophysics","323","477095","0.0-13.0-1.0-1.0-0.1-0.81","738","","j","","","","","","","","","","","","","key","j","11.111011834319518","660.779796278986","408.94494160549533","j","true","img/T_ambi40.png","好人","word_first",""
"","","","","","html-keyboard-response","324","477400","0.0-13.0-1.0-1.0-0.1-1.81","null","<span style='color:GreenYellow; font-size: 70px;'>正确! </span>","null","","","","","","","","","","","","","","","","","","","","","","","feedback_test"
"","","","","","psychophysics","325","479032","0.0-13.0-1.0-1.0-0.1-0.82","475","","j","","","","","","","","","","","","","key","j","11.089448275862278","660.779796278986","408.94494160549533","j","true","img/T_ambi40.png","好人","word_first",""
"","","","","","html-keyboard-response","326","479343","0.0-13.0-1.0-1.0-0.1-1.82","null","<span style='color:GreenYellow; font-size: 70px;'>正确! </span>","null","","","","","","","","","","","","","","","","","","","","","","","feedback_test"
"","","","","","psychophysics","327","481011","0.0-13.0-1.0-1.0-0.1-0.83","517","","f","","","","","","","","","","","","","key","f","11.110744966442882","660.779796278986","408.94494160549533","f","true","img/C_ambi40.png","常人","word_first",""
"","","","","","html-keyboard-response","328","481315","0.0-13.0-1.0-1.0-0.1-1.83","null","<span style='color:GreenYellow; font-size: 70px;'>正确! </span>","null","","","","","","","","","","","","","","","","","","","","","","","feedback_test"
"","","","","","psychophysics","329","482990","0.0-13.0-1.0-1.0-0.1-0.84","523","","f","","","","","","","","","","","","","key","f","11.111000000000155","660.779796278986","408.94494160549533","f","true","img/S_ambi40.png","好人","word_first",""
"","","","","","html-keyboard-response","330","483292","0.0-13.0-1.0-1.0-0.1-1.84","null","<span style='color:GreenYellow; font-size: 70px;'>正确! </span>","null","","","","","","","","","","","","","","","","","","","","","","","feedback_test"
"","","","","","psychophysics","331","485069","0.0-13.0-1.0-1.0-0.1-0.85","626","","j","","","","","","","","","","","","","key","j","11.11092452830181","660.779796278986","408.94494160549533","j","true","img/C_ambi40.png","坏人","word_first",""
"","","","","","html-keyboard-response","332","485379","0.0-13.0-1.0-1.0-0.1-1.85","null","<span style='color:GreenYellow; font-size: 70px;'>正确! </span>","null","","","","","","","","","","","","","","","","","","","","","","","feedback_test"
"","","","","","psychophysics","333","487123","0.0-13.0-1.0-1.0-0.1-0.86","591","","j","","","","","","","","","","","","","key","j","11.110884615384679","660.779796278986","408.94494160549533","j","true","img/T_ambi40.png","好人","word_first",""
"","","","","","html-keyboard-response","334","487436","0.0-13.0-1.0-1.0-0.1-1.86","null","<span style='color:GreenYellow; font-size: 70px;'>正确! </span>","null","","","","","","","","","","","","","","","","","","","","","","","feedback_test"
"","","","","","psychophysics","335","489046","0.0-13.0-1.0-1.0-0.1-0.87","457","","f","","","","","","","","","","","","","key","f","11.110944444444613","660.779796278986","408.94494160549533","f","true","img/T_ambi40.png","常人","word_first",""
"","","","","","html-keyboard-response","336","489352","0.0-13.0-1.0-1.0-0.1-1.87","null","<span style='color:GreenYellow; font-size: 70px;'>正确! </span>","null","","","","","","","","","","","","","","","","","","","","","","","feedback_test"
"","","","","","psychophysics","337","491075","0.0-13.0-1.0-1.0-0.1-0.88","564","","j","","","","","","","","","","","","","key","j","11.110941558441695","660.779796278986","408.94494160549533","j","true","img/S_ambi40.png","常人","word_first",""
"","","","","","html-keyboard-response","338","491383","0.0-13.0-1.0-1.0-0.1-1.88","null","<span style='color:GreenYellow; font-size: 70px;'>正确! </span>","null","","","","","","","","","","","","","","","","","","","","","","","feedback_test"
"","","","","","psychophysics","339","492964","0.0-13.0-1.0-1.0-0.1-0.89","430","","j","","","","","","","","","","","","","key","j","11.110900709219772","660.779796278986","408.94494160549533","j","true","img/S_ambi40.png","常人","word_first",""
"","","","","","html-keyboard-response","340","493280","0.0-13.0-1.0-1.0-0.1-1.89","null","<span style='color:GreenYellow; font-size: 70px;'>正确! </span>","null","","","","","","","","","","","","","","","","","","","","","","","feedback_test"
"","","","","","psychophysics","341","494894","0.0-13.0-1.0-1.0-0.1-0.90","460","","j","","","","","","","","","","","","","key","j","11.110854166666993","660.779796278986","408.94494160549533","f","false","img/C_ambi40.png","好人","word_first",""
"","","","","","html-keyboard-response","342","495197","0.0-13.0-1.0-1.0-0.1-1.90","null","<span style='color:red; font-size: 70px;'>错误! </span>","null","","","","","","","","","","","","","","","","","","","","","","","feedback_test"
"","","","","","psychophysics","343","496879","0.0-13.0-1.0-1.0-0.1-0.91","530","","j","","","","","","","","","","","","","key","j","11.110726666666645","660.779796278986","408.94494160549533","j","true","img/T_ambi40.png","好人","word_first",""
"","","","","","html-keyboard-response","344","497187","0.0-13.0-1.0-1.0-0.1-1.91","null","<span style='color:GreenYellow; font-size: 70px;'>正确! </span>","null","","","","","","","","","","","","","","","","","","","","","","","feedback_test"
"","","","","","psychophysics","345","498798","0.0-13.0-1.0-1.0-0.1-0.92","453","","f","","","","","","","","","","","","","key","f","11.110861111111364","660.779796278986","408.94494160549533","f","true","img/C_ambi40.png","常人","word_first",""
"","","","","","html-keyboard-response","346","499101","0.0-13.0-1.0-1.0-0.1-1.92","null","<span style='color:GreenYellow; font-size: 70px;'>正确! </span>","null","","","","","","","","","","","","","","","","","","","","","","","feedback_test"
"","","","","","psychophysics","347","500783","0.0-13.0-1.0-1.0-0.1-0.93","527","","f","","","","","","","","","","","","","key","f","11.110893333333467","660.779796278986","408.94494160549533","f","true","img/S_ambi40.png","坏人","word_first",""
"","","","","","html-keyboard-response","348","501089","0.0-13.0-1.0-1.0-0.1-1.93","null","<span style='color:GreenYellow; font-size: 70px;'>正确! </span>","null","","","","","","","","","","","","","","","","","","","","","","","feedback_test"
"","","","","","psychophysics","349","502924","0.0-13.0-1.0-1.0-0.1-0.94","679","","f","","","","","","","","","","","","","key","f","11.11089634146327","660.779796278986","408.94494160549533","f","true","img/T_ambi40.png","坏人","word_first",""
"","","","","","html-keyboard-response","350","503236","0.0-13.0-1.0-1.0-0.1-1.94","null","<span style='color:GreenYellow; font-size: 70px;'>正确! </span>","null","","","","","","","","","","","","","","","","","","","","","","","feedback_test"
"","","","","","psychophysics","351","505118","0.0-13.0-1.0-1.0-0.1-0.95","731","","j","","","","","","","","","","","","","key","j","11.110892857142884","660.779796278986","408.94494160549533","j","true","img/C_ambi40.png","坏人","word_first",""
"","","","","","html-keyboard-response","352","505429","0.0-13.0-1.0-1.0-0.1-1.95","null","<span style='color:GreenYellow; font-size: 70px;'>正确! </span>","null","","","","","","","","","","","","","","","","","","","","","","","feedback_test"
"","","","","","psychophysics","353","507142","0.0-13.0-1.0-1.0-0.1-0.96","552","","f","","","","","","","","","","","","","key","f","11.110882352940964","660.779796278986","408.94494160549533","f","true","img/C_ambi40.png","好人","word_first",""
"","","","","","html-keyboard-response","354","507448","0.0-13.0-1.0-1.0-0.1-1.96","null","<span style='color:GreenYellow; font-size: 70px;'>正确! </span>","null","","","","","","","","","","","","","","","","","","","","","","","feedback_test"
"","","","","","psychophysics","355","509166","0.0-13.0-1.0-1.0-0.1-0.97","566","","f","","","","","","","","","","","","","key","f","11.110915032679936","660.779796278986","408.94494160549533","j","false","img/C_ambi40.png","坏人","word_first",""
"","","","","","html-keyboard-response","356","509470","0.0-13.0-1.0-1.0-0.1-1.97","null","<span style='color:red; font-size: 70px;'>错误! </span>","null","","","","","","","","","","","","","","","","","","","","","","","feedback_test"
"","","","","","psychophysics","357","511135","0.0-13.0-1.0-1.0-0.1-0.98","513","","f","","","","","","","","","","","","","key","f","11.110892617449574","660.779796278986","408.94494160549533","f","true","img/S_ambi40.png","坏人","word_first",""
"","","","","","html-keyboard-response","358","511448","0.0-13.0-1.0-1.0-0.1-1.98","null","<span style='color:GreenYellow; font-size: 70px;'>正确! </span>","null","","","","","","","","","","","","","","","","","","","","","","","feedback_test"
"","","","","","psychophysics","359","513153","0.0-13.0-1.0-1.0-0.1-0.99","553","","j","","","","","","","","","","","","","key","j","11.110940789473764","660.779796278986","408.94494160549533","j","true","img/S_ambi40.png","常人","word_first",""
"","","","","","html-keyboard-response","360","513462","0.0-13.0-1.0-1.0-0.1-1.99","null","<span style='color:GreenYellow; font-size: 70px;'>正确! </span>","null","","","","","","","","","","","","","","","","","","","","","","","feedback_test"
"","","","","","psychophysics","361","515017","0.0-13.0-1.0-1.0-0.1-0.100","395","","f","","","","","","","","","","","","","key","f","11.111007194244554","660.779796278986","408.94494160549533","j","false","img/C_ambi40.png","坏人","word_first",""
"","","","","","html-keyboard-response","362","515321","0.0-13.0-1.0-1.0-0.1-1.100","null","<span style='color:red; font-size: 70px;'>错误! </span>","null","","","","","","","","","","","","","","","","","","","","","","","feedback_test"
"","","","","","psychophysics","363","516982","0.0-13.0-1.0-1.0-0.1-0.101","504","","j","","","","","","","","","","","","","key","j","11.110731543624233","660.779796278986","408.94494160549533","j","true","img/T_ambi40.png","好人","word_first",""
"","","","","","html-keyboard-response","364","517290","0.0-13.0-1.0-1.0-0.1-1.101","null","<span style='color:GreenYellow; font-size: 70px;'>正确! </span>","null","","","","","","","","","","","","","","","","","","","","","","","feedback_test"
"","","","","","psychophysics","365","518875","0.0-13.0-1.0-1.0-0.1-0.102","431","","f","","","","","","","","","","","","","key","f","11.111021276596018","660.779796278986","408.94494160549533","f","true","img/C_ambi40.png","常人","word_first",""
"","","","","","html-keyboard-response","366","519184","0.0-13.0-1.0-1.0-0.1-1.102","null","<span style='color:GreenYellow; font-size: 70px;'>正确! </span>","null","","","","","","","","","","","","","","","","","","","","","","","feedback_test"
"","","","","","psychophysics","367","520846","0.0-13.0-1.0-1.0-0.1-0.103","511","","j","","","","","","","","","","","","","key","j","11.11091946308726","660.779796278986","408.94494160549533","j","true","img/T_ambi40.png","好人","word_first",""
"","","","","","html-keyboard-response","368","521159","0.0-13.0-1.0-1.0-0.1-1.103","null","<span style='color:GreenYellow; font-size: 70px;'>正确! </span>","null","","","","","","","","","","","","","","","","","","","","","","","feedback_test"
"","","","","","psychophysics","369","522963","0.0-13.0-1.0-1.0-0.1-0.104","652","","f","","","","","","","","","","","","","key","f","11.110919254658432","660.779796278986","408.94494160549533","f","true","img/T_ambi40.png","坏人","word_first",""
"","","","","","html-keyboard-response","370","523276","0.0-13.0-1.0-1.0-0.1-1.104","null","<span style='color:GreenYellow; font-size: 70px;'>正确! </span>","null","","","","","","","","","","","","","","","","","","","","","","","feedback_test"
"","","","","","psychophysics","371","524922","0.0-13.0-1.0-1.0-0.1-0.105","489","","f","","","","","","","","","","","","","key","f","11.110870748299781","660.779796278986","408.94494160549533","f","true","img/T_ambi40.png","常人","word_first",""
"","","","","","html-keyboard-response","372","525235","0.0-13.0-1.0-1.0-0.1-1.105","null","<span style='color:GreenYellow; font-size: 70px;'>正确! </span>","null","","","","","","","","","","","","","","","","","","","","","","","feedback_test"
"","","","","","psychophysics","373","527046","0.0-13.0-1.0-1.0-0.1-0.106","657","","j","","","","","","","","","","","","","key","j","11.110981481481073","660.779796278986","408.94494160549533","j","true","img/S_ambi40.png","常人","word_first",""
"","","","","","html-keyboard-response","374","527357","0.0-13.0-1.0-1.0-0.1-1.106","null","<span style='color:GreenYellow; font-size: 70px;'>正确! </span>","null","","","","","","","","","","","","","","","","","","","","","","","feedback_test"
"","","","","","psychophysics","375","529045","0.0-13.0-1.0-1.0-0.1-0.107","534","","f","","","","","","","","","","","","","key","f","11.110960264900694","660.779796278986","408.94494160549533","f","true","img/S_ambi40.png","好人","word_first",""
"","","","","","html-keyboard-response","376","529348","0.0-13.0-1.0-1.0-0.1-1.107","null","<span style='color:GreenYellow; font-size: 70px;'>正确! </span>","null","","","","","","","","","","","","","","","","","","","","","","","feedback_test"
"","","","","","psychophysics","377","530965","0.0-13.0-1.0-1.0-0.1-0.108","465","","f","","","","","","","","","","","","","key","f","11.111006944444348","660.779796278986","408.94494160549533","f","true","img/T_ambi40.png","常人","word_first",""
"","","","","","html-keyboard-response","378","531271","0.0-13.0-1.0-1.0-0.1-1.108","null","<span style='color:GreenYellow; font-size: 70px;'>正确! </span>","null","","","","","","","","","","","","","","","","","","","","","","","feedback_test"
"","","","","","psychophysics","379","532923","0.0-13.0-1.0-1.0-0.1-0.109","501","","j","","","","","","","","","","","","","key","j","11.11072297297289","660.779796278986","408.94494160549533","j","true","img/T_ambi40.png","好人","word_first",""
"","","","","","html-keyboard-response","380","533236","0.0-13.0-1.0-1.0-0.1-1.109","null","<span style='color:GreenYellow; font-size: 70px;'>正确! </span>","null","","","","","","","","","","","","","","","","","","","","","","","feedback_test"
"","","","","","psychophysics","381","535047","0.0-13.0-1.0-1.0-0.1-0.110","659","","j","","","","","","","","","","","","","key","j","11.110907407407074","660.779796278986","408.94494160549533","f","false","img/C_ambi40.png","好人","word_first",""
"","","","","","html-keyboard-response","382","535363","0.0-13.0-1.0-1.0-0.1-1.110","null","<span style='color:red; font-size: 70px;'>错误! </span>","null","","","","","","","","","","","","","","","","","","","","","","","feedback_test"
"","","","","","psychophysics","383","537052","0.0-13.0-1.0-1.0-0.1-0.111","536","","j","","","","","","","","","","","","","key","j","11.110980132450536","660.779796278986","408.94494160549533","j","true","img/S_ambi40.png","常人","word_first",""
"","","","","","html-keyboard-response","384","537356","0.0-13.0-1.0-1.0-0.1-1.111","null","<span style='color:GreenYellow; font-size: 70px;'>正确! </span>","null","","","","","","","","","","","","","","","","","","","","","","","feedback_test"
"","","","","","psychophysics","385","538955","0.0-13.0-1.0-1.0-0.1-0.112","444","","f","","","","","","","","","","","","","key","f","11.110908450704711","660.779796278986","408.94494160549533","f","true","img/S_ambi40.png","好人","word_first",""
"","","","","","html-keyboard-response","386","539268","0.0-13.0-1.0-1.0-0.1-1.112","null","<span style='color:GreenYellow; font-size: 70px;'>正确! </span>","null","","","","","","","","","","","","","","","","","","","","","","","feedback_test"
"","","","","","psychophysics","387","540884","0.0-13.0-1.0-1.0-0.1-0.113","462","","f","","","","","","","","","","","","","key","f","11.110868055556137","660.779796278986","408.94494160549533","j","false","img/C_ambi40.png","坏人","word_first",""
"","","","","","html-keyboard-response","388","541196","0.0-13.0-1.0-1.0-0.1-1.113","null","<span style='color:red; font-size: 70px;'>错误! </span>","null","","","","","","","","","","","","","","","","","","","","","","","feedback_test"
"","","","","","psychophysics","389","542854","0.0-13.0-1.0-1.0-0.1-0.114","504","","f","","","","","","","","","","","","","key","f","11.110918918918705","660.779796278986","408.94494160549533","f","true","img/S_ambi40.png","坏人","word_first",""
"","","","","","html-keyboard-response","390","543162","0.0-13.0-1.0-1.0-0.1-1.114","null","<span style='color:GreenYellow; font-size: 70px;'>正确! </span>","null","","","","","","","","","","","","","","","","","","","","","","","feedback_test"
"","","","","","psychophysics","391","544887","0.0-13.0-1.0-1.0-0.1-0.115","565","","j","","","","","","","","","","","","","key","j","11.110753246753132","660.779796278986","408.94494160549533","j","true","img/C_ambi40.png","坏人","word_first",""
"","","","","","html-keyboard-response","392","545197","0.0-13.0-1.0-1.0-0.1-1.115","null","<span style='color:GreenYellow; font-size: 70px;'>正确! </span>","null","","","","","","","","","","","","","","","","","","","","","","","feedback_test"
"","","","","","psychophysics","393","546822","0.0-13.0-1.0-1.0-0.1-0.116","466","","f","","","","","","","","","","","","","key","f","11.110793103447891","660.779796278986","408.94494160549533","f","true","img/T_ambi40.png","坏人","word_first",""
"","","","","","html-keyboard-response","394","547127","0.0-13.0-1.0-1.0-0.1-1.116","null","<span style='color:GreenYellow; font-size: 70px;'>正确! </span>","null","","","","","","","","","","","","","","","","","","","","","","","feedback_test"
"","","","","","psychophysics","395","548801","0.0-13.0-1.0-1.0-0.1-0.117","523","","j","","","","","","","","","","","","","key","j","11.110733333334016","660.779796278986","408.94494160549533","j","true","img/T_ambi40.png","好人","word_first",""
"","","","","","html-keyboard-response","396","549115","0.0-13.0-1.0-1.0-0.1-1.117","null","<span style='color:GreenYellow; font-size: 70px;'>正确! </span>","null","","","","","","","","","","","","","","","","","","","","","","","feedback_test"
"","","","","","psychophysics","397","550724","0.0-13.0-1.0-1.0-0.1-0.118","458","","f","","","","","","","","","","","","","key","f","11.110916666666323","660.779796278986","408.94494160549533","f","true","img/C_ambi40.png","常人","word_first",""
"","","","","","html-keyboard-response","398","551030","0.0-13.0-1.0-1.0-0.1-1.118","null","<span style='color:GreenYellow; font-size: 70px;'>正确! </span>","null","","","","","","","","","","","","","","","","","","","","","","","feedback_test"
"","","","","","psychophysics","399","552728","0.0-13.0-1.0-1.0-0.1-0.119","544","","j","","","","","","","","","","","","","key","j","11.110460526316034","660.779796278986","408.94494160549533","j","true","img/S_ambi40.png","常人","word_first",""
"","","","","","html-keyboard-response","400","553041","0.0-13.0-1.0-1.0-0.1-1.119","null","<span style='color:GreenYellow; font-size: 70px;'>正确! </span>","null","","","","","","","","","","","","","","","","","","","","","","","feedback_test"
"","","","","","html-keyboard-response","401","553908","0.0-13.0-1.0-1.0-1.1","865","<style>.context{color:white; font-size: 35px; line-height:40px}</style>                              <div><p class='context'>您正确回答了83% 的试次。</p><p class='context'>您的平均反应时为537毫秒。</p><p class='context'>请按任意键进入休息</p></div>"," ","","","","","","","","","","","","","","","","","","","","","","",""
"","","","","","html-button-response","402","560789","0.0-13.0-1.0-1.0-2.1","6880","
                      <p>您当前还剩余2组实验</p>
                      <p>现在是休息时间，当您结束休息后，您可以点击 结束休息 按钮 继续</p>
                      <p>建议休息时间还剩余<span id=""iii"">60</span>秒</p>","0","","","","","","","","","","","","","","","","","","","","","","",""
"","","","","","psychophysics","403","562632","0.0-13.0-1.0-1.0-0.2-0.120","688","","j","","","","","","","","","","","","","key","j","11.110871951219274","660.779796278986","408.94494160549533","j","true","img/C_ambi40.png","坏人","word_first",""
"","","","","","html-keyboard-response","404","562946","0.0-13.0-1.0-1.0-0.2-1.120","null","<span style='color:GreenYellow; font-size: 70px;'>正确! </span>","null","","","","","","","","","","","","","","","","","","","","","","","feedback_test"
"","","","","","psychophysics","405","564592","0.0-13.0-1.0-1.0-0.2-0.121","495","","j","","","","","","","","","","","","","key","j","11.111102040815895","660.779796278986","408.94494160549533","j","true","img/T_ambi40.png","好人","word_first",""
"","","","","","html-keyboard-response","406","564905","0.0-13.0-1.0-1.0-0.2-1.121","null","<span style='color:GreenYellow; font-size: 70px;'>正确! </span>","null","","","","","","","","","","","","","","","","","","","","","","","feedback_test"
"","","","","","psychophysics","407","566475","0.0-13.0-1.0-1.0-0.2-0.122","418","","j","","","","","","","","","","","","","key","j","11.110971428571169","660.779796278986","408.94494160549533","j","true","img/S_ambi40.png","常人","word_first",""
"","","","","","html-keyboard-response","408","566786","0.0-13.0-1.0-1.0-0.2-1.122","null","<span style='color:GreenYellow; font-size: 70px;'>正确! </span>","null","","","","","","","","","","","","","","","","","","","","","","","feedback_test"
"","","","","","psychophysics","409","568304","0.0-13.0-1.0-1.0-0.2-0.123","363","","j","","","","","","","","","","","","","key","j","11.110801470587509","660.779796278986","408.94494160549533","f","false","img/S_ambi40.png","好人","word_first",""
