"success","timeout","failed_images","failed_audio","failed_video","trial_type","trial_index","time_elapsed","internal_node_id","rt","stimulus","response","value","item_width_mm","item_height_mm","item_width_px","px2mm","view_dist_mm","item_width_deg","px2deg","scale_factor","win_width_deg","win_height_deg","view_history","response_type","key_press","avg_frame_time","center_x","center_y","correct_response","correct","Image","word","condition","screen_id"
"true","false","[]","[]","[]","preload","0","721","0.0-0.0","","","","","","","","","","","","","","","","","","","","","","","","","",""
"","","","","","html-keyboard-response","1","14430","0.0-1.0","13708","
     <p>您好，欢迎参加本次实验。</p>
     <p>为充分保障您的权利，请确保您已经知晓并同意《参与实验同意书》以及《数据公开知情同意书》。</p>
     <p>如果您未见过上述内容，请咨询实验员。</p>
     <p>如果您选择继续实验，则表示您已经清楚两份知情同意书的内容并同意。</p>
     <p> <div style = ""color: green""><按任意键至下页></div> </p>
     "," ","","","","","","","","","","","","","","","","","","","","","","",""
"","","","","","html-keyboard-response","2","15687","0.0-2.0","1257","
     <p>本实验首先需要您填写一些基本个人信息。</p>
     <p> <div style = ""color: green""><按任意键至下页></div></p>
     "," ","","","","","","","","","","","","","","","","","","","","","","",""
"","","","","","call-function","3","15688","0.0-3.0-0.0","","","","","","","","","","","","","","","","","","","","","","","","","",""
"","","","","","survey-html-form","4","26020","0.0-3.0-1.0","10331","","{""Q0"":""35""}","","","","","","","","","","","","","","","","","","","","","","",""
"","","","","","html-button-response","5","28082","0.0-3.0-2.0","2060","<p style = 'color : white'>您的性别</p>","1","","","","","","","","","","","","","","","","","","","","","","",""
"","","","","","survey-html-form","6","33503","0.0-3.0-3.0","5420","","{""Q0"":""2002""}","","","","","","","","","","","","","","","","","","","","","","",""
"","","","","","survey-html-form","7","36687","0.0-3.0-4.0","3183","","{""Q0"":""5""}","","","","","","","","","","","","","","","","","","","","","","",""
"","","","","","virtual-chinrest","8","104985","0.0-4.0","68297","","","","85.6","53.98","700.6528003195995","8.187186036883718","348.25","14.01305600639199","49.99999999999999","0.5166610335887838","23.100000000000005","12.000000000000002","","","","","","","","","","","",""
"true","","","","","fullscreen","9","108774","0.0-5.0","","","","","","","","","","","","","","","","","","","","","","","","","",""
"","","","","","instructions","10","175426","0.0-6.0","66652","","","","","","","","","","","","","","[{""page_index"":0,""viewing_time"":3933},{""page_index"":1,""viewing_time"":47284},{""page_index"":2,""viewing_time"":7262},{""page_index"":3,""viewing_time"":8173}]","","","","","","","","","","",""
"","","","","","psychophysics","11","177764","0.0-7.0-0.0-0.0","1184","","j","","","","","","","","","","","","","key","j","16.658884892086274","624.8847706567168","347.41121033908047","j","true","img/T_ambi40.png","好人","prac_image_first",""
"","","","","","html-keyboard-response","12","178068","0.0-7.0-0.0-1.0","null","<span style='color:GreenYellow; font-size: 70px;'>正确! </span>","null","","","","","","","","","","","","","","","","","","","","","","","feedback_test"
"","","","","","psychophysics","13","179834","0.0-7.0-0.0-0.1","608","","f","","","","","","","","","","","","","key","f","16.657066037735895","624.8847706567168","347.41121033908047","f","true","img/C_ambi40.png","好人","prac_image_first",""
"","","","","","html-keyboard-response","14","180142","0.0-7.0-0.0-1.1","null","<span style='color:GreenYellow; font-size: 70px;'>正确! </span>","null","","","","","","","","","","","","","","","","","","","","","","","feedback_test"
"","","","","","psychophysics","15","182036","0.0-7.0-0.0-0.2","739","","f","","","","","","","","","","","","","key","f","16.657831858407263","624.8847706567168","347.41121033908047","j","false","img/C_ambi40.png","坏人","prac_image_first",""
"","","","","","html-keyboard-response","16","182337","0.0-7.0-0.0-1.2","null","<span style='color:red; font-size: 70px;'>错误! </span>","null","","","","","","","","","","","","","","","","","","","","","","","feedback_test"
"","","","","","psychophysics","17","184137","0.0-7.0-0.0-0.3","644","","f","","","","","","","","","","","","","key","f","16.658654205607704","624.8847706567168","347.41121033908047","f","true","img/T_ambi40.png","常人","prac_image_first",""
"","","","","","html-keyboard-response","18","184448","0.0-7.0-0.0-1.3","null","<span style='color:GreenYellow; font-size: 70px;'>正确! </span>","null","","","","","","","","","","","","","","","","","","","","","","","feedback_test"
"","","","","","psychophysics","19","186348","0.0-7.0-0.0-0.4","743","","f","","","","","","","","","","","","","key","f","16.655263157894584","624.8847706567168","347.41121033908047","f","true","img/T_ambi40.png","坏人","prac_image_first",""
"","","","","","html-keyboard-response","20","186655","0.0-7.0-0.0-1.4","null","<span style='color:GreenYellow; font-size: 70px;'>正确! </span>","null","","","","","","","","","","","","","","","","","","","","","","","feedback_test"
"","","","","","psychophysics","21","188550","0.0-7.0-0.0-0.5","740","","j","","","","","","","","","","","","","key","j","16.65844247787619","624.8847706567168","347.41121033908047","j","true","img/S_ambi40.png","常人","prac_image_first",""
"","","","","","html-keyboard-response","22","188853","0.0-7.0-0.0-1.5","null","<span style='color:GreenYellow; font-size: 70px;'>正确! </span>","null","","","","","","","","","","","","","","","","","","","","","","","feedback_test"
"","","","","","psychophysics","23","190616","0.0-7.0-0.0-0.6","607","","j","","","","","","","","","","","","","key","j","16.659961904761925","624.8847706567168","347.41121033908047","j","true","img/S_ambi40.png","常人","prac_image_first",""
"","","","","","html-keyboard-response","24","190926","0.0-7.0-0.0-1.6","null","<span style='color:GreenYellow; font-size: 70px;'>正确! </span>","null","","","","","","","","","","","","","","","","","","","","","","","feedback_test"
"","","","","","psychophysics","25","192793","0.0-7.0-0.0-0.7","712","","f","","","","","","","","","","","","","key","f","16.656810810810704","624.8847706567168","347.41121033908047","f","true","img/S_ambi40.png","好人","prac_image_first",""
"","","","","","html-keyboard-response","26","193096","0.0-7.0-0.0-1.7","null","<span style='color:GreenYellow; font-size: 70px;'>正确! </span>","null","","","","","","","","","","","","","","","","","","","","","","","feedback_test"
"","","","","","psychophysics","27","194953","0.0-7.0-0.0-0.8","701","","j","","","","","","","","","","","","","key","j","16.655774774774752","624.8847706567168","347.41121033908047","j","true","img/T_ambi40.png","好人","prac_image_first",""
"","","","","","html-keyboard-response","28","195254","0.0-7.0-0.0-1.8","null","<span style='color:GreenYellow; font-size: 70px;'>正确! </span>","null","","","","","","","","","","","","","","","","","","","","","","","feedback_test"
"","","","","","psychophysics","29","197456","0.0-7.0-0.0-0.9","1050","","f","","","","","","","","","","","","","key","f","16.786736434108537","624.8847706567168","347.41121033908047","f","true","img/S_ambi40.png","坏人","prac_image_first",""
"","","","","","html-keyboard-response","30","197763","0.0-7.0-0.0-1.9","null","<span style='color:GreenYellow; font-size: 70px;'>正确! </span>","null","","","","","","","","","","","","","","","","","","","","","","","feedback_test"
"","","","","","psychophysics","31","199804","0.0-7.0-0.0-0.10","889","","f","","","","","","","","","","","","","key","f","16.65619672131157","624.8847706567168","347.41121033908047","f","true","img/C_ambi40.png","常人","prac_image_first",""
"","","","","","html-keyboard-response","32","200113","0.0-7.0-0.0-1.10","null","<span style='color:GreenYellow; font-size: 70px;'>正确! </span>","null","","","","","","","","","","","","","","","","","","","","","","","feedback_test"
"","","","","","psychophysics","33","201988","0.0-7.0-0.0-0.11","720","","j","","","","","","","","","","","","","key","j","16.658303571428405","624.8847706567168","347.41121033908047","j","true","img/C_ambi40.png","坏人","prac_image_first",""
"","","","","","html-keyboard-response","34","202304","0.0-7.0-0.0-1.11","null","<span style='color:GreenYellow; font-size: 70px;'>正确! </span>","null","","","","","","","","","","","","","","","","","","","","","","","feedback_test"
"","","","","","psychophysics","35","203979","0.0-7.0-0.0-0.12","515","","f","","","","","","","","","","","","","key","f","16.65627272727263","624.8847706567168","347.41121033908047","f","true","img/C_ambi40.png","好人","prac_image_first",""
"","","","","","html-keyboard-response","36","204286","0.0-7.0-0.0-1.12","null","<span style='color:GreenYellow; font-size: 70px;'>正确! </span>","null","","","","","","","","","","","","","","","","","","","","","","","feedback_test"
"","","","","","psychophysics","37","206004","0.0-7.0-0.0-0.13","560","","j","","","","","","","","","","","","","key","j","16.65912745098039","624.8847706567168","347.41121033908047","j","true","img/S_ambi40.png","常人","prac_image_first",""
"","","","","","html-keyboard-response","38","206305","0.0-7.0-0.0-1.13","null","<span style='color:GreenYellow; font-size: 70px;'>正确! </span>","null","","","","","","","","","","","","","","","","","","","","","","","feedback_test"
"","","","","","psychophysics","39","208048","0.0-7.0-0.0-0.14","589","","f","","","","","","","","","","","","","key","f","16.6558932038835","624.8847706567168","347.41121033908047","f","true","img/S_ambi40.png","好人","prac_image_first",""
"","","","","","html-keyboard-response","40","208363","0.0-7.0-0.0-1.14","null","<span style='color:GreenYellow; font-size: 70px;'>正确! </span>","null","","","","","","","","","","","","","","","","","","","","","","","feedback_test"
"","","","","","psychophysics","41","210038","0.0-7.0-0.0-0.15","523","","j","","","","","","","","","","","","","key","j","16.534171717171734","624.8847706567168","347.41121033908047","j","true","img/T_ambi40.png","好人","prac_image_first",""
"","","","","","html-keyboard-response","42","210343","0.0-7.0-0.0-1.15","null","<span style='color:GreenYellow; font-size: 70px;'>正确! </span>","null","","","","","","","","","","","","","","","","","","","","","","","feedback_test"
"","","","","","psychophysics","43","212080","0.0-7.0-0.0-0.16","583","","j","","","","","","","","","","","","","key","j","16.658932038834905","624.8847706567168","347.41121033908047","j","true","img/C_ambi40.png","坏人","prac_image_first",""
"","","","","","html-keyboard-response","44","212385","0.0-7.0-0.0-1.16","null","<span style='color:GreenYellow; font-size: 70px;'>正确! </span>","null","","","","","","","","","","","","","","","","","","","","","","","feedback_test"
"","","","","","psychophysics","45","214003","0.0-7.0-0.0-0.17","467","","f","","","","","","","","","","","","","key","f","16.65666666666675","624.8847706567168","347.41121033908047","f","true","img/T_ambi40.png","坏人","prac_image_first",""
"","","","","","html-keyboard-response","46","214319","0.0-7.0-0.0-1.17","null","<span style='color:GreenYellow; font-size: 70px;'>正确! </span>","null","","","","","","","","","","","","","","","","","","","","","","","feedback_test"
"","","","","","psychophysics","47","216053","0.0-7.0-0.0-0.18","576","","f","","","","","","","","","","","","","key","f","16.658097087378497","624.8847706567168","347.41121033908047","j","false","img/C_ambi40.png","坏人","prac_image_first",""
"","","","","","html-keyboard-response","48","216355","0.0-7.0-0.0-1.18","null","<span style='color:red; font-size: 70px;'>错误! </span>","null","","","","","","","","","","","","","","","","","","","","","","","feedback_test"
"","","","","","psychophysics","49","218131","0.0-7.0-0.0-0.19","620","","f","","","","","","","","","","","","","key","f","16.66117924528294","624.8847706567168","347.41121033908047","f","true","img/T_ambi40.png","常人","prac_image_first",""
"","","","","","html-keyboard-response","50","218435","0.0-7.0-0.0-1.19","null","<span style='color:GreenYellow; font-size: 70px;'>正确! </span>","null","","","","","","","","","","","","","","","","","","","","","","","feedback_test"
"","","","","","psychophysics","51","220071","0.0-7.0-0.0-0.20","483","","j","","","","","","","","","","","","","key","j","16.65815463917541","624.8847706567168","347.41121033908047","j","true","img/T_ambi40.png","好人","prac_image_first",""
"","","","","","html-keyboard-response","52","220381","0.0-7.0-0.0-1.20","null","<span style='color:GreenYellow; font-size: 70px;'>正确! </span>","null","","","","","","","","","","","","","","","","","","","","","","","feedback_test"
"","","","","","psychophysics","53","222006","0.0-7.0-0.0-0.21","463","","f","","","","","","","","","","","","","key","f","16.65923958333345","624.8847706567168","347.41121033908047","f","true","img/S_ambi40.png","坏人","prac_image_first",""
"","","","","","html-keyboard-response","54","222310","0.0-7.0-0.0-1.21","null","<span style='color:GreenYellow; font-size: 70px;'>正确! </span>","null","","","","","","","","","","","","","","","","","","","","","","","feedback_test"
"","","","","","psychophysics","55","223959","0.0-7.0-0.0-0.22","496","","j","","","","","","","","","","","","","key","j","16.65623469387742","624.8847706567168","347.41121033908047","j","true","img/S_ambi40.png","常人","prac_image_first",""
"","","","","","html-keyboard-response","56","224264","0.0-7.0-0.0-1.22","null","<span style='color:GreenYellow; font-size: 70px;'>正确! </span>","null","","","","","","","","","","","","","","","","","","","","","","","feedback_test"
"","","","","","psychophysics","57","226145","0.0-7.0-0.0-0.23","722","","f","","","","","","","","","","","","","key","f","16.66075000000014","624.8847706567168","347.41121033908047","f","true","img/C_ambi40.png","常人","prac_image_first",""
"","","","","","html-keyboard-response","58","226455","0.0-7.0-0.0-1.23","null","<span style='color:GreenYellow; font-size: 70px;'>正确! </span>","null","","","","","","","","","","","","","","","","","","","","","","","feedback_test"
"","","","","","html-keyboard-response","59","232749","0.0-8.0","6292","<style>.context{color:white; font-size: 35px; line-height:40px}</style>                              <div><p class='context'>您正确回答了92% 的试次。</p><p class='context'>您的平均反应时为665毫秒。</p><p class='context'>恭喜您完成这一阶段的练习。按任意键进入<span style='color: yellow;'>先文字后图形条件</span>的练习。</p></div>"," ","","","","","","","","","","","","","","","","","","","","","","",""
"","","","","","psychophysics","60","234703","0.0-9.0-0.0-0.0","801","","j","","","","","","","","","","","","","key","j","16.65863247863246","624.8847706567168","347.41121033908047","j","true","img/S_ambi40.png","常人","prac_word_first",""
"","","","","","html-keyboard-response","61","235009","0.0-9.0-0.0-1.0","null","<span style='color:GreenYellow; font-size: 70px;'>正确! </span>","null","","","","","","","","","","","","","","","","","","","","","","","feedback_test"
"","","","","","psychophysics","62","236623","0.0-9.0-0.0-0.1","456","","j","","","","","","","","","","","","","key","j","16.654541666666773","624.8847706567168","347.41121033908047","j","true","img/S_ambi40.png","常人","prac_word_first",""
"","","","","","html-keyboard-response","63","236927","0.0-9.0-0.0-1.1","null","<span style='color:GreenYellow; font-size: 70px;'>正确! </span>","null","","","","","","","","","","","","","","","","","","","","","","","feedback_test"
"","","","","","psychophysics","64","238551","0.0-9.0-0.0-0.2","470","","f","","","","","","","","","","","","","key","f","16.66175257731961","624.8847706567168","347.41121033908047","f","true","img/T_ambi40.png","常人","prac_word_first",""
"","","","","","html-keyboard-response","65","238859","0.0-9.0-0.0-1.2","null","<span style='color:GreenYellow; font-size: 70px;'>正确! </span>","null","","","","","","","","","","","","","","","","","","","","","","","feedback_test"
"","","","","","psychophysics","66","240627","0.0-9.0-0.0-0.3","612","","f","","","","","","","","","","","","","key","f","16.6593619047617","624.8847706567168","347.41121033908047","f","true","img/S_ambi40.png","好人","prac_word_first",""
"","","","","","html-keyboard-response","67","240938","0.0-9.0-0.0-1.3","null","<span style='color:GreenYellow; font-size: 70px;'>正确! </span>","null","","","","","","","","","","","","","","","","","","","","","","","feedback_test"
"","","","","","psychophysics","68","242658","0.0-9.0-0.0-0.4","567","","f","","","","","","","","","","","","","key","f","16.65530392156849","624.8847706567168","347.41121033908047","f","true","img/C_ambi40.png","常人","prac_word_first",""
"","","","","","html-keyboard-response","69","242967","0.0-9.0-0.0-1.4","null","<span style='color:GreenYellow; font-size: 70px;'>正确! </span>","null","","","","","","","","","","","","","","","","","","","","","","","feedback_test"
"","","","","","psychophysics","70","244810","0.0-9.0-0.0-0.5","681","","j","","","","","","","","","","","","","key","j","16.657926605504652","624.8847706567168","347.41121033908047","j","true","img/T_ambi40.png","好人","prac_word_first",""
"","","","","","html-keyboard-response","71","245124","0.0-9.0-0.0-1.5","null","<span style='color:GreenYellow; font-size: 70px;'>正确! </span>","null","","","","","","","","","","","","","","","","","","","","","","","feedback_test"
"","","","","","psychophysics","72","246679","0.0-9.0-0.0-0.6","401","","j","","","","","","","","","","","","","key","j","16.661086021505373","624.8847706567168","347.41121033908047","j","true","img/T_ambi40.png","好人","prac_word_first",""
"","","","","","html-keyboard-response","73","246983","0.0-9.0-0.0-1.6","null","<span style='color:GreenYellow; font-size: 70px;'>正确! </span>","null","","","","","","","","","","","","","","","","","","","","","","","feedback_test"
"","","","","","psychophysics","74","248731","0.0-9.0-0.0-0.7","596","","f","","","","","","","","","","","","","key","f","16.66108653846151","624.8847706567168","347.41121033908047","f","true","img/S_ambi40.png","坏人","prac_word_first",""
"","","","","","html-keyboard-response","75","249044","0.0-9.0-0.0-1.7","null","<span style='color:GreenYellow; font-size: 70px;'>正确! </span>","null","","","","","","","","","","","","","","","","","","","","","","","feedback_test"
"","","","","","psychophysics","76","250698","0.0-9.0-0.0-0.8","503","","f","","","","","","","","","","","","","key","f","16.662571428571436","624.8847706567168","347.41121033908047","f","true","img/C_ambi40.png","好人","prac_word_first",""
"","","","","","html-keyboard-response","77","251008","0.0-9.0-0.0-1.8","null","<span style='color:GreenYellow; font-size: 70px;'>正确! </span>","null","","","","","","","","","","","","","","","","","","","","","","","feedback_test"
"","","","","","psychophysics","78","252660","0.0-9.0-0.0-0.9","488","","f","","","","","","","","","","","","","key","f","16.65678787878785","624.8847706567168","347.41121033908047","j","false","img/C_ambi40.png","坏人","prac_word_first",""
"","","","","","html-keyboard-response","79","252968","0.0-9.0-0.0-1.9","null","<span style='color:red; font-size: 70px;'>错误! </span>","null","","","","","","","","","","","","","","","","","","","","","","","feedback_test"
"","","","","","psychophysics","80","254673","0.0-9.0-0.0-0.10","551","","j","","","","","","","","","","","","","key","j","16.65805882352944","624.8847706567168","347.41121033908047","j","true","img/C_ambi40.png","坏人","prac_word_first",""
"","","","","","html-keyboard-response","81","254978","0.0-9.0-0.0-1.10","null","<span style='color:GreenYellow; font-size: 70px;'>正确! </span>","null","","","","","","","","","","","","","","","","","","","","","","","feedback_test"
"","","","","","psychophysics","82","256691","0.0-9.0-0.0-0.11","552","","f","","","","","","","","","","","","","key","f","16.662019607842975","624.8847706567168","347.41121033908047","f","true","img/T_ambi40.png","坏人","prac_word_first",""
"","","","","","html-keyboard-response","83","256995","0.0-9.0-0.0-1.11","null","<span style='color:GreenYellow; font-size: 70px;'>正确! </span>","null","","","","","","","","","","","","","","","","","","","","","","","feedback_test"
"","","","","","psychophysics","84","258722","0.0-9.0-0.0-0.12","568","","f","","","","","","","","","","","","","key","f","16.657980582524527","624.8847706567168","347.41121033908047","f","true","img/S_ambi40.png","好人","prac_word_first",""
"","","","","","html-keyboard-response","85","259038","0.0-9.0-0.0-1.12","null","<span style='color:GreenYellow; font-size: 70px;'>正确! </span>","null","","","","","","","","","","","","","","","","","","","","","","","feedback_test"
"","","","","","psychophysics","86","260889","0.0-9.0-0.0-0.13","696","","j","","","","","","","","","","","","","key","j","16.66116363636366","624.8847706567168","347.41121033908047","j","true","img/C_ambi40.png","坏人","prac_word_first",""
"","","","","","html-keyboard-response","87","261190","0.0-9.0-0.0-1.13","null","<span style='color:GreenYellow; font-size: 70px;'>正确! </span>","null","","","","","","","","","","","","","","","","","","","","","","","feedback_test"
"","","","","","psychophysics","88","262928","0.0-9.0-0.0-0.14","582","","j","","","","","","","","","","","","","key","j","16.657538461538653","624.8847706567168","347.41121033908047","j","true","img/S_ambi40.png","常人","prac_word_first",""
"","","","","","html-keyboard-response","89","263238","0.0-9.0-0.0-1.14","null","<span style='color:GreenYellow; font-size: 70px;'>正确! </span>","null","","","","","","","","","","","","","","","","","","","","","","","feedback_test"
"","","","","","psychophysics","90","264786","0.0-9.0-0.0-0.15","392","","j","","","","","","","","","","","","","key","j","16.65367741935501","624.8847706567168","347.41121033908047","j","true","img/T_ambi40.png","好人","prac_word_first",""
"","","","","","html-keyboard-response","91","265095","0.0-9.0-0.0-1.15","null","<span style='color:GreenYellow; font-size: 70px;'>正确! </span>","null","","","","","","","","","","","","","","","","","","","","","","","feedback_test"
"","","","","","psychophysics","92","266798","0.0-9.0-0.0-0.16","549","","j","","","","","","","","","","","","","key","j","16.65929702970333","624.8847706567168","347.41121033908047","j","true","img/S_ambi40.png","常人","prac_word_first",""
"","","","","","html-keyboard-response","93","267100","0.0-9.0-0.0-1.16","null","<span style='color:GreenYellow; font-size: 70px;'>正确! </span>","null","","","","","","","","","","","","","","","","","","","","","","","feedback_test"
"","","","","","psychophysics","94","268682","0.0-9.0-0.0-0.17","428","","f","","","","","","","","","","","","","key","f","16.65672043010765","624.8847706567168","347.41121033908047","f","true","img/T_ambi40.png","坏人","prac_word_first",""
"","","","","","html-keyboard-response","95","268985","0.0-9.0-0.0-1.17","null","<span style='color:GreenYellow; font-size: 70px;'>正确! </span>","null","","","","","","","","","","","","","","","","","","","","","","","feedback_test"
"","","","","","psychophysics","96","270705","0.0-9.0-0.0-0.18","566","","f","","","","","","","","","","","","","key","f","16.655392156863087","624.8847706567168","347.41121033908047","f","true","img/C_ambi40.png","好人","prac_word_first",""
"","","","","","html-keyboard-response","97","271015","0.0-9.0-0.0-1.18","null","<span style='color:GreenYellow; font-size: 70px;'>正确! </span>","null","","","","","","","","","","","","","","","","","","","","","","","feedback_test"
"","","","","","psychophysics","98","272743","0.0-9.0-0.0-0.19","574","","f","","","","","","","","","","","","","key","f","16.65804901960769","624.8847706567168","347.41121033908047","f","true","img/C_ambi40.png","常人","prac_word_first",""
"","","","","","html-keyboard-response","99","273043","0.0-9.0-0.0-1.19","null","<span style='color:GreenYellow; font-size: 70px;'>正确! </span>","null","","","","","","","","","","","","","","","","","","","","","","","feedback_test"
"","","","","","psychophysics","100","274658","0.0-9.0-0.0-0.20","463","","j","","","","","","","","","","","","","key","j","16.5265578947367","624.8847706567168","347.41121033908047","j","true","img/T_ambi40.png","好人","prac_word_first",""
"","","","","","html-keyboard-response","101","274961","0.0-9.0-0.0-1.20","null","<span style='color:GreenYellow; font-size: 70px;'>正确! </span>","null","","","","","","","","","","","","","","","","","","","","","","","feedback_test"
"","","","","","psychophysics","102","276614","0.0-9.0-0.0-0.21","503","","f","","","","","","","","","","","","","key","f","16.657408163265078","624.8847706567168","347.41121033908047","f","true","img/T_ambi40.png","常人","prac_word_first",""
"","","","","","html-keyboard-response","103","276931","0.0-9.0-0.0-1.21","null","<span style='color:GreenYellow; font-size: 70px;'>正确! </span>","null","","","","","","","","","","","","","","","","","","","","","","","feedback_test"
"","","","","","psychophysics","104","278838","0.0-9.0-0.0-0.22","752","","f","","","","","","","","","","","","","key","f","16.654176991150624","624.8847706567168","347.41121033908047","j","false","img/C_ambi40.png","坏人","prac_word_first",""
"","","","","","html-keyboard-response","105","279148","0.0-9.0-0.0-1.22","null","<span style='color:red; font-size: 70px;'>错误! </span>","null","","","","","","","","","","","","","","","","","","","","","","","feedback_test"
"","","","","","psychophysics","106","280870","0.0-9.0-0.0-0.23","567","","f","","","","","","","","","","","","","key","f","16.659627450980455","624.8847706567168","347.41121033908047","f","true","img/S_ambi40.png","坏人","prac_word_first",""
"","","","","","html-keyboard-response","107","281177","0.0-9.0-0.0-1.23","null","<span style='color:GreenYellow; font-size: 70px;'>正确! </span>","null","","","","","","","","","","","","","","","","","","","","","","","feedback_test"
"","","","","","html-keyboard-response","108","286917","0.0-10.0","5738","<style>.context{color:white; font-size: 35px; line-height:40px}</style>                              <div><p class='context'>您正确回答了92% 的试次。</p><p class='context'>您的平均反应时为549毫秒。</p><p class='context'>恭喜您完成练习。按任意键进入<span style='color: yellow;'>图形和文字同时呈现条件</span>的练习。</p></div>"," ","","","","","","","","","","","","","","","","","","","","","","",""
"","","","","","psychophysics","109","288823","0.0-11.0-0.0-0.0","893","","f","","","","","","","","","","","","","key","f","16.657526315789333","624.8847706567168","347.41121033908047","f","true","img/S_ambi40.png","坏人","prac_simultaneous",""
"","","","","","html-keyboard-response","110","289134","0.0-11.0-0.0-1.0","null","<span style='color:GreenYellow; font-size: 70px;'>正确! </span>","null","","","","","","","","","","","","","","","","","","","","","","","feedback_test"
"","","","","","psychophysics","111","290951","0.0-11.0-0.0-0.1","815","","j","","","","","","","","","","","","","key","j","16.65983333333322","624.8847706567168","347.41121033908047","f","false","img/C_ambi40.png","好人","prac_simultaneous",""
"","","","","","html-keyboard-response","112","291263","0.0-11.0-0.0-1.1","null","<span style='color:red; font-size: 70px;'>错误! </span>","null","","","","","","","","","","","","","","","","","","","","","","","feedback_test"
"","","","","","psychophysics","113","293021","0.0-11.0-0.0-0.2","753","","f","","","","","","","","","","","","","key","f","16.660161904762276","624.8847706567168","347.41121033908047","f","true","img/T_ambi40.png","坏人","prac_simultaneous",""
"","","","","","html-keyboard-response","114","293335","0.0-11.0-0.0-1.2","null","<span style='color:GreenYellow; font-size: 70px;'>正确! </span>","null","","","","","","","","","","","","","","","","","","","","","","","feedback_test"
"","","","","","psychophysics","115","295054","0.0-11.0-0.0-0.3","705","","j","","","","","","","","","","","","","key","j","16.657372549019854","624.8847706567168","347.41121033908047","j","true","img/S_ambi40.png","常人","prac_simultaneous",""
"","","","","","html-keyboard-response","116","295362","0.0-11.0-0.0-1.3","null","<span style='color:GreenYellow; font-size: 70px;'>正确! </span>","null","","","","","","","","","","","","","","","","","","","","","","","feedback_test"
"","","","","","psychophysics","117","297263","0.0-11.0-0.0-0.4","900","","j","","","","","","","","","","","","","key","j","16.660017699115","624.8847706567168","347.41121033908047","j","true","img/C_ambi40.png","坏人","prac_simultaneous",""
"","","","","","html-keyboard-response","118","297577","0.0-11.0-0.0-1.4","null","<span style='color:GreenYellow; font-size: 70px;'>正确! </span>","null","","","","","","","","","","","","","","","","","","","","","","","feedback_test"
"","","","","","psychophysics","119","299240","0.0-11.0-0.0-0.5","659","","f","","","","","","","","","","","","","key","f","16.65780808080771","624.8847706567168","347.41121033908047","f","true","img/T_ambi40.png","常人","prac_simultaneous",""
"","","","","","html-keyboard-response","120","299544","0.0-11.0-0.0-1.5","null","<span style='color:GreenYellow; font-size: 70px;'>正确! </span>","null","","","","","","","","","","","","","","","","","","","","","","","feedback_test"
"","","","","","psychophysics","121","301372","0.0-11.0-0.0-0.6","824","","f","","","","","","","","","","","","","key","f","16.663715596330555","624.8847706567168","347.41121033908047","f","true","img/S_ambi40.png","好人","prac_simultaneous",""
"","","","","","html-keyboard-response","122","301681","0.0-11.0-0.0-1.6","null","<span style='color:GreenYellow; font-size: 70px;'>正确! </span>","null","","","","","","","","","","","","","","","","","","","","","","","feedback_test"
"","","","","","psychophysics","123","303276","0.0-11.0-0.0-0.7","580","","j","","","","","","","","","","","","","key","j","16.654882978722874","624.8847706567168","347.41121033908047","j","true","img/T_ambi40.png","好人","prac_simultaneous",""
"","","","","","html-keyboard-response","124","303588","0.0-11.0-0.0-1.7","null","<span style='color:GreenYellow; font-size: 70px;'>正确! </span>","null","","","","","","","","","","","","","","","","","","","","","","","feedback_test"
"","","","","","psychophysics","125","305237","0.0-11.0-0.0-0.8","648","","j","","","","","","","","","","","","","key","j","16.658020408163015","624.8847706567168","347.41121033908047","j","true","img/T_ambi40.png","好人","prac_simultaneous",""
"","","","","","html-keyboard-response","126","305541","0.0-11.0-0.0-1.8","null","<span style='color:GreenYellow; font-size: 70px;'>正确! </span>","null","","","","","","","","","","","","","","","","","","","","","","","feedback_test"
"","","","","","psychophysics","127","307504","0.0-11.0-0.0-0.9","960","","f","","","","","","","","","","","","","key","f","16.657452991453166","624.8847706567168","347.41121033908047","f","true","img/C_ambi40.png","常人","prac_simultaneous",""
"","","","","","html-keyboard-response","128","307817","0.0-11.0-0.0-1.9","null","<span style='color:GreenYellow; font-size: 70px;'>正确! </span>","null","","","","","","","","","","","","","","","","","","","","","","","feedback_test"
"","","","","","psychophysics","129","309965","0.0-11.0-0.0-0.10","1138","","j","","","","","","","","","","","","","key","j","16.66165624999985","624.8847706567168","347.41121033908047","j","true","img/C_ambi40.png","坏人","prac_simultaneous",""
"","","","","","html-keyboard-response","130","310268","0.0-11.0-0.0-1.10","null","<span style='color:GreenYellow; font-size: 70px;'>正确! </span>","null","","","","","","","","","","","","","","","","","","","","","","","feedback_test"
"","","","","","psychophysics","131","312113","0.0-11.0-0.0-0.11","837","","j","","","","","","","","","","","","","key","j","16.657890909091062","624.8847706567168","347.41121033908047","j","true","img/S_ambi40.png","常人","prac_simultaneous",""
"","","","","","html-keyboard-response","132","312419","0.0-11.0-0.0-1.11","null","<span style='color:GreenYellow; font-size: 70px;'>正确! </span>","null","","","","","","","","","","","","","","","","","","","","","","","feedback_test"
"","","","","","psychophysics","133","314197","0.0-11.0-0.0-0.12","773","","j","","","","","","","","","","","","","key","j","16.660632075471717","624.8847706567168","347.41121033908047","j","true","img/C_ambi40.png","坏人","prac_simultaneous",""
"","","","","","html-keyboard-response","134","314507","0.0-11.0-0.0-1.12","null","<span style='color:GreenYellow; font-size: 70px;'>正确! </span>","null","","","","","","","","","","","","","","","","","","","","","","","feedback_test"
"","","","","","psychophysics","135","316794","0.0-11.0-0.0-0.13","1273","","f","","","","","","","","","","","","","key","f","16.65786029411752","624.8847706567168","347.41121033908047","f","true","img/S_ambi40.png","好人","prac_simultaneous",""
"","","","","","html-keyboard-response","136","317108","0.0-11.0-0.0-1.13","null","<span style='color:GreenYellow; font-size: 70px;'>正确! </span>","null","","","","","","","","","","","","","","","","","","","","","","","feedback_test"
"","","","","","psychophysics","137","318875","0.0-11.0-0.0-0.14","764","","j","","","","","","","","","","","","","key","j","16.65731428571411","624.8847706567168","347.41121033908047","j","true","img/C_ambi40.png","坏人","prac_simultaneous",""
"","","","","","html-keyboard-response","138","319184","0.0-11.0-0.0-1.14","null","<span style='color:GreenYellow; font-size: 70px;'>正确! </span>","null","","","","","","","","","","","","","","","","","","","","","","","feedback_test"
"","","","","","psychophysics","139","321139","0.0-11.0-0.0-0.15","951","","f","","","","","","","","","","","","","key","f","16.66032758620688","624.8847706567168","347.41121033908047","f","true","img/S_ambi40.png","坏人","prac_simultaneous",""
"","","","","","html-keyboard-response","140","321450","0.0-11.0-0.0-1.15","null","<span style='color:GreenYellow; font-size: 70px;'>正确! </span>","null","","","","","","","","","","","","","","","","","","","","","","","feedback_test"
"","","","","","psychophysics","141","323067","0.0-11.0-0.0-0.16","615","","j","","","","","","","","","","","","","key","j","16.539852631578565","624.8847706567168","347.41121033908047","j","true","img/T_ambi40.png","好人","prac_simultaneous",""
"","","","","","html-keyboard-response","142","323370","0.0-11.0-0.0-1.16","null","<span style='color:GreenYellow; font-size: 70px;'>正确! </span>","null","","","","","","","","","","","","","","","","","","","","","","","feedback_test"
"","","","","","psychophysics","143","324863","0.0-11.0-0.0-0.17","478","","j","","","","","","","","","","","","","key","j","16.653477272727205","624.8847706567168","347.41121033908047","j","true","img/T_ambi40.png","好人","prac_simultaneous",""
"","","","","","html-keyboard-response","144","325167","0.0-11.0-0.0-1.17","null","<span style='color:GreenYellow; font-size: 70px;'>正确! </span>","null","","","","","","","","","","","","","","","","","","","","","","","feedback_test"
"","","","","","psychophysics","145","326910","0.0-11.0-0.0-0.18","742","","j","","","","","","","","","","","","","key","j","16.660514563106755","624.8847706567168","347.41121033908047","j","true","img/S_ambi40.png","常人","prac_simultaneous",""
"","","","","","html-keyboard-response","146","327212","0.0-11.0-0.0-1.18","null","<span style='color:GreenYellow; font-size: 70px;'>正确! </span>","null","","","","","","","","","","","","","","","","","","","","","","","feedback_test"
"","","","","","psychophysics","147","328803","0.0-11.0-0.0-0.19","588","","j","","","","","","","","","","","","","key","j","16.659552083333136","624.8847706567168","347.41121033908047","j","true","img/S_ambi40.png","常人","prac_simultaneous",""
"","","","","","html-keyboard-response","148","329120","0.0-11.0-0.0-1.19","null","<span style='color:GreenYellow; font-size: 70px;'>正确! </span>","null","","","","","","","","","","","","","","","","","","","","","","","feedback_test"
"","","","","","psychophysics","149","330707","0.0-11.0-0.0-0.20","575","","f","","","","","","","","","","","","","key","f","16.66260638297845","624.8847706567168","347.41121033908047","f","true","img/T_ambi40.png","常人","prac_simultaneous",""
"","","","","","html-keyboard-response","150","331022","0.0-11.0-0.0-1.20","null","<span style='color:GreenYellow; font-size: 70px;'>正确! </span>","null","","","","","","","","","","","","","","","","","","","","","","","feedback_test"
"","","","","","psychophysics","151","332665","0.0-11.0-0.0-0.21","634","","f","","","","","","","","","","","","","key","f","16.65115306122414","624.8847706567168","347.41121033908047","f","true","img/C_ambi40.png","好人","prac_simultaneous",""
"","","","","","html-keyboard-response","152","332971","0.0-11.0-0.0-1.21","null","<span style='color:GreenYellow; font-size: 70px;'>正确! </span>","null","","","","","","","","","","","","","","","","","","","","","","","feedback_test"
"","","","","","psychophysics","153","334704","0.0-11.0-0.0-0.22","729","","j","","","","","","","","","","","","","key","j","16.659844660194526","624.8847706567168","347.41121033908047","f","false","img/C_ambi40.png","常人","prac_simultaneous",""
"","","","","","html-keyboard-response","154","335007","0.0-11.0-0.0-1.22","null","<span style='color:red; font-size: 70px;'>错误! </span>","null","","","","","","","","","","","","","","","","","","","","","","","feedback_test"
"","","","","","psychophysics","155","336761","0.0-11.0-0.0-0.23","749","","f","","","","","","","","","","","","","key","f","16.658038461538336","624.8847706567168","347.41121033908047","f","true","img/T_ambi40.png","坏人","prac_simultaneous",""
"","","","","","html-keyboard-response","156","337076","0.0-11.0-0.0-1.23","null","<span style='color:GreenYellow; font-size: 70px;'>正确! </span>","null","","","","","","","","","","","","","","","","","","","","","","","feedback_test"
"","","","","","html-keyboard-response","157","341524","0.0-12.0","4446","<style>.context{color:white; font-size: 35px; line-height:40px}</style>                              <div><p class='context'>您正确回答了92% 的试次。</p><p class='context'>您的平均反应时为775毫秒。</p><p class='context'>恭喜您完成练习。按任意键进入正式实验。</p><p class='footer' style='font-size: 35px; line-height:40px;'>请在进入正式实验实验之前将您的<span style='color: lightgreen;'>食指</span>放在电脑键盘的相应键位上进行按键。</p>"," ","","","","","","","","","","","","","","","","","","","","","","",""
"","","","","","html-keyboard-response","158","344783","0.0-13.0-0.0-0.0","3254","
      <p>请您将手指放在按键上，准备进入呈现顺序为<span style='color: yellow;'>先图形后文字条件</span>的正式匹配任务</p>
      <p> <div style = ""color: green""><按任意键进入下一阶段的匹配任务></div></p>
      "," ","","","","","","","","","","","","","","","","","","","","","","",""
"","","","","","psychophysics","159","346807","0.0-13.0-0.0-1.0-0.0-0.0","868","","f","","","","","","","","","","","","","key","f","16.658239669421466","624.8847706567168","347.41121033908047","f","true","img/S_ambi40.png","好人","image_first",""
"","","","","","html-keyboard-response","160","347111","0.0-13.0-0.0-1.0-0.0-1.0","null","<span style='color:GreenYellow; font-size: 70px;'>正确! </span>","null","","","","","","","","","","","","","","","","","","","","","","","feedback_test"
"","","","","","psychophysics","161","348876","0.0-13.0-0.0-1.0-0.0-0.1","608","","j","","","","","","","","","","","","","key","j","16.65759047619067","624.8847706567168","347.41121033908047","f","false","img/S_ambi40.png","坏人","image_first",""
"","","","","","html-keyboard-response","162","349185","0.0-13.0-0.0-1.0-0.0-1.1","null","<span style='color:red; font-size: 70px;'>错误! </span>","null","","","","","","","","","","","","","","","","","","","","","","","feedback_test"
"","","","","","psychophysics","163","351113","0.0-13.0-0.0-1.0-0.0-0.2","776","","j","","","","","","","","","","","","","key","j","16.658377192982396","624.8847706567168","347.41121033908047","j","true","img/C_ambi40.png","坏人","image_first",""
"","","","","","html-keyboard-response","164","351417","0.0-13.0-0.0-1.0-0.0-1.2","null","<span style='color:GreenYellow; font-size: 70px;'>正确! </span>","null","","","","","","","","","","","","","","","","","","","","","","","feedback_test"
"","","","","","psychophysics","165","353079","0.0-13.0-0.0-1.0-0.0-0.3","509","","f","","","","","","","","","","","","","key","f","16.538469387755292","624.8847706567168","347.41121033908047","f","true","img/T_ambi40.png","坏人","image_first",""
"","","","","","html-keyboard-response","166","353387","0.0-13.0-0.0-1.0-0.0-1.3","null","<span style='color:GreenYellow; font-size: 70px;'>正确! </span>","null","","","","","","","","","","","","","","","","","","","","","","","feedback_test"
"","","","","","psychophysics","167","355004","0.0-13.0-0.0-1.0-0.0-0.4","462","","j","","","","","","","","","","","","","key","j","16.661000000000058","624.8847706567168","347.41121033908047","j","true","img/T_ambi40.png","好人","image_first",""
"","","","","","html-keyboard-response","168","355319","0.0-13.0-0.0-1.0-0.0-1.4","null","<span style='color:GreenYellow; font-size: 70px;'>正确! </span>","null","","","","","","","","","","","","","","","","","","","","","","","feedback_test"
"","","","","","psychophysics","169","357067","0.0-13.0-0.0-1.0-0.0-0.5","586","","f","","","","","","","","","","","","","key","f","16.657174757281116","624.8847706567168","347.41121033908047","f","true","img/C_ambi40.png","常人","image_first",""
"","","","","","html-keyboard-response","170","357372","0.0-13.0-0.0-1.0-0.0-1.5","null","<span style='color:GreenYellow; font-size: 70px;'>正确! </span>","null","","","","","","","","","","","","","","","","","","","","","","","feedback_test"
"","","","","","psychophysics","171","359144","0.0-13.0-0.0-1.0-0.0-0.6","612","","f","","","","","","","","","","","","","key","f","16.658923809524136","624.8847706567168","347.41121033908047","f","true","img/C_ambi40.png","好人","image_first",""
"","","","","","html-keyboard-response","172","359461","0.0-13.0-0.0-1.0-0.0-1.6","null","<span style='color:GreenYellow; font-size: 70px;'>正确! </span>","null","","","","","","","","","","","","","","","","","","","","","","","feedback_test"
"","","","","","psychophysics","173","361321","0.0-13.0-0.0-1.0-0.0-0.7","706","","j","","","","","","","","","","","","","key","j","16.658054054054002","624.8847706567168","347.41121033908047","j","true","img/S_ambi40.png","常人","image_first",""
"","","","","","html-keyboard-response","174","361623","0.0-13.0-0.0-1.0-0.0-1.7","null","<span style='color:GreenYellow; font-size: 70px;'>正确! </span>","null","","","","","","","","","","","","","","","","","","","","","","","feedback_test"
"","","","","","psychophysics","175","363262","0.0-13.0-0.0-1.0-0.0-0.8","485","","j","","","","","","","","","","","","","key","j","16.659275510204047","624.8847706567168","347.41121033908047","j","true","img/T_ambi40.png","好人","image_first",""
"","","","","","html-keyboard-response","176","363571","0.0-13.0-0.0-1.0-0.0-1.8","null","<span style='color:GreenYellow; font-size: 70px;'>正确! </span>","null","","","","","","","","","","","","","","","","","","","","","","","feedback_test"
"","","","","","psychophysics","177","365371","0.0-13.0-0.0-1.0-0.0-0.9","641","","j","","","","","","","","","","","","","key","j","16.65803738317733","624.8847706567168","347.41121033908047","j","true","img/S_ambi40.png","常人","image_first",""
"","","","","","html-keyboard-response","178","365682","0.0-13.0-0.0-1.0-0.0-1.9","null","<span style='color:GreenYellow; font-size: 70px;'>正确! </span>","null","","","","","","","","","","","","","","","","","","","","","","","feedback_test"
"","","","","","psychophysics","179","367374","0.0-13.0-0.0-1.0-0.0-0.10","527","","j","","","","","","","","","","","","","key","j","16.660439999999944","624.8847706567168","347.41121033908047","j","true","img/C_ambi40.png","坏人","image_first",""
"","","","","","html-keyboard-response","180","367685","0.0-13.0-0.0-1.0-0.0-1.10","null","<span style='color:GreenYellow; font-size: 70px;'>正确! </span>","null","","","","","","","","","","","","","","","","","","","","","","","feedback_test"
"","","","","","psychophysics","181","369293","0.0-13.0-0.0-1.0-0.0-0.11","449","","f","","","","","","","","","","","","","key","f","16.660684210526462","624.8847706567168","347.41121033908047","f","true","img/T_ambi40.png","常人","image_first",""
"","","","","","html-keyboard-response","182","369597","0.0-13.0-0.0-1.0-0.0-1.11","null","<span style='color:GreenYellow; font-size: 70px;'>正确! </span>","null","","","","","","","","","","","","","","","","","","","","","","","feedback_test"
"","","","","","psychophysics","183","371372","0.0-13.0-0.0-1.0-0.0-0.12","618","","j","","","","","","","","","","","","","key","j","16.661780952381168","624.8847706567168","347.41121033908047","j","true","img/C_ambi40.png","坏人","image_first",""
"","","","","","html-keyboard-response","184","371673","0.0-13.0-0.0-1.0-0.0-1.12","null","<span style='color:GreenYellow; font-size: 70px;'>正确! </span>","null","","","","","","","","","","","","","","","","","","","","","","","feedback_test"
"","","","","","psychophysics","185","373368","0.0-13.0-0.0-1.0-0.0-0.13","543","","j","","","","","","","","","","","","","key","j","16.658643564356304","624.8847706567168","347.41121033908047","j","true","img/T_ambi40.png","好人","image_first",""
"","","","","","html-keyboard-response","186","373672","0.0-13.0-0.0-1.0-0.0-1.13","null","<span style='color:GreenYellow; font-size: 70px;'>正确! </span>","null","","","","","","","","","","","","","","","","","","","","","","","feedback_test"
"","","","","","psychophysics","187","375393","0.0-13.0-0.0-1.0-0.0-0.14","569","","j","","","","","","","","","","","","","key","j","16.66045631067963","624.8847706567168","347.41121033908047","j","true","img/C_ambi40.png","坏人","image_first",""
"","","","","","html-keyboard-response","188","375703","0.0-13.0-0.0-1.0-0.0-1.14","null","<span style='color:GreenYellow; font-size: 70px;'>正确! </span>","null","","","","","","","","","","","","","","","","","","","","","","","feedback_test"
"","","","","","psychophysics","189","377322","0.0-13.0-0.0-1.0-0.0-0.15","466","","f","","","","","","","","","","","","","key","f","16.657520833333063","624.8847706567168","347.41121033908047","j","false","img/S_ambi40.png","常人","image_first",""
"","","","","","html-keyboard-response","190","377624","0.0-13.0-0.0-1.0-0.0-1.15","null","<span style='color:red; font-size: 70px;'>错误! </span>","null","","","","","","","","","","","","","","","","","","","","","","","feedback_test"
"","","","","","psychophysics","191","379250","0.0-13.0-0.0-1.0-0.0-0.16","462","","j","","","","","","","","","","","","","key","j","16.656968749999578","624.8847706567168","347.41121033908047","j","true","img/S_ambi40.png","常人","image_first",""
"","","","","","html-keyboard-response","192","379557","0.0-13.0-0.0-1.0-0.0-1.16","null","<span style='color:GreenYellow; font-size: 70px;'>正确! </span>","null","","","","","","","","","","","","","","","","","","","","","","","feedback_test"
"","","","","","psychophysics","193","381106","0.0-13.0-0.0-1.0-0.0-0.17","390","","j","","","","","","","","","","","","","key","j","16.65567741935487","624.8847706567168","347.41121033908047","j","true","img/T_ambi40.png","好人","image_first",""
"","","","","","html-keyboard-response","194","381421","0.0-13.0-0.0-1.0-0.0-1.17","null","<span style='color:GreenYellow; font-size: 70px;'>正确! </span>","null","","","","","","","","","","","","","","","","","","","","","","","feedback_test"
"","","","","","psychophysics","195","383295","0.0-13.0-0.0-1.0-0.0-0.18","712","","f","","","","","","","","","","","","","key","f","16.658468468468175","624.8847706567168","347.41121033908047","f","true","img/S_ambi40.png","坏人","image_first",""
"","","","","","html-keyboard-response","196","383597","0.0-13.0-0.0-1.0-0.0-1.18","null","<span style='color:GreenYellow; font-size: 70px;'>正确! </span>","null","","","","","","","","","","","","","","","","","","","","","","","feedback_test"
"","","","","","psychophysics","197","385363","0.0-13.0-0.0-1.0-0.0-0.19","611","","f","","","","","","","","","","","","","key","f","16.65818095238092","624.8847706567168","347.41121033908047","f","true","img/C_ambi40.png","常人","image_first",""
"","","","","","html-keyboard-response","198","385669","0.0-13.0-0.0-1.0-0.0-1.19","null","<span style='color:GreenYellow; font-size: 70px;'>正确! </span>","null","","","","","","","","","","","","","","","","","","","","","","","feedback_test"
"","","","","","psychophysics","199","387383","0.0-13.0-0.0-1.0-0.0-0.20","560","","f","","","","","","","","","","","","","key","f","16.656455445544804","624.8847706567168","347.41121033908047","f","true","img/T_ambi40.png","常人","image_first",""
"","","","","","html-keyboard-response","200","387694","0.0-13.0-0.0-1.0-0.0-1.20","null","<span style='color:GreenYellow; font-size: 70px;'>正确! </span>","null","","","","","","","","","","","","","","","","","","","","","","","feedback_test"
"","","","","","psychophysics","201","389557","0.0-13.0-0.0-1.0-0.0-0.21","708","","f","","","","","","","","","","","","","key","f","16.658009009008918","624.8847706567168","347.41121033908047","f","true","img/C_ambi40.png","好人","image_first",""
"","","","","","html-keyboard-response","202","389865","0.0-13.0-0.0-1.0-0.0-1.21","null","<span style='color:GreenYellow; font-size: 70px;'>正确! </span>","null","","","","","","","","","","","","","","","","","","","","","","","feedback_test"
"","","","","","psychophysics","203","391567","0.0-13.0-0.0-1.0-0.0-0.22","551","","f","","","","","","","","","","","","","key","f","16.65847524752469","624.8847706567168","347.41121033908047","f","true","img/T_ambi40.png","坏人","image_first",""
"","","","","","html-keyboard-response","204","391872","0.0-13.0-0.0-1.0-0.0-1.22","null","<span style='color:GreenYellow; font-size: 70px;'>正确! </span>","null","","","","","","","","","","","","","","","","","","","","","","","feedback_test"
"","","","","","psychophysics","205","393498","0.0-13.0-0.0-1.0-0.0-0.23","474","","f","","","","","","","","","","","","","key","f","16.65978350515475","624.8847706567168","347.41121033908047","f","true","img/S_ambi40.png","好人","image_first",""
"","","","","","html-keyboard-response","206","393803","0.0-13.0-0.0-1.0-0.0-1.23","null","<span style='color:GreenYellow; font-size: 70px;'>正确! </span>","null","","","","","","","","","","","","","","","","","","","","","","","feedback_test"
"","","","","","psychophysics","207","395622","0.0-13.0-0.0-1.0-0.0-0.24","659","","f","","","","","","","","","","","","","key","f","16.658583333333134","624.8847706567168","347.41121033908047","f","true","img/S_ambi40.png","好人","image_first",""
"","","","","","html-keyboard-response","208","395924","0.0-13.0-0.0-1.0-0.0-1.24","null","<span style='color:GreenYellow; font-size: 70px;'>正确! </span>","null","","","","","","","","","","","","","","","","","","","","","","","feedback_test"
"","","","","","psychophysics","209","397639","0.0-13.0-0.0-1.0-0.0-0.25","565","","j","","","","","","","","","","","","","key","j","16.657303921568467","624.8847706567168","347.41121033908047","j","true","img/S_ambi40.png","常人","image_first",""
"","","","","","html-keyboard-response","210","397949","0.0-13.0-0.0-1.0-0.0-1.25","null","<span style='color:GreenYellow; font-size: 70px;'>正确! </span>","null","","","","","","","","","","","","","","","","","","","","","","","feedback_test"
"","","","","","psychophysics","211","399537","0.0-13.0-0.0-1.0-0.0-0.26","435","","j","","","","","","","","","","","","","key","j","16.659585106382863","624.8847706567168","347.41121033908047","j","true","img/T_ambi40.png","好人","image_first",""
"","","","","","html-keyboard-response","212","399850","0.0-13.0-0.0-1.0-0.0-1.26","null","<span style='color:GreenYellow; font-size: 70px;'>正确! </span>","null","","","","","","","","","","","","","","","","","","","","","","","feedback_test"
"","","","","","psychophysics","213","401388","0.0-13.0-0.0-1.0-0.0-0.27","378","","j","","","","","","","","","","","","","key","j","16.656681318681656","624.8847706567168","347.41121033908047","j","true","img/T_ambi40.png","好人","image_first",""
"","","","","","html-keyboard-response","214","401697","0.0-13.0-0.0-1.0-0.0-1.27","null","<span style='color:GreenYellow; font-size: 70px;'>正确! </span>","null","","","","","","","","","","","","","","","","","","","","","","","feedback_test"
"","","","","","psychophysics","215","403320","0.0-13.0-0.0-1.0-0.0-0.28","472","","f","","","","","","","","","","","","","key","f","16.662656249999902","624.8847706567168","347.41121033908047","f","true","img/C_ambi40.png","好人","image_first",""
"","","","","","html-keyboard-response","216","403628","0.0-13.0-0.0-1.0-0.0-1.28","null","<span style='color:GreenYellow; font-size: 70px;'>正确! </span>","null","","","","","","","","","","","","","","","","","","","","","","","feedback_test"
"","","","","","psychophysics","217","405327","0.0-13.0-0.0-1.0-0.0-0.29","548","","j","","","","","","","","","","","","","key","j","16.655138613861332","624.8847706567168","347.41121033908047","j","true","img/C_ambi40.png","坏人","image_first",""
"","","","","","html-keyboard-response","218","405638","0.0-13.0-0.0-1.0-0.0-1.29","null","<span style='color:GreenYellow; font-size: 70px;'>正确! </span>","null","","","","","","","","","","","","","","","","","","","","","","","feedback_test"
"","","","","","psychophysics","219","407270","0.0-13.0-0.0-1.0-0.0-0.30","480","","f","","","","","","","","","","","","","key","f","16.657916666667006","624.8847706567168","347.41121033908047","f","true","img/T_ambi40.png","坏人","image_first",""
"","","","","","html-keyboard-response","220","407575","0.0-13.0-0.0-1.0-0.0-1.30","null","<span style='color:GreenYellow; font-size: 70px;'>正确! </span>","null","","","","","","","","","","","","","","","","","","","","","","","feedback_test"
"","","","","","psychophysics","221","409336","0.0-13.0-0.0-1.0-0.0-0.31","601","","f","","","","","","","","","","","","","key","f","16.659509615384966","624.8847706567168","347.41121033908047","j","false","img/C_ambi40.png","坏人","image_first",""
"","","","","","html-keyboard-response","222","409646","0.0-13.0-0.0-1.0-0.0-1.31","null","<span style='color:red; font-size: 70px;'>错误! </span>","null","","","","","","","","","","","","","","","","","","","","","","","feedback_test"
"","","","","","psychophysics","223","411433","0.0-13.0-0.0-1.0-0.0-0.32","632","","f","","","","","","","","","","","","","key","f","16.65827358490568","624.8847706567168","347.41121033908047","f","true","img/T_ambi40.png","常人","image_first",""
"","","","","","html-keyboard-response","224","411738","0.0-13.0-0.0-1.0-0.0-1.32","null","<span style='color:GreenYellow; font-size: 70px;'>正确! </span>","null","","","","","","","","","","","","","","","","","","","","","","","feedback_test"
"","","","","","psychophysics","225","413429","0.0-13.0-0.0-1.0-0.0-0.33","540","","f","","","","","","","","","","","","","key","f","16.660299999999697","624.8847706567168","347.41121033908047","f","true","img/C_ambi40.png","常人","image_first",""
"","","","","","html-keyboard-response","226","413735","0.0-13.0-0.0-1.0-0.0-1.33","null","<span style='color:GreenYellow; font-size: 70px;'>正确! </span>","null","","","","","","","","","","","","","","","","","","","","","","","feedback_test"
"","","","","","psychophysics","227","415499","0.0-13.0-0.0-1.0-0.0-0.34","613","","f","","","","","","","","","","","","","key","f","16.66088461538479","624.8847706567168","347.41121033908047","f","true","img/S_ambi40.png","坏人","image_first",""
"","","","","","html-keyboard-response","228","415805","0.0-13.0-0.0-1.0-0.0-1.34","null","<span style='color:GreenYellow; font-size: 70px;'>正确! </span>","null","","","","","","","","","","","","","","","","","","","","","","","feedback_test"
"","","","","","psychophysics","229","417459","0.0-13.0-0.0-1.0-0.0-0.35","493","","j","","","","","","","","","","","","","key","j","16.662656565656594","624.8847706567168","347.41121033908047","j","true","img/S_ambi40.png","常人","image_first",""
"","","","","","html-keyboard-response","230","417762","0.0-13.0-0.0-1.0-0.0-1.35","null","<span style='color:GreenYellow; font-size: 70px;'>正确! </span>","null","","","","","","","","","","","","","","","","","","","","","","","feedback_test"
"","","","","","psychophysics","231","419277","0.0-13.0-0.0-1.0-0.0-0.36","361","","j","","","","","","","","","","","","","key","j","16.6637444444447","624.8847706567168","347.41121033908047","j","true","img/T_ambi40.png","好人","image_first",""
"","","","","","html-keyboard-response","232","419587","0.0-13.0-0.0-1.0-0.0-1.36","null","<span style='color:GreenYellow; font-size: 70px;'>正确! </span>","null","","","","","","","","","","","","","","","","","","","","","","","feedback_test"
"","","","","","psychophysics","233","421247","0.0-13.0-0.0-1.0-0.0-0.37","506","","j","","","","","","","","","","","","","key","j","16.654959183673338","624.8847706567168","347.41121033908047","j","true","img/S_ambi40.png","常人","image_first",""
"","","","","","html-keyboard-response","234","421555","0.0-13.0-0.0-1.0-0.0-1.37","null","<span style='color:GreenYellow; font-size: 70px;'>正确! </span>","null","","","","","","","","","","","","","","","","","","","","","","","feedback_test"
"","","","","","psychophysics","235","423136","0.0-13.0-0.0-1.0-0.0-0.38","424","","j","","","","","","","","","","","","","key","j","16.658414893617056","624.8847706567168","347.41121033908047","j","true","img/C_ambi40.png","坏人","image_first",""
"","","","","","html-keyboard-response","236","423445","0.0-13.0-0.0-1.0-0.0-1.38","null","<span style='color:GreenYellow; font-size: 70px;'>正确! </span>","null","","","","","","","","","","","","","","","","","","","","","","","feedback_test"
"","","","","","psychophysics","237","425016","0.0-13.0-0.0-1.0-0.0-0.39","420","","j","","","","","","","","","","","","","key","j","16.658215053763833","624.8847706567168","347.41121033908047","j","true","img/C_ambi40.png","坏人","image_first",""
"","","","","","html-keyboard-response","238","425320","0.0-13.0-0.0-1.0-0.0-1.39","null","<span style='color:GreenYellow; font-size: 70px;'>正确! </span>","null","","","","","","","","","","","","","","","","","","","","","","","feedback_test"
"","","","","","psychophysics","239","427041","0.0-13.0-0.0-1.0-0.0-0.40","564","","f","","","","","","","","","","","","","key","f","16.655029126213527","624.8847706567168","347.41121033908047","f","true","img/S_ambi40.png","坏人","image_first",""
"","","","","","html-keyboard-response","240","427352","0.0-13.0-0.0-1.0-0.0-1.40","null","<span style='color:GreenYellow; font-size: 70px;'>正确! </span>","null","","","","","","","","","","","","","","","","","","","","","","","feedback_test"
"","","","","","psychophysics","241","429175","0.0-13.0-0.0-1.0-0.0-0.41","667","","f","","","","","","","","","","","","","key","f","16.657842592592242","624.8847706567168","347.41121033908047","f","true","img/C_ambi40.png","常人","image_first",""
"","","","","","html-keyboard-response","242","429490","0.0-13.0-0.0-1.0-0.0-1.41","null","<span style='color:GreenYellow; font-size: 70px;'>正确! </span>","null","","","","","","","","","","","","","","","","","","","","","","","feedback_test"
"","","","","","psychophysics","243","431127","0.0-13.0-0.0-1.0-0.0-0.42","485","","f","","","","","","","","","","","","","key","f","16.658734693877964","624.8847706567168","347.41121033908047","f","true","img/T_ambi40.png","常人","image_first",""
"","","","","","html-keyboard-response","244","431432","0.0-13.0-0.0-1.0-0.0-1.42","null","<span style='color:GreenYellow; font-size: 70px;'>正确! </span>","null","","","","","","","","","","","","","","","","","","","","","","","feedback_test"
"","","","","","psychophysics","245","433315","0.0-13.0-0.0-1.0-0.0-0.43","730","","f","","","","","","","","","","","","","key","f","16.658151785714185","624.8847706567168","347.41121033908047","f","true","img/S_ambi40.png","好人","image_first",""
"","","","","","html-keyboard-response","246","433628","0.0-13.0-0.0-1.0-0.0-1.43","null","<span style='color:GreenYellow; font-size: 70px;'>正确! </span>","null","","","","","","","","","","","","","","","","","","","","","","","feedback_test"
"","","","","","psychophysics","247","435382","0.0-13.0-0.0-1.0-0.0-0.44","601","","j","","","","","","","","","","","","","key","j","16.654836538461566","624.8847706567168","347.41121033908047","j","true","img/S_ambi40.png","常人","image_first",""
"","","","","","html-keyboard-response","248","435686","0.0-13.0-0.0-1.0-0.0-1.44","null","<span style='color:GreenYellow; font-size: 70px;'>正确! </span>","null","","","","","","","","","","","","","","","","","","","","","","","feedback_test"
"","","","","","psychophysics","249","437525","0.0-13.0-0.0-1.0-0.0-0.45","685","","j","","","","","","","","","","","","","key","j","16.65874545454545","624.8847706567168","347.41121033908047","f","false","img/C_ambi40.png","好人","image_first",""
"","","","","","html-keyboard-response","250","437840","0.0-13.0-0.0-1.0-0.0-1.45","null","<span style='color:red; font-size: 70px;'>错误! </span>","null","","","","","","","","","","","","","","","","","","","","","","","feedback_test"
"","","","","","psychophysics","251","439516","0.0-13.0-0.0-1.0-0.0-0.46","518","","f","","","","","","","","","","","","","key","f","16.65545454545469","624.8847706567168","347.41121033908047","f","true","img/T_ambi40.png","坏人","image_first",""
"","","","","","html-keyboard-response","252","439829","0.0-13.0-0.0-1.0-0.0-1.46","null","<span style='color:GreenYellow; font-size: 70px;'>正确! </span>","null","","","","","","","","","","","","","","","","","","","","","","","feedback_test"
"","","","","","psychophysics","253","441480","0.0-13.0-0.0-1.0-0.0-0.47","492","","j","","","","","","","","","","","","","key","j","16.657499999999978","624.8847706567168","347.41121033908047","j","true","img/T_ambi40.png","好人","image_first",""
"","","","","","html-keyboard-response","254","441794","0.0-13.0-0.0-1.0-0.0-1.47","null","<span style='color:GreenYellow; font-size: 70px;'>正确! </span>","null","","","","","","","","","","","","","","","","","","","","","","","feedback_test"
"","","","","","psychophysics","255","443342","0.0-13.0-0.0-1.0-0.0-0.48","392","","j","","","","","","","","","","","","","key","j","16.66261956521687","624.8847706567168","347.41121033908047","j","true","img/T_ambi40.png","好人","image_first",""
"","","","","","html-keyboard-response","256","443651","0.0-13.0-0.0-1.0-0.0-1.48","null","<span style='color:GreenYellow; font-size: 70px;'>正确! </span>","null","","","","","","","","","","","","","","","","","","","","","","","feedback_test"
"","","","","","psychophysics","257","445402","0.0-13.0-0.0-1.0-0.0-0.49","600","","f","","","","","","","","","","","","","key","f","16.656257142857203","624.8847706567168","347.41121033908047","f","true","img/C_ambi40.png","好人","image_first",""
"","","","","","html-keyboard-response","258","445706","0.0-13.0-0.0-1.0-0.0-1.49","null","<span style='color:GreenYellow; font-size: 70px;'>正确! </span>","null","","","","","","","","","","","","","","","","","","","","","","","feedback_test"
"","","","","","psychophysics","259","447355","0.0-13.0-0.0-1.0-0.0-0.50","490","","f","","","","","","","","","","","","","key","f","16.657969387754804","624.8847706567168","347.41121033908047","f","true","img/T_ambi40.png","常人","image_first",""
"","","","","","html-keyboard-response","260","447660","0.0-13.0-0.0-1.0-0.0-1.50","null","<span style='color:GreenYellow; font-size: 70px;'>正确! </span>","null","","","","","","","","","","","","","","","","","","","","","","","feedback_test"
"","","","","","psychophysics","261","449418","0.0-13.0-0.0-1.0-0.0-0.51","601","","j","","","","","","","","","","","","","key","j","16.659323809523734","624.8847706567168","347.41121033908047","j","true","img/C_ambi40.png","坏人","image_first",""
"","","","","","html-keyboard-response","262","449727","0.0-13.0-0.0-1.0-0.0-1.51","null","<span style='color:GreenYellow; font-size: 70px;'>正确! </span>","null","","","","","","","","","","","","","","","","","","","","","","","feedback_test"
"","","","","","psychophysics","263","451565","0.0-13.0-0.0-1.0-0.0-0.52","684","","j","","","","","","","","","","","","","key","j","16.659927272727312","624.8847706567168","347.41121033908047","j","true","img/S_ambi40.png","常人","image_first",""
"","","","","","html-keyboard-response","264","451881","0.0-13.0-0.0-1.0-0.0-1.52","null","<span style='color:GreenYellow; font-size: 70px;'>正确! </span>","null","","","","","","","","","","","","","","","","","","","","","","","feedback_test"
"","","","","","psychophysics","265","453551","0.0-13.0-0.0-1.0-0.0-0.53","520","","f","","","","","","","","","","","","","key","f","16.66040404040409","624.8847706567168","347.41121033908047","f","true","img/S_ambi40.png","坏人","image_first",""
"","","","","","html-keyboard-response","266","453856","0.0-13.0-0.0-1.0-0.0-1.53","null","<span style='color:GreenYellow; font-size: 70px;'>正确! </span>","null","","","","","","","","","","","","","","","","","","","","","","","feedback_test"
"","","","","","psychophysics","267","455566","0.0-13.0-0.0-1.0-0.0-0.54","554","","j","","","","","","","","","","","","","key","j","16.658411764705843","624.8847706567168","347.41121033908047","j","true","img/C_ambi40.png","坏人","image_first",""
"","","","","","html-keyboard-response","268","455875","0.0-13.0-0.0-1.0-0.0-1.54","null","<span style='color:GreenYellow; font-size: 70px;'>正确! </span>","null","","","","","","","","","","","","","","","","","","","","","","","feedback_test"
"","","","","","psychophysics","269","457569","0.0-13.0-0.0-1.0-0.0-0.55","541","","f","","","","","","","","","","","","","key","f","16.65769306930718","624.8847706567168","347.41121033908047","f","true","img/S_ambi40.png","好人","image_first",""
"","","","","","html-keyboard-response","270","457871","0.0-13.0-0.0-1.0-0.0-1.55","null","<span style='color:GreenYellow; font-size: 70px;'>正确! </span>","null","","","","","","","","","","","","","","","","","","","","","","","feedback_test"
"","","","","","psychophysics","271","459583","0.0-13.0-0.0-1.0-0.0-0.56","558","","j","","","","","","","","","","","","","key","j","16.660147058823163","624.8847706567168","347.41121033908047","j","true","img/S_ambi40.png","常人","image_first",""
"","","","","","html-keyboard-response","272","459894","0.0-13.0-0.0-1.0-0.0-1.56","null","<span style='color:GreenYellow; font-size: 70px;'>正确! </span>","null","","","","","","","","","","","","","","","","","","","","","","","feedback_test"
"","","","","","psychophysics","273","461415","0.0-13.0-0.0-1.0-0.0-0.57","370","","j","","","","","","","","","","","","","key","j","16.65864444444499","624.8847706567168","347.41121033908047","j","true","img/T_ambi40.png","好人","image_first",""
"","","","","","html-keyboard-response","274","461730","0.0-13.0-0.0-1.0-0.0-1.57","null","<span style='color:GreenYellow; font-size: 70px;'>正确! </span>","null","","","","","","","","","","","","","","","","","","","","","","","feedback_test"
"","","","","","psychophysics","275","463429","0.0-13.0-0.0-1.0-0.0-0.58","543","","f","","","","","","","","","","","","","key","f","16.658178217821444","624.8847706567168","347.41121033908047","f","true","img/C_ambi40.png","常人","image_first",""
"","","","","","html-keyboard-response","276","463745","0.0-13.0-0.0-1.0-0.0-1.58","null","<span style='color:GreenYellow; font-size: 70px;'>正确! </span>","null","","","","","","","","","","","","","","","","","","","","","","","feedback_test"
"","","","","","psychophysics","277","465357","0.0-13.0-0.0-1.0-0.0-0.59","454","","f","","","","","","","","","","","","","key","f","16.656905263157462","624.8847706567168","347.41121033908047","f","true","img/T_ambi40.png","坏人","image_first",""
"","","","","","html-keyboard-response","278","465666","0.0-13.0-0.0-1.0-0.0-1.59","null","<span style='color:GreenYellow; font-size: 70px;'>正确! </span>","null","","","","","","","","","","","","","","","","","","","","","","","feedback_test"
"","","","","","html-keyboard-response","279","467629","0.0-13.0-0.0-1.0-1.0","1961","<style>.context{color:white; font-size: 35px; line-height:40px}</style>                              <div><p class='context'>您正确回答了93% 的试次。</p><p class='context'>您的平均反应时为548毫秒。</p><p class='context'>请按任意键进入休息</p></div>"," ","","","","","","","","","","","","","","","","","","","","","","",""
"","","","","","html-button-response","280","534738","0.0-13.0-0.0-1.0-2.0","67107","
                      <p>您当前还剩余3组实验</p>
                      <p>现在是休息时间，当您结束休息后，您可以点击 结束休息 按钮 继续</p>
                      <p>建议休息时间还剩余<span id=""iii"">60</span>秒</p>","0","","","","","","","","","","","","","","","","","","","","","","",""
"","","","","","psychophysics","281","536522","0.0-13.0-0.0-1.0-0.1-0.60","630","","j","","","","","","","","","","","","","key","j","16.659311320754604","624.8847706567168","347.41121033908047","j","true","img/C_ambi40.png","坏人","image_first",""
"","","","","","html-keyboard-response","282","536827","0.0-13.0-0.0-1.0-0.1-1.60","null","<span style='color:GreenYellow; font-size: 70px;'>正确! </span>","null","","","","","","","","","","","","","","","","","","","","","","","feedback_test"
"","","","","","psychophysics","283","538470","0.0-13.0-0.0-1.0-0.1-0.61","487","","f","","","","","","","","","","","","","key","f","16.662061224489626","624.8847706567168","347.41121033908047","f","true","img/S_ambi40.png","坏人","image_first",""
"","","","","","html-keyboard-response","284","538781","0.0-13.0-0.0-1.0-0.1-1.61","null","<span style='color:GreenYellow; font-size: 70px;'>正确! </span>","null","","","","","","","","","","","","","","","","","","","","","","","feedback_test"
"","","","","","psychophysics","285","540394","0.0-13.0-0.0-1.0-0.1-0.62","463","","j","","","","","","","","","","","","","key","j","16.518378947368873","624.8847706567168","347.41121033908047","f","false","img/C_ambi40.png","好人","image_first",""
"","","","","","html-keyboard-response","286","540701","0.0-13.0-0.0-1.0-0.1-1.62","null","<span style='color:red; font-size: 70px;'>错误! </span>","null","","","","","","","","","","","","","","","","","","","","","","","feedback_test"
"","","","","","psychophysics","287","542222","0.0-13.0-0.0-1.0-0.1-0.63","367","","j","","","","","","","","","","","","","key","j","16.654733333333084","624.8847706567168","347.41121033908047","j","true","img/T_ambi40.png","好人","image_first",""
"","","","","","html-keyboard-response","288","542525","0.0-13.0-0.0-1.0-0.1-1.63","null","<span style='color:GreenYellow; font-size: 70px;'>正确! </span>","null","","","","","","","","","","","","","","","","","","","","","","","feedback_test"
"","","","","","psychophysics","289","544122","0.0-13.0-0.0-1.0-0.1-0.64","442","","f","","","","","","","","","","","","","key","f","16.65602083333336","624.8847706567168","347.41121033908047","f","true","img/T_ambi40.png","常人","image_first",""
"","","","","","html-keyboard-response","290","544428","0.0-13.0-0.0-1.0-0.1-1.64","null","<span style='color:GreenYellow; font-size: 70px;'>正确! </span>","null","","","","","","","","","","","","","","","","","","","","","","","feedback_test"
"","","","","","psychophysics","291","546182","0.0-13.0-0.0-1.0-0.1-0.65","602","","f","","","","","","","","","","","","","key","f","16.533778846154185","624.8847706567168","347.41121033908047","f","true","img/S_ambi40.png","好人","image_first",""
"","","","","","html-keyboard-response","292","546498","0.0-13.0-0.0-1.0-0.1-1.65","null","<span style='color:GreenYellow; font-size: 70px;'>正确! </span>","null","","","","","","","","","","","","","","","","","","","","","","","feedback_test"
"","","","","","psychophysics","293","548345","0.0-13.0-0.0-1.0-0.1-0.66","696","","f","","","","","","","","","","","","","key","f","16.658409090909515","624.8847706567168","347.41121033908047","f","true","img/C_ambi40.png","常人","image_first",""
"","","","","","html-keyboard-response","294","548647","0.0-13.0-0.0-1.0-0.1-1.66","null","<span style='color:GreenYellow; font-size: 70px;'>正确! </span>","null","","","","","","","","","","","","","","","","","","","","","","","feedback_test"
"","","","","","psychophysics","295","550225","0.0-13.0-0.0-1.0-0.1-0.67","424","","j","","","","","","","","","","","","","key","j","16.658182795699034","624.8847706567168","347.41121033908047","j","true","img/T_ambi40.png","好人","image_first",""
"","","","","","html-keyboard-response","296","550531","0.0-13.0-0.0-1.0-0.1-1.67","null","<span style='color:GreenYellow; font-size: 70px;'>正确! </span>","null","","","","","","","","","","","","","","","","","","","","","","","feedback_test"
"","","","","","psychophysics","297","552387","0.0-13.0-0.0-1.0-0.1-0.68","700","","j","","","","","","","","","","","","","key","j","16.657554545454595","624.8847706567168","347.41121033908047","j","true","img/S_ambi40.png","常人","image_first",""
"","","","","","html-keyboard-response","298","552701","0.0-13.0-0.0-1.0-0.1-1.68","null","<span style='color:GreenYellow; font-size: 70px;'>正确! </span>","null","","","","","","","","","","","","","","","","","","","","","","","feedback_test"
"","","","","","psychophysics","299","554381","0.0-13.0-0.0-1.0-0.1-0.69","528","","j","","","","","","","","","","","","","key","j","16.65805999999982","624.8847706567168","347.41121033908047","j","true","img/C_ambi40.png","坏人","image_first",""
"","","","","","html-keyboard-response","300","554697","0.0-13.0-0.0-1.0-0.1-1.69","null","<span style='color:GreenYellow; font-size: 70px;'>正确! </span>","null","","","","","","","","","","","","","","","","","","","","","","","feedback_test"
"","","","","","psychophysics","301","556467","0.0-13.0-0.0-1.0-0.1-0.70","613","","f","","","","","","","","","","","","","key","f","16.652142857142636","624.8847706567168","347.41121033908047","f","true","img/T_ambi40.png","坏人","image_first",""
"","","","","","html-keyboard-response","302","556775","0.0-13.0-0.0-1.0-0.1-1.70","null","<span style='color:GreenYellow; font-size: 70px;'>正确! </span>","null","","","","","","","","","","","","","","","","","","","","","","","feedback_test"
"","","","","","psychophysics","303","558584","0.0-13.0-0.0-1.0-0.1-0.71","652","","j","","","","","","","","","","","","","key","j","16.655495327103136","624.8847706567168","347.41121033908047","j","true","img/S_ambi40.png","常人","image_first",""
"","","","","","html-keyboard-response","304","558899","0.0-13.0-0.0-1.0-0.1-1.71","null","<span style='color:GreenYellow; font-size: 70px;'>正确! </span>","null","","","","","","","","","","","","","","","","","","","","","","","feedback_test"
"","","","","","psychophysics","305","560513","0.0-13.0-0.0-1.0-0.1-0.72","460","","f","","","","","","","","","","","","","key","f","16.657968749999174","624.8847706567168","347.41121033908047","f","true","img/T_ambi40.png","坏人","image_first",""
"","","","","","html-keyboard-response","306","560818","0.0-13.0-0.0-1.0-0.1-1.72","null","<span style='color:GreenYellow; font-size: 70px;'>正确! </span>","null","","","","","","","","","","","","","","","","","","","","","","","feedback_test"
"","","","","","psychophysics","307","562382","0.0-13.0-0.0-1.0-0.1-0.73","413","","j","","","","","","","","","","","","","key","j","16.657408602150177","624.8847706567168","347.41121033908047","j","true","img/T_ambi40.png","好人","image_first",""
"","","","","","html-keyboard-response","308","562695","0.0-13.0-0.0-1.0-0.1-1.73","null","<span style='color:GreenYellow; font-size: 70px;'>正确! </span>","null","","","","","","","","","","","","","","","","","","","","","","","feedback_test"
"","","","","","psychophysics","309","564420","0.0-13.0-0.0-1.0-0.1-0.74","570","","f","","","","","","","","","","","","","key","f","16.65902912621364","624.8847706567168","347.41121033908047","f","true","img/C_ambi40.png","好人","image_first",""
"","","","","","html-keyboard-response","310","564723","0.0-13.0-0.0-1.0-0.1-1.74","null","<span style='color:GreenYellow; font-size: 70px;'>正确! </span>","null","","","","","","","","","","","","","","","","","","","","","","","feedback_test"
"","","","","","psychophysics","311","566313","0.0-13.0-0.0-1.0-0.1-0.75","431","","f","","","","","","","","","","","","","key","f","16.66017021276577","624.8847706567168","347.41121033908047","j","false","img/C_ambi40.png","坏人","image_first",""
"","","","","","html-keyboard-response","312","566618","0.0-13.0-0.0-1.0-0.1-1.75","null","<span style='color:red; font-size: 70px;'>错误! </span>","null","","","","","","","","","","","","","","","","","","","","","","","feedback_test"
"","","","","","psychophysics","313","568327","0.0-13.0-0.0-1.0-0.1-0.76","552","","f","","","","","","","","","","","","","key","f","16.6554803921574","624.8847706567168","347.41121033908047","f","true","img/C_ambi40.png","常人","image_first",""
"","","","","","html-keyboard-response","314","568632","0.0-13.0-0.0-1.0-0.1-1.76","null","<span style='color:GreenYellow; font-size: 70px;'>正确! </span>","null","","","","","","","","","","","","","","","","","","","","","","","feedback_test"
"","","","","","psychophysics","315","570361","0.0-13.0-0.0-1.0-0.1-0.77","578","","j","","","","","","","","","","","","","key","j","16.53168627451055","624.8847706567168","347.41121033908047","j","true","img/S_ambi40.png","常人","image_first",""
"","","","","","html-keyboard-response","316","570668","0.0-13.0-0.0-1.0-0.1-1.77","null","<span style='color:GreenYellow; font-size: 70px;'>正确! </span>","null","","","","","","","","","","","","","","","","","","","","","","","feedback_test"
"","","","","","psychophysics","317","572233","0.0-13.0-0.0-1.0-0.1-0.78","403","","j","","","","","","","","","","","","","key","j","16.661430107527263","624.8847706567168","347.41121033908047","j","true","img/S_ambi40.png","常人","image_first",""
"","","","","","html-keyboard-response","318","572535","0.0-13.0-0.0-1.0-0.1-1.78","null","<span style='color:GreenYellow; font-size: 70px;'>正确! </span>","null","","","","","","","","","","","","","","","","","","","","","","","feedback_test"
"","","","","","psychophysics","319","574028","0.0-13.0-0.0-1.0-0.1-0.79","340","","j","","","","","","","","","","","","","key","j","16.6553033707857","624.8847706567168","347.41121033908047","j","true","img/T_ambi40.png","好人","image_first",""
"","","","","","html-keyboard-response","320","574330","0.0-13.0-0.0-1.0-0.1-1.79","null","<span style='color:GreenYellow; font-size: 70px;'>正确! </span>","null","","","","","","","","","","","","","","","","","","","","","","","feedback_test"
"","","","","","psychophysics","321","576085","0.0-13.0-0.0-1.0-0.1-0.80","605","","f","","","","","","","","","","","","","key","f","16.65567307692366","624.8847706567168","347.41121033908047","f","true","img/S_ambi40.png","坏人","image_first",""
"","","","","","html-keyboard-response","322","576400","0.0-13.0-0.0-1.0-0.1-1.80","null","<span style='color:GreenYellow; font-size: 70px;'>正确! </span>","null","","","","","","","","","","","","","","","","","","","","","","","feedback_test"
"","","","","","psychophysics","323","578226","0.0-13.0-0.0-1.0-0.1-0.81","674","","f","","","","","","","","","","","","","key","f","16.658453703703817","624.8847706567168","347.41121033908047","f","true","img/T_ambi40.png","常人","image_first",""
"","","","","","html-keyboard-response","324","578533","0.0-13.0-0.0-1.0-0.1-1.81","null","<span style='color:GreenYellow; font-size: 70px;'>正确! </span>","null","","","","","","","","","","","","","","","","","","","","","","","feedback_test"
"","","","","","psychophysics","325","580378","0.0-13.0-0.0-1.0-0.1-0.82","691","","f","","","","","","","","","","","","","key","f","16.656672727273225","624.8847706567168","347.41121033908047","f","true","img/S_ambi40.png","好人","image_first",""
"","","","","","html-keyboard-response","326","580686","0.0-13.0-0.0-1.0-0.1-1.82","null","<span style='color:GreenYellow; font-size: 70px;'>正确! </span>","null","","","","","","","","","","","","","","","","","","","","","","","feedback_test"
"","","","","","psychophysics","327","582525","0.0-13.0-0.0-1.0-0.1-0.83","686","","j","","","","","","","","","","","","","key","j","16.65855963302802","624.8847706567168","347.41121033908047","j","true","img/C_ambi40.png","坏人","image_first",""
"","","","","","html-keyboard-response","328","582834","0.0-13.0-0.0-1.0-0.1-1.83","null","<span style='color:GreenYellow; font-size: 70px;'>正确! </span>","null","","","","","","","","","","","","","","","","","","","","","","","feedback_test"
"","","","","","psychophysics","329","584478","0.0-13.0-0.0-1.0-0.1-0.84","486","","f","","","","","","","","","","","","","key","f","16.657591836734873","624.8847706567168","347.41121033908047","j","false","img/S_ambi40.png","常人","image_first",""
"","","","","","html-keyboard-response","330","584782","0.0-13.0-0.0-1.0-0.1-1.84","null","<span style='color:red; font-size: 70px;'>错误! </span>","null","","","","","","","","","","","","","","","","","","","","","","","feedback_test"
"","","","","","psychophysics","331","586528","0.0-13.0-0.0-1.0-0.1-0.85","590","","f","","","","","","","","","","","","","key","f","16.653874999999132","624.8847706567168","347.41121033908047","f","true","img/C_ambi40.png","好人","image_first",""
"","","","","","html-keyboard-response","332","586844","0.0-13.0-0.0-1.0-0.1-1.85","null","<span style='color:GreenYellow; font-size: 70px;'>正确! </span>","null","","","","","","","","","","","","","","","","","","","","","","","feedback_test"
"","","","","","psychophysics","333","588795","0.0-13.0-0.0-1.0-0.1-0.86","789","","f","","","","","","","","","","","","","key","f","16.660474137930954","624.8847706567168","347.41121033908047","f","true","img/S_ambi40.png","坏人","image_first",""
"","","","","","html-keyboard-response","334","589104","0.0-13.0-0.0-1.0-0.1-1.86","null","<span style='color:GreenYellow; font-size: 70px;'>正确! </span>","null","","","","","","","","","","","","","","","","","","","","","","","feedback_test"
"","","","","","psychophysics","335","590920","0.0-13.0-0.0-1.0-0.1-0.87","665","","j","","","","","","","","","","","","","key","j","16.537065420560886","624.8847706567168","347.41121033908047","j","true","img/C_ambi40.png","坏人","image_first",""
"","","","","","html-keyboard-response","336","591227","0.0-13.0-0.0-1.0-0.1-1.87","null","<span style='color:GreenYellow; font-size: 70px;'>正确! </span>","null","","","","","","","","","","","","","","","","","","","","","","","feedback_test"
"","","","","","psychophysics","337","593074","0.0-13.0-0.0-1.0-0.1-0.88","691","","j","","","","","","","","","","","","","key","j","16.656154545454775","624.8847706567168","347.41121033908047","f","false","img/S_ambi40.png","好人","image_first",""
"","","","","","html-keyboard-response","338","593380","0.0-13.0-0.0-1.0-0.1-1.88","null","<span style='color:red; font-size: 70px;'>错误! </span>","null","","","","","","","","","","","","","","","","","","","","","","","feedback_test"
"","","","","","psychophysics","339","595153","0.0-13.0-0.0-1.0-0.1-0.89","617","","f","","","","","","","","","","","","","key","f","16.657594339622246","624.8847706567168","347.41121033908047","f","true","img/T_ambi40.png","常人","image_first",""
"","","","","","html-keyboard-response","340","595468","0.0-13.0-0.0-1.0-0.1-1.89","null","<span style='color:GreenYellow; font-size: 70px;'>正确! </span>","null","","","","","","","","","","","","","","","","","","","","","","","feedback_test"
"","","","","","psychophysics","341","597128","0.0-13.0-0.0-1.0-0.1-0.90","509","","j","","","","","","","","","","","","","key","j","16.65414141414151","624.8847706567168","347.41121033908047","j","true","img/T_ambi40.png","好人","image_first",""
"","","","","","html-keyboard-response","342","597440","0.0-13.0-0.0-1.0-0.1-1.90","null","<span style='color:GreenYellow; font-size: 70px;'>正确! </span>","null","","","","","","","","","","","","","","","","","","","","","","","feedback_test"
"","","","","","psychophysics","343","599213","0.0-13.0-0.0-1.0-0.1-0.91","613","","j","","","","","","","","","","","","","key","j","16.65744761904768","624.8847706567168","347.41121033908047","j","true","img/C_ambi40.png","坏人","image_first",""
"","","","","","html-keyboard-response","344","599526","0.0-13.0-0.0-1.0-0.1-1.91","null","<span style='color:GreenYellow; font-size: 70px;'>正确! </span>","null","","","","","","","","","","","","","","","","","","","","","","","feedback_test"
"","","","","","psychophysics","345","601314","0.0-13.0-0.0-1.0-0.1-0.92","636","","j","","","","","","","","","","","","","key","j","16.66073584905606","624.8847706567168","347.41121033908047","j","true","img/S_ambi40.png","常人","image_first",""
"","","","","","html-keyboard-response","346","601627","0.0-13.0-0.0-1.0-0.1-1.92","null","<span style='color:GreenYellow; font-size: 70px;'>正确! </span>","null","","","","","","","","","","","","","","","","","","","","","","","feedback_test"
"","","","","","psychophysics","347","603428","0.0-13.0-0.0-1.0-0.1-0.93","647","","j","","","","","","","","","","","","","key","j","16.6605981308412","624.8847706567168","347.41121033908047","j","true","img/T_ambi40.png","好人","image_first",""
"","","","","","html-keyboard-response","348","603730","0.0-13.0-0.0-1.0-0.1-1.93","null","<span style='color:GreenYellow; font-size: 70px;'>正确! </span>","null","","","","","","","","","","","","","","","","","","","","","","","feedback_test"
"","","","","","psychophysics","349","605385","0.0-13.0-0.0-1.0-0.1-0.94","505","","f","","","","","","","","","","","","","key","f","16.65766326530613","624.8847706567168","347.41121033908047","f","true","img/T_ambi40.png","坏人","image_first",""
"","","","","","html-keyboard-response","350","605702","0.0-13.0-0.0-1.0-0.1-1.94","null","<span style='color:GreenYellow; font-size: 70px;'>正确! </span>","null","","","","","","","","","","","","","","","","","","","","","","","feedback_test"
"","","","","","psychophysics","351","607647","0.0-13.0-0.0-1.0-0.1-0.95","789","","f","","","","","","","","","","","","","key","f","16.65834482758635","624.8847706567168","347.41121033908047","f","true","img/C_ambi40.png","常人","image_first",""
"","","","","","html-keyboard-response","352","607963","0.0-13.0-0.0-1.0-0.1-1.95","null","<span style='color:GreenYellow; font-size: 70px;'>正确! </span>","null","","","","","","","","","","","","","","","","","","","","","","","feedback_test"
"","","","","","psychophysics","353","609573","0.0-13.0-0.0-1.0-0.1-0.96","457","","j","","","","","","","","","","","","","key","j","16.657968421052455","624.8847706567168","347.41121033908047","j","true","img/T_ambi40.png","好人","image_first",""
"","","","","","html-keyboard-response","354","609880","0.0-13.0-0.0-1.0-0.1-1.96","null","<span style='color:GreenYellow; font-size: 70px;'>正确! </span>","null","","","","","","","","","","","","","","","","","","","","","","","feedback_test"
"","","","","","psychophysics","355","611567","0.0-13.0-0.0-1.0-0.1-0.97","528","","f","","","","","","","","","","","","","key","f","16.66051999999909","624.8847706567168","347.41121033908047","f","true","img/S_ambi40.png","坏人","image_first",""
"","","","","","html-keyboard-response","356","611880","0.0-13.0-0.0-1.0-0.1-1.97","null","<span style='color:GreenYellow; font-size: 70px;'>正确! </span>","null","","","","","","","","","","","","","","","","","","","","","","","feedback_test"
"","","","","","psychophysics","357","613502","0.0-13.0-0.0-1.0-0.1-0.98","471","","j","","","","","","","","","","","","","key","j","16.65771874999943","624.8847706567168","347.41121033908047","j","true","img/T_ambi40.png","好人","image_first",""
"","","","","","html-keyboard-response","358","613810","0.0-13.0-0.0-1.0-0.1-1.98","null","<span style='color:GreenYellow; font-size: 70px;'>正确! </span>","null","","","","","","","","","","","","","","","","","","","","","","","feedback_test"
"","","","","","psychophysics","359","615647","0.0-13.0-0.0-1.0-0.1-0.99","682","","j","","","","","","","","","","","","","key","j","16.657605504587192","624.8847706567168","347.41121033908047","j","true","img/S_ambi40.png","常人","image_first",""
"","","","","","html-keyboard-response","360","615950","0.0-13.0-0.0-1.0-0.1-1.99","null","<span style='color:GreenYellow; font-size: 70px;'>正确! </span>","null","","","","","","","","","","","","","","","","","","","","","","","feedback_test"
"","","","","","psychophysics","361","617830","0.0-13.0-0.0-1.0-0.1-0.100","723","","j","","","","","","","","","","","","","key","j","16.659178571428388","624.8847706567168","347.41121033908047","j","true","img/C_ambi40.png","坏人","image_first",""
"","","","","","html-keyboard-response","362","618140","0.0-13.0-0.0-1.0-0.1-1.100","null","<span style='color:GreenYellow; font-size: 70px;'>正确! </span>","null","","","","","","","","","","","","","","","","","","","","","","","feedback_test"
"","","","","","psychophysics","363","619906","0.0-13.0-0.0-1.0-0.1-0.101","609","","j","","","","","","","","","","","","","key","j","16.652457142857436","624.8847706567168","347.41121033908047","j","true","img/S_ambi40.png","常人","image_first",""
"","","","","","html-keyboard-response","364","620216","0.0-13.0-0.0-1.0-0.1-1.101","null","<span style='color:GreenYellow; font-size: 70px;'>正确! </span>","null","","","","","","","","","","","","","","","","","","","","","","","feedback_test"
"","","","","","psychophysics","365","621999","0.0-13.0-0.0-1.0-0.1-0.102","628","","f","","","","","","","","","","","","","key","f","16.659132075471856","624.8847706567168","347.41121033908047","f","true","img/C_ambi40.png","常人","image_first",""
"","","","","","html-keyboard-response","366","622311","0.0-13.0-0.0-1.0-0.1-1.102","null","<span style='color:GreenYellow; font-size: 70px;'>正确! </span>","null","","","","","","","","","","","","","","","","","","","","","","","feedback_test"
"","","","","","psychophysics","367","623978","0.0-13.0-0.0-1.0-0.1-0.103","511","","f","","","","","","","","","","","","","key","f","16.656585858585643","624.8847706567168","347.41121033908047","f","true","img/T_ambi40.png","坏人","image_first",""
"","","","","","html-keyboard-response","368","624294","0.0-13.0-0.0-1.0-0.1-1.103","null","<span style='color:GreenYellow; font-size: 70px;'>正确! </span>","null","","","","","","","","","","","","","","","","","","","","","","","feedback_test"
"","","","","","psychophysics","369","625907","0.0-13.0-0.0-1.0-0.1-0.104","458","","j","","","","","","","","","","","","","key","j","16.6580833333331","624.8847706567168","347.41121033908047","j","true","img/C_ambi40.png","坏人","image_first",""
"","","","","","html-keyboard-response","370","626214","0.0-13.0-0.0-1.0-0.1-1.104","null","<span style='color:GreenYellow; font-size: 70px;'>正确! </span>","null","","","","","","","","","","","","","","","","","","","","","","","feedback_test"
"","","","","","psychophysics","371","627943","0.0-13.0-0.0-1.0-0.1-0.105","575","","f","","","","","","","","","","","","","key","f","16.659475728155122","624.8847706567168","347.41121033908047","f","true","img/S_ambi40.png","好人","image_first",""
"","","","","","html-keyboard-response","372","628255","0.0-13.0-0.0-1.0-0.1-1.105","null","<span style='color:GreenYellow; font-size: 70px;'>正确! </span>","null","","","","","","","","","","","","","","","","","","","","","","","feedback_test"
"","","","","","psychophysics","373","630029","0.0-13.0-0.0-1.0-0.1-0.106","620","","f","","","","","","","","","","","","","key","f","16.658695238094687","624.8847706567168","347.41121033908047","f","true","img/T_ambi40.png","常人","image_first",""
"","","","","","html-keyboard-response","374","630332","0.0-13.0-0.0-1.0-0.1-1.106","null","<span style='color:GreenYellow; font-size: 70px;'>正确! </span>","null","","","","","","","","","","","","","","","","","","","","","","","feedback_test"
"","","","","","psychophysics","375","632034","0.0-13.0-0.0-1.0-0.1-0.107","551","","f","","","","","","","","","","","","","key","f","16.658584158415767","624.8847706567168","347.41121033908047","f","true","img/C_ambi40.png","好人","image_first",""
"","","","","","html-keyboard-response","376","632348","0.0-13.0-0.0-1.0-0.1-1.107","null","<span style='color:GreenYellow; font-size: 70px;'>正确! </span>","null","","","","","","","","","","","","","","","","","","","","","","","feedback_test"
"","","","","","psychophysics","377","633982","0.0-13.0-0.0-1.0-0.1-0.108","473","","j","","","","","","","","","","","","","key","j","16.65701030927816","624.8847706567168","347.41121033908047","j","true","img/T_ambi40.png","好人","image_first",""
"","","","","","html-keyboard-response","378","634291","0.0-13.0-0.0-1.0-0.1-1.108","null","<span style='color:GreenYellow; font-size: 70px;'>正确! </span>","null","","","","","","","","","","","","","","","","","","","","","","","feedback_test"
"","","","","","psychophysics","379","635946","0.0-13.0-0.0-1.0-0.1-0.109","499","","j","","","","","","","","","","","","","key","j","16.656343434343462","624.8847706567168","347.41121033908047","j","true","img/S_ambi40.png","常人","image_first",""
"","","","","","html-keyboard-response","380","636247","0.0-13.0-0.0-1.0-0.1-1.109","null","<span style='color:GreenYellow; font-size: 70px;'>正确! </span>","null","","","","","","","","","","","","","","","","","","","","","","","feedback_test"
"","","","","","psychophysics","381","637807","0.0-13.0-0.0-1.0-0.1-0.110","408","","j","","","","","","","","","","","","","key","j","16.65808695652168","624.8847706567168","347.41121033908047","f","false","img/T_ambi40.png","常人","image_first",""
"","","","","","html-keyboard-response","382","638120","0.0-13.0-0.0-1.0-0.1-1.110","null","<span style='color:red; font-size: 70px;'>错误! </span>","null","","","","","","","","","","","","","","","","","","","","","","","feedback_test"
"","","","","","psychophysics","383","639737","0.0-13.0-0.0-1.0-0.1-0.111","462","","j","","","","","","","","","","","","","key","j","16.65810416666621","624.8847706567168","347.41121033908047","j","true","img/C_ambi40.png","坏人","image_first",""
"","","","","","html-keyboard-response","384","640042","0.0-13.0-0.0-1.0-0.1-1.111","null","<span style='color:GreenYellow; font-size: 70px;'>正确! </span>","null","","","","","","","","","","","","","","","","","","","","","","","feedback_test"
"","","","","","psychophysics","385","641809","0.0-13.0-0.0-1.0-0.1-0.112","615","","f","","","","","","","","","","","","","key","f","16.526990384614553","624.8847706567168","347.41121033908047","f","true","img/C_ambi40.png","常人","image_first",""
"","","","","","html-keyboard-response","386","642116","0.0-13.0-0.0-1.0-0.1-1.112","null","<span style='color:GreenYellow; font-size: 70px;'>正确! </span>","null","","","","","","","","","","","","","","","","","","","","","","","feedback_test"
"","","","","","psychophysics","387","643869","0.0-13.0-0.0-1.0-0.1-0.113","598","","j","","","","","","","","","","","","","key","j","16.656355769230196","624.8847706567168","347.41121033908047","f","false","img/S_ambi40.png","好人","image_first",""
"","","","","","html-keyboard-response","388","644173","0.0-13.0-0.0-1.0-0.1-1.113","null","<span style='color:red; font-size: 70px;'>错误! </span>","null","","","","","","","","","","","","","","","","","","","","","","","feedback_test"
"","","","","","psychophysics","389","645795","0.0-13.0-0.0-1.0-0.1-0.114","471","","j","","","","","","","","","","","","","key","j","16.657416666666297","624.8847706567168","347.41121033908047","j","true","img/T_ambi40.png","好人","image_first",""
"","","","","","html-keyboard-response","390","646110","0.0-13.0-0.0-1.0-0.1-1.114","null","<span style='color:GreenYellow; font-size: 70px;'>正确! </span>","null","","","","","","","","","","","","","","","","","","","","","","","feedback_test"
"","","","","","psychophysics","391","647816","0.0-13.0-0.0-1.0-0.1-0.115","548","","f","","","","","","","","","","","","","key","f","16.65911881188115","624.8847706567168","347.41121033908047","j","false","img/C_ambi40.png","坏人","image_first",""
"","","","","","html-keyboard-response","392","648125","0.0-13.0-0.0-1.0-0.1-1.115","null","<span style='color:red; font-size: 70px;'>错误! </span>","null","","","","","","","","","","","","","","","","","","","","","","","feedback_test"
"","","","","","psychophysics","393","649921","0.0-13.0-0.0-1.0-0.1-0.116","645","","f","","","","","","","","","","","","","key","f","16.655933962263965","624.8847706567168","347.41121033908047","f","true","img/T_ambi40.png","坏人","image_first",""
"","","","","","html-keyboard-response","394","650235","0.0-13.0-0.0-1.0-0.1-1.116","null","<span style='color:GreenYellow; font-size: 70px;'>正确! </span>","null","","","","","","","","","","","","","","","","","","","","","","","feedback_test"
"","","","","","psychophysics","395","651932","0.0-13.0-0.0-1.0-0.1-0.117","546","","f","","","","","","","","","","","","","key","f","16.660772277227842","624.8847706567168","347.41121033908047","f","true","img/C_ambi40.png","好人","image_first",""
"","","","","","html-keyboard-response","396","652242","0.0-13.0-0.0-1.0-0.1-1.117","null","<span style='color:GreenYellow; font-size: 70px;'>正确! </span>","null","","","","","","","","","","","","","","","","","","","","","","","feedback_test"
"","","","","","psychophysics","397","654029","0.0-13.0-0.0-1.0-0.1-0.118","633","","f","","","","","","","","","","","","","key","f","16.657728971962417","624.8847706567168","347.41121033908047","f","true","img/S_ambi40.png","坏人","image_first",""
"","","","","","html-keyboard-response","398","654339","0.0-13.0-0.0-1.0-0.1-1.118","null","<span style='color:GreenYellow; font-size: 70px;'>正确! </span>","null","","","","","","","","","","","","","","","","","","","","","","","feedback_test"
"","","","","","psychophysics","399","656236","0.0-13.0-0.0-1.0-0.1-0.119","744","","j","","","","","","","","","","","","","key","j","16.658203539822818","624.8847706567168","347.41121033908047","j","true","img/S_ambi40.png","常人","image_first",""
"","","","","","html-keyboard-response","400","656538","0.0-13.0-0.0-1.0-0.1-1.119","null","<span style='color:GreenYellow; font-size: 70px;'>正确! </span>","null","","","","","","","","","","","","","","","","","","","","","","","feedback_test"
"","","","","","html-keyboard-response","401","660521","0.0-13.0-0.0-1.0-1.1","3982","<style>.context{color:white; font-size: 35px; line-height:40px}</style>                              <div><p class='context'>您正确回答了88% 的试次。</p><p class='context'>您的平均反应时为573毫秒。</p><p class='context'>请按任意键进入休息</p></div>"," ","","","","","","","","","","","","","","","","","","","","","","",""
"","","","","","html-button-response","402","728790","0.0-13.0-0.0-1.0-2.1","68267","
                      <p>您当前还剩余2组实验</p>
                      <p>现在是休息时间，当您结束休息后，您可以点击 结束休息 按钮 继续</p>
                      <p>建议休息时间还剩余<span id=""iii"">60</span>秒</p>","0","","","","","","","","","","","","","","","","","","","","","","",""
"","","","","","psychophysics","403","730538","0.0-13.0-0.0-1.0-0.2-0.120","593","","j","","","","","","","","","","","","","key","j","16.661769230769444","624.8847706567168","347.41121033908047","j","true","img/S_ambi40.png","常人","image_first",""
"","","","","","html-keyboard-response","404","730844","0.0-13.0-0.0-1.0-0.2-1.120","null","<span style='color:GreenYellow; font-size: 70px;'>正确! </span>","null","","","","","","","","","","","","","","","","","","","","","","","feedback_test"
"","","","","","psychophysics","405","732404","0.0-13.0-0.0-1.0-0.2-0.121","410","","j","","","","","","","","","","","","","key","j","16.661152173913052","624.8847706567168","347.41121033908047","j","true","img/T_ambi40.png","好人","image_first",""
"","","","","","html-keyboard-response","406","732713","0.0-13.0-0.0-1.0-0.2-1.121","null","<span style='color:GreenYellow; font-size: 70px;'>正确! </span>","null","","","","","","","","","","","","","","","","","","","","","","","feedback_test"
"","","","","","psychophysics","407","734353","0.0-13.0-0.0-1.0-0.2-0.122","484","","j","","","","","","","","","","","","","key","j","16.656510204081517","624.8847706567168","347.41121033908047","j","true","img/C_ambi40.png","坏人","image_first",""
