"success","timeout","failed_images","failed_audio","failed_video","trial_type","trial_index","time_elapsed","internal_node_id","rt","stimulus","response","value","item_width_mm","item_height_mm","item_width_px","px2mm","view_dist_mm","item_width_deg","px2deg","scale_factor","win_width_deg","win_height_deg","view_history","response_type","key_press","avg_frame_time","center_x","center_y","correct_response","correct","Image","word","condition","screen_id"
"true","false","[]","[]","[]","preload","0","379","0.0-0.0","","","","","","","","","","","","","","","","","","","","","","","","","",""
"","","","","","html-keyboard-response","1","19014","0.0-1.0","18634","
     <p>您好，欢迎参加本次实验。</p>
     <p>为充分保障您的权利，请确保您已经知晓并同意《参与实验同意书》以及《数据公开知情同意书》。</p>
     <p>如果您未见过上述内容，请咨询实验员。</p>
     <p>如果您选择继续实验，则表示您已经清楚两份知情同意书的内容并同意。</p>
     <p> <div style = ""color: green""><按任意键至下页></div> </p>
     "," ","","","","","","","","","","","","","","","","","","","","","","",""
"","","","","","html-keyboard-response","2","20122","0.0-2.0","1108","
     <p>本实验首先需要您填写一些基本个人信息。</p>
     <p> <div style = ""color: green""><按任意键至下页></div></p>
     "," ","","","","","","","","","","","","","","","","","","","","","","",""
"","","","","","call-function","3","20123","0.0-3.0-0.0","","","","","","","","","","","","","","","","","","","","","","","","","",""
"","","","","","survey-html-form","4","23246","0.0-3.0-1.0","3122","","{""Q0"":""27""}","","","","","","","","","","","","","","","","","","","","","","",""
"","","","","","html-button-response","5","24487","0.0-3.0-2.0","1240","<p style = 'color : white'>您的性别</p>","1","","","","","","","","","","","","","","","","","","","","","","",""
"","","","","","survey-html-form","6","27903","0.0-3.0-3.0","3415","","{""Q0"":""2002""}","","","","","","","","","","","","","","","","","","","","","","",""
"","","","","","survey-html-form","7","30047","0.0-3.0-4.0","2143","","{""Q0"":""5""}","","","","","","","","","","","","","","","","","","","","","","",""
"","","","","","virtual-chinrest","8","69520","0.0-4.0","39471","","","","85.6","53.98","547.1311746644689","6.397445245425691","446.84","10.942623493289377","50","0.701842661836058","29.8","15.84","","","","","","","","","","","",""
"true","","","","","fullscreen","9","72895","0.0-5.0","","","","","","","","","","","","","","","","","","","","","","","","","",""
"","","","","","instructions","10","170279","0.0-6.0","97383","","","","","","","","","","","","","","[{""page_index"":0,""viewing_time"":23055},{""page_index"":1,""viewing_time"":20576},{""page_index"":2,""viewing_time"":49592},{""page_index"":3,""viewing_time"":4160}]","","","","","","","","","","",""
"","","","","","psychophysics","11","172309","0.0-7.0-0.0-0.0","871","","f","","","","","","","","","","","","","key","f","16.666099173553704","768","428","f","true","img/S_ambi40.png","常人","prac_image_first",""
"","","","","","html-keyboard-response","12","172610","0.0-7.0-0.0-1.0","null","<span style='color:GreenYellow; font-size: 70px;'>正确! </span>","null","","","","","","","","","","","","","","","","","","","","","","","feedback_test"
"","","","","","psychophysics","13","174553","0.0-7.0-0.0-0.1","782","","j","","","","","","","","","","","","","key","j","16.666278260869593","768","428","j","true","img/S_ambi40.png","坏人","prac_image_first",""
"","","","","","html-keyboard-response","14","174863","0.0-7.0-0.0-1.1","null","<span style='color:GreenYellow; font-size: 70px;'>正确! </span>","null","","","","","","","","","","","","","","","","","","","","","","","feedback_test"
"","","","","","psychophysics","15","176664","0.0-7.0-0.0-0.2","643","","f","","","","","","","","","","","","","key","f","16.664728971962518","768","428","f","true","img/T_ambi40.png","常人","prac_image_first",""
"","","","","","html-keyboard-response","16","176969","0.0-7.0-0.0-1.2","null","<span style='color:GreenYellow; font-size: 70px;'>正确! </span>","null","","","","","","","","","","","","","","","","","","","","","","","feedback_test"
"","","","","","psychophysics","17","178735","0.0-7.0-0.0-0.3","615","","f","","","","","","","","","","","","","key","f","16.545326923076992","768","428","f","true","img/C_ambi40.png","坏人","prac_image_first",""
"","","","","","html-keyboard-response","18","179039","0.0-7.0-0.0-1.3","null","<span style='color:GreenYellow; font-size: 70px;'>正确! </span>","null","","","","","","","","","","","","","","","","","","","","","","","feedback_test"
"","","","","","psychophysics","19","180716","0.0-7.0-0.0-0.4","513","","j","","","","","","","","","","","","","key","j","16.665626262626233","768","428","j","true","img/C_ambi40.png","常人","prac_image_first",""
"","","","","","html-keyboard-response","20","181019","0.0-7.0-0.0-1.4","null","<span style='color:GreenYellow; font-size: 70px;'>正确! </span>","null","","","","","","","","","","","","","","","","","","","","","","","feedback_test"
"","","","","","psychophysics","21","183168","0.0-7.0-0.0-0.5","981","","j","","","","","","","","","","","","","key","j","16.55609448818906","768","428","j","true","img/S_ambi40.png","坏人","prac_image_first",""
"","","","","","html-keyboard-response","22","183479","0.0-7.0-0.0-1.5","null","<span style='color:GreenYellow; font-size: 70px;'>正确! </span>","null","","","","","","","","","","","","","","","","","","","","","","","feedback_test"
"","","","","","psychophysics","23","185344","0.0-7.0-0.0-0.6","707","","j","","","","","","","","","","","","","key","j","16.666171171170973","768","428","j","true","img/C_ambi40.png","常人","prac_image_first",""
"","","","","","html-keyboard-response","24","185646","0.0-7.0-0.0-1.6","null","<span style='color:GreenYellow; font-size: 70px;'>正确! </span>","null","","","","","","","","","","","","","","","","","","","","","","","feedback_test"
"","","","","","psychophysics","25","187296","0.0-7.0-0.0-0.7","492","","j","","","","","","","","","","","","","key","j","16.665693877551146","768","428","j","true","img/T_ambi40.png","好人","prac_image_first",""
"","","","","","html-keyboard-response","26","187597","0.0-7.0-0.0-1.7","null","<span style='color:GreenYellow; font-size: 70px;'>正确! </span>","null","","","","","","","","","","","","","","","","","","","","","","","feedback_test"
"","","","","","psychophysics","27","189235","0.0-7.0-0.0-0.8","482","","j","","","","","","","","","","","","","key","j","16.66622680412352","768","428","f","false","img/S_ambi40.png","好人","prac_image_first",""
"","","","","","html-keyboard-response","28","189536","0.0-7.0-0.0-1.8","null","<span style='color:red; font-size: 70px;'>错误! </span>","null","","","","","","","","","","","","","","","","","","","","","","","feedback_test"
"","","","","","psychophysics","29","191311","0.0-7.0-0.0-0.9","624","","f","","","","","","","","","","","","","key","f","16.665980952380814","768","428","f","true","img/C_ambi40.png","好人","prac_image_first",""
"","","","","","html-keyboard-response","30","191615","0.0-7.0-0.0-1.9","null","<span style='color:GreenYellow; font-size: 70px;'>正确! </span>","null","","","","","","","","","","","","","","","","","","","","","","","feedback_test"
"","","","","","psychophysics","31","193908","0.0-7.0-0.0-0.10","1141","","j","","","","","","","","","","","","","key","j","16.665153284671668","768","428","j","true","img/T_ambi40.png","好人","prac_image_first",""
"","","","","","html-keyboard-response","32","194221","0.0-7.0-0.0-1.10","null","<span style='color:GreenYellow; font-size: 70px;'>正确! </span>","null","","","","","","","","","","","","","","","","","","","","","","","feedback_test"
"","","","","","psychophysics","33","195934","0.0-7.0-0.0-0.11","548","","f","","","","","","","","","","","","","key","f","16.665821782178142","768","428","f","true","img/T_ambi40.png","坏人","prac_image_first",""
"","","","","","html-keyboard-response","34","196238","0.0-7.0-0.0-1.11","null","<span style='color:GreenYellow; font-size: 70px;'>正确! </span>","null","","","","","","","","","","","","","","","","","","","","","","","feedback_test"
"","","","","","psychophysics","35","198100","0.0-7.0-0.0-0.12","699","","j","","","","","","","","","","","","","key","j","16.66559999999987","768","428","j","true","img/C_ambi40.png","常人","prac_image_first",""
"","","","","","html-keyboard-response","36","198414","0.0-7.0-0.0-1.12","null","<span style='color:GreenYellow; font-size: 70px;'>正确! </span>","null","","","","","","","","","","","","","","","","","","","","","","","feedback_test"
"","","","","","psychophysics","37","200896","0.0-7.0-0.0-0.13","1327","","f","","","","","","","","","","","","","key","f","16.66611486486481","768","428","f","true","img/C_ambi40.png","坏人","prac_image_first",""
"","","","","","html-keyboard-response","38","201200","0.0-7.0-0.0-1.13","null","<span style='color:GreenYellow; font-size: 70px;'>正确! </span>","null","","","","","","","","","","","","","","","","","","","","","","","feedback_test"
"","","","","","psychophysics","39","203262","0.0-7.0-0.0-0.14","910","","f","","","","","","","","","","","","","key","f","16.666073170731675","768","428","f","true","img/S_ambi40.png","常人","prac_image_first",""
"","","","","","html-keyboard-response","40","203569","0.0-7.0-0.0-1.14","null","<span style='color:GreenYellow; font-size: 70px;'>正确! </span>","null","","","","","","","","","","","","","","","","","","","","","","","feedback_test"
"","","","","","psychophysics","41","205429","0.0-7.0-0.0-0.15","709","","j","","","","","","","","","","","","","key","j","16.6657727272726","768","428","j","true","img/S_ambi40.png","坏人","prac_image_first",""
"","","","","","html-keyboard-response","42","205744","0.0-7.0-0.0-1.15","null","<span style='color:GreenYellow; font-size: 70px;'>正确! </span>","null","","","","","","","","","","","","","","","","","","","","","","","feedback_test"
"","","","","","psychophysics","43","207492","0.0-7.0-0.0-0.16","589","","j","","","","","","","","","","","","","key","j","16.666153846153836","768","428","j","true","img/T_ambi40.png","好人","prac_image_first",""
"","","","","","html-keyboard-response","44","207802","0.0-7.0-0.0-1.16","null","<span style='color:GreenYellow; font-size: 70px;'>正确! </span>","null","","","","","","","","","","","","","","","","","","","","","","","feedback_test"
"","","","","","psychophysics","45","209611","0.0-7.0-0.0-0.17","658","","f","","","","","","","","","","","","","key","f","16.66591588785044","768","428","f","true","img/T_ambi40.png","坏人","prac_image_first",""
"","","","","","html-keyboard-response","46","209917","0.0-7.0-0.0-1.17","null","<span style='color:GreenYellow; font-size: 70px;'>正确! </span>","null","","","","","","","","","","","","","","","","","","","","","","","feedback_test"
"","","","","","psychophysics","47","211592","0.0-7.0-0.0-0.18","523","","j","","","","","","","","","","","","","key","j","16.530535353535512","768","428","j","true","img/T_ambi40.png","好人","prac_image_first",""
"","","","","","html-keyboard-response","48","211900","0.0-7.0-0.0-1.18","null","<span style='color:GreenYellow; font-size: 70px;'>正确! </span>","null","","","","","","","","","","","","","","","","","","","","","","","feedback_test"
"","","","","","psychophysics","49","213662","0.0-7.0-0.0-0.19","610","","f","","","","","","","","","","","","","key","f","16.534336538461503","768","428","f","true","img/C_ambi40.png","好人","prac_image_first",""
"","","","","","html-keyboard-response","50","213972","0.0-7.0-0.0-1.19","null","<span style='color:GreenYellow; font-size: 70px;'>正确! </span>","null","","","","","","","","","","","","","","","","","","","","","","","feedback_test"
"","","","","","psychophysics","51","215878","0.0-7.0-0.0-0.20","745","","j","","","","","","","","","","","","","key","j","16.665424778761057","768","428","f","false","img/S_ambi40.png","好人","prac_image_first",""
"","","","","","html-keyboard-response","52","216187","0.0-7.0-0.0-1.20","null","<span style='color:red; font-size: 70px;'>错误! </span>","null","","","","","","","","","","","","","","","","","","","","","","","feedback_test"
"","","","","","psychophysics","53","218144","0.0-7.0-0.0-0.21","792","","j","","","","","","","","","","","","","key","j","16.665715517241363","768","428","j","true","img/C_ambi40.png","常人","prac_image_first",""
"","","","","","html-keyboard-response","54","218456","0.0-7.0-0.0-1.21","null","<span style='color:GreenYellow; font-size: 70px;'>正确! </span>","null","","","","","","","","","","","","","","","","","","","","","","","feedback_test"
"","","","","","psychophysics","55","220346","0.0-7.0-0.0-0.22","729","","f","","","","","","","","","","","","","key","f","16.66616071428559","768","428","f","true","img/T_ambi40.png","常人","prac_image_first",""
"","","","","","html-keyboard-response","56","220655","0.0-7.0-0.0-1.22","null","<span style='color:GreenYellow; font-size: 70px;'>正确! </span>","null","","","","","","","","","","","","","","","","","","","","","","","feedback_test"
"","","","","","psychophysics","57","222512","0.0-7.0-0.0-0.23","706","","j","","","","","","","","","","","","","key","j","16.66625454545455","768","428","j","true","img/S_ambi40.png","坏人","prac_image_first",""
"","","","","","html-keyboard-response","58","222827","0.0-7.0-0.0-1.23","null","<span style='color:GreenYellow; font-size: 70px;'>正确! </span>","null","","","","","","","","","","","","","","","","","","","","","","","feedback_test"
"","","","","","html-keyboard-response","59","226163","0.0-8.0","3335","<style>.context{color:white; font-size: 35px; line-height:40px}</style>                              <div><p class='context'>您正确回答了92% 的试次。</p><p class='context'>您的平均反应时为735毫秒。</p><p class='context'>恭喜您完成这一阶段的练习。按任意键进入<span style='color: yellow;'>先文字后图形条件</span>的练习。</p></div>"," ","","","","","","","","","","","","","","","","","","","","","","",""
"","","","","","psychophysics","60","228106","0.0-9.0-0.0-0.0","788","","f","","","","","","","","","","","","","key","f","16.665612068965604","768","428","f","true","img/C_ambi40.png","好人","prac_word_first",""
"","","","","","html-keyboard-response","61","228417","0.0-9.0-0.0-1.0","null","<span style='color:GreenYellow; font-size: 70px;'>正确! </span>","null","","","","","","","","","","","","","","","","","","","","","","","feedback_test"
"","","","","","psychophysics","62","230188","0.0-9.0-0.0-0.1","616","","j","","","","","","","","","","","","","key","j","16.54677142857136","768","428","j","true","img/S_ambi40.png","坏人","prac_word_first",""
"","","","","","html-keyboard-response","63","230494","0.0-9.0-0.0-1.1","null","<span style='color:GreenYellow; font-size: 70px;'>正确! </span>","null","","","","","","","","","","","","","","","","","","","","","","","feedback_test"
"","","","","","psychophysics","64","232223","0.0-9.0-0.0-0.2","572","","f","","","","","","","","","","","","","key","f","16.66596116504866","768","428","f","true","img/S_ambi40.png","常人","prac_word_first",""
"","","","","","html-keyboard-response","65","232529","0.0-9.0-0.0-1.2","null","<span style='color:GreenYellow; font-size: 70px;'>正确! </span>","null","","","","","","","","","","","","","","","","","","","","","","","feedback_test"
"","","","","","psychophysics","66","234360","0.0-9.0-0.0-0.3","675","","j","","","","","","","","","","","","","key","j","16.666110091743118","768","428","j","true","img/T_ambi40.png","好人","prac_word_first",""
"","","","","","html-keyboard-response","67","234666","0.0-9.0-0.0-1.3","null","<span style='color:GreenYellow; font-size: 70px;'>正确! </span>","null","","","","","","","","","","","","","","","","","","","","","","","feedback_test"
"","","","","","psychophysics","68","236574","0.0-9.0-0.0-0.4","755","","f","","","","","","","","","","","","","key","f","16.545823008849684","768","428","f","true","img/T_ambi40.png","坏人","prac_word_first",""
"","","","","","html-keyboard-response","69","236879","0.0-9.0-0.0-1.4","null","<span style='color:GreenYellow; font-size: 70px;'>正确! </span>","null","","","","","","","","","","","","","","","","","","","","","","","feedback_test"
"","","","","","psychophysics","70","238676","0.0-9.0-0.0-0.5","641","","j","","","","","","","","","","","","","key","j","16.66595327102788","768","428","j","true","img/S_ambi40.png","坏人","prac_word_first",""
"","","","","","html-keyboard-response","71","238982","0.0-9.0-0.0-1.5","null","<span style='color:GreenYellow; font-size: 70px;'>正确! </span>","null","","","","","","","","","","","","","","","","","","","","","","","feedback_test"
"","","","","","psychophysics","72","240687","0.0-9.0-0.0-0.6","552","","j","","","","","","","","","","","","","key","j","16.666058823529358","768","428","j","true","img/C_ambi40.png","常人","prac_word_first",""
"","","","","","html-keyboard-response","73","240995","0.0-9.0-0.0-1.6","null","<span style='color:GreenYellow; font-size: 70px;'>正确! </span>","null","","","","","","","","","","","","","","","","","","","","","","","feedback_test"
"","","","","","psychophysics","74","243078","0.0-9.0-0.0-0.7","927","","f","","","","","","","","","","","","","key","f","16.665112903225705","768","428","f","true","img/C_ambi40.png","坏人","prac_word_first",""
"","","","","","html-keyboard-response","75","243380","0.0-9.0-0.0-1.7","null","<span style='color:GreenYellow; font-size: 70px;'>正确! </span>","null","","","","","","","","","","","","","","","","","","","","","","","feedback_test"
"","","","","","psychophysics","76","245370","0.0-9.0-0.0-0.8","835","","f","","","","","","","","","","","","","key","f","16.665134453781373","768","428","f","true","img/T_ambi40.png","常人","prac_word_first",""
"","","","","","html-keyboard-response","77","245676","0.0-9.0-0.0-1.8","null","<span style='color:GreenYellow; font-size: 70px;'>正确! </span>","null","","","","","","","","","","","","","","","","","","","","","","","feedback_test"
"","","","","","psychophysics","78","247555","0.0-9.0-0.0-0.9","721","","f","","","","","","","","","","","","","key","f","16.66610714285733","768","428","f","true","img/S_ambi40.png","好人","prac_word_first",""
"","","","","","html-keyboard-response","79","247860","0.0-9.0-0.0-1.9","null","<span style='color:GreenYellow; font-size: 70px;'>正确! </span>","null","","","","","","","","","","","","","","","","","","","","","","","feedback_test"
"","","","","","psychophysics","80","249630","0.0-9.0-0.0-0.10","612","","j","","","","","","","","","","","","","key","j","16.665819047618978","768","428","j","true","img/T_ambi40.png","好人","prac_word_first",""
"","","","","","html-keyboard-response","81","249935","0.0-9.0-0.0-1.10","null","<span style='color:GreenYellow; font-size: 70px;'>正确! </span>","null","","","","","","","","","","","","","","","","","","","","","","","feedback_test"
"","","","","","psychophysics","82","251687","0.0-9.0-0.0-0.11","599","","j","","","","","","","","","","","","","key","j","16.66642307692326","768","428","j","true","img/C_ambi40.png","常人","prac_word_first",""
"","","","","","html-keyboard-response","83","251992","0.0-9.0-0.0-1.11","null","<span style='color:GreenYellow; font-size: 70px;'>正确! </span>","null","","","","","","","","","","","","","","","","","","","","","","","feedback_test"
"","","","","","psychophysics","84","253712","0.0-9.0-0.0-0.12","562","","f","","","","","","","","","","","","","key","f","16.665950980392118","768","428","f","true","img/S_ambi40.png","好人","prac_word_first",""
"","","","","","html-keyboard-response","85","254015","0.0-9.0-0.0-1.12","null","<span style='color:GreenYellow; font-size: 70px;'>正确! </span>","null","","","","","","","","","","","","","","","","","","","","","","","feedback_test"
"","","","","","psychophysics","86","255669","0.0-9.0-0.0-0.13","502","","j","","","","","","","","","","","","","key","j","16.666282828282824","768","428","j","true","img/C_ambi40.png","常人","prac_word_first",""
"","","","","","html-keyboard-response","87","255973","0.0-9.0-0.0-1.13","null","<span style='color:GreenYellow; font-size: 70px;'>正确! </span>","null","","","","","","","","","","","","","","","","","","","","","","","feedback_test"
"","","","","","psychophysics","88","257721","0.0-9.0-0.0-0.14","588","","j","","","","","","","","","","","","","key","j","16.66625000000008","768","428","j","true","img/T_ambi40.png","好人","prac_word_first",""
"","","","","","html-keyboard-response","89","258031","0.0-9.0-0.0-1.14","null","<span style='color:GreenYellow; font-size: 70px;'>正确! </span>","null","","","","","","","","","","","","","","","","","","","","","","","feedback_test"
"","","","","","psychophysics","90","259880","0.0-9.0-0.0-0.15","696","","f","","","","","","","","","","","","","key","f","16.54577064220185","768","428","f","true","img/C_ambi40.png","好人","prac_word_first",""
"","","","","","html-keyboard-response","91","260184","0.0-9.0-0.0-1.15","null","<span style='color:GreenYellow; font-size: 70px;'>正确! </span>","null","","","","","","","","","","","","","","","","","","","","","","","feedback_test"
"","","","","","psychophysics","92","261952","0.0-9.0-0.0-0.16","617","","j","","","","","","","","","","","","","key","j","16.66593333333315","768","428","j","true","img/C_ambi40.png","常人","prac_word_first",""
"","","","","","html-keyboard-response","93","262260","0.0-9.0-0.0-1.16","null","<span style='color:GreenYellow; font-size: 70px;'>正确! </span>","null","","","","","","","","","","","","","","","","","","","","","","","feedback_test"
"","","","","","psychophysics","94","264178","0.0-9.0-0.0-0.17","763","","f","","","","","","","","","","","","","key","f","16.665929824561125","768","428","j","false","img/S_ambi40.png","坏人","prac_word_first",""
"","","","","","html-keyboard-response","95","264492","0.0-9.0-0.0-1.17","null","<span style='color:red; font-size: 70px;'>错误! </span>","null","","","","","","","","","","","","","","","","","","","","","","","feedback_test"
"","","","","","psychophysics","96","266294","0.0-9.0-0.0-0.18","645","","f","","","","","","","","","","","","","key","f","16.665822429906697","768","428","f","true","img/S_ambi40.png","常人","prac_word_first",""
"","","","","","html-keyboard-response","97","266602","0.0-9.0-0.0-1.18","null","<span style='color:GreenYellow; font-size: 70px;'>正确! </span>","null","","","","","","","","","","","","","","","","","","","","","","","feedback_test"
"","","","","","psychophysics","98","268500","0.0-9.0-0.0-0.19","736","","f","","","","","","","","","","","","","key","f","16.665767857142782","768","428","f","true","img/T_ambi40.png","坏人","prac_word_first",""
"","","","","","html-keyboard-response","99","268813","0.0-9.0-0.0-1.19","null","<span style='color:GreenYellow; font-size: 70px;'>正确! </span>","null","","","","","","","","","","","","","","","","","","","","","","","feedback_test"
"","","","","","psychophysics","100","270710","0.0-9.0-0.0-0.20","744","","f","","","","","","","","","","","","","key","f","16.66528318584093","768","428","f","true","img/C_ambi40.png","坏人","prac_word_first",""
"","","","","","html-keyboard-response","101","271016","0.0-9.0-0.0-1.20","null","<span style='color:GreenYellow; font-size: 70px;'>正确! </span>","null","","","","","","","","","","","","","","","","","","","","","","","feedback_test"
"","","","","","psychophysics","102","272947","0.0-9.0-0.0-0.21","780","","j","","","","","","","","","","","","","key","j","16.666184210526378","768","428","j","true","img/S_ambi40.png","坏人","prac_word_first",""
"","","","","","html-keyboard-response","103","273253","0.0-9.0-0.0-1.21","null","<span style='color:GreenYellow; font-size: 70px;'>正确! </span>","null","","","","","","","","","","","","","","","","","","","","","","","feedback_test"
"","","","","","psychophysics","104","274959","0.0-9.0-0.0-0.22","545","","j","","","","","","","","","","","","","key","j","16.66578217821788","768","428","j","true","img/T_ambi40.png","好人","prac_word_first",""
"","","","","","html-keyboard-response","105","275263","0.0-9.0-0.0-1.22","null","<span style='color:GreenYellow; font-size: 70px;'>正确! </span>","null","","","","","","","","","","","","","","","","","","","","","","","feedback_test"
"","","","","","psychophysics","106","277065","0.0-9.0-0.0-0.23","648","","f","","","","","","","","","","","","","key","f","16.666065420561022","768","428","f","true","img/T_ambi40.png","常人","prac_word_first",""
"","","","","","html-keyboard-response","107","277376","0.0-9.0-0.0-1.23","null","<span style='color:GreenYellow; font-size: 70px;'>正确! </span>","null","","","","","","","","","","","","","","","","","","","","","","","feedback_test"
"","","","","","html-keyboard-response","108","280476","0.0-10.0","3098","<style>.context{color:white; font-size: 35px; line-height:40px}</style>                              <div><p class='context'>您正确回答了96% 的试次。</p><p class='context'>您的平均反应时为668毫秒。</p><p class='context'>恭喜您完成练习。按任意键进入<span style='color: yellow;'>图形和文字同时呈现条件</span>的练习。</p></div>"," ","","","","","","","","","","","","","","","","","","","","","","",""
"","","","","","psychophysics","109","282241","0.0-11.0-0.0-0.0","758","","f","","","","","","","","","","","","","key","f","16.66494285714247","768","428","f","true","img/S_ambi40.png","常人","prac_simultaneous",""
"","","","","","html-keyboard-response","110","282555","0.0-11.0-0.0-1.0","null","<span style='color:GreenYellow; font-size: 70px;'>正确! </span>","null","","","","","","","","","","","","","","","","","","","","","","","feedback_test"
"","","","","","psychophysics","111","284313","0.0-11.0-0.0-0.1","747","","j","","","","","","","","","","","","","key","j","16.66613461538453","768","428","j","true","img/C_ambi40.png","常人","prac_simultaneous",""
"","","","","","html-keyboard-response","112","284617","0.0-11.0-0.0-1.1","null","<span style='color:GreenYellow; font-size: 70px;'>正确! </span>","null","","","","","","","","","","","","","","","","","","","","","","","feedback_test"
"","","","","","psychophysics","113","286254","0.0-11.0-0.0-0.2","631","","j","","","","","","","","","","","","","key","j","16.6660412371131","768","428","j","true","img/T_ambi40.png","好人","prac_simultaneous",""
"","","","","","html-keyboard-response","114","286564","0.0-11.0-0.0-1.2","null","<span style='color:GreenYellow; font-size: 70px;'>正确! </span>","null","","","","","","","","","","","","","","","","","","","","","","","feedback_test"
"","","","","","psychophysics","115","288310","0.0-11.0-0.0-0.3","744","","f","","","","","","","","","","","","","key","f","16.540446601942005","768","428","f","true","img/T_ambi40.png","坏人","prac_simultaneous",""
"","","","","","html-keyboard-response","116","288618","0.0-11.0-0.0-1.3","null","<span style='color:GreenYellow; font-size: 70px;'>正确! </span>","null","","","","","","","","","","","","","","","","","","","","","","","feedback_test"
"","","","","","psychophysics","117","290446","0.0-11.0-0.0-0.4","821","","j","","","","","","","","","","","","","key","j","16.665842592592796","768","428","j","true","img/S_ambi40.png","坏人","prac_simultaneous",""
"","","","","","html-keyboard-response","118","290758","0.0-11.0-0.0-1.4","null","<span style='color:GreenYellow; font-size: 70px;'>正确! </span>","null","","","","","","","","","","","","","","","","","","","","","","","feedback_test"
"","","","","","psychophysics","119","292358","0.0-11.0-0.0-0.5","592","","f","","","","","","","","","","","","","key","f","16.66602105263155","768","428","j","false","img/T_ambi40.png","好人","prac_simultaneous",""
"","","","","","html-keyboard-response","120","292661","0.0-11.0-0.0-1.5","null","<span style='color:red; font-size: 70px;'>错误! </span>","null","","","","","","","","","","","","","","","","","","","","","","","feedback_test"
"","","","","","psychophysics","121","294563","0.0-11.0-0.0-0.6","900","","f","","","","","","","","","","","","","key","f","16.664592920353872","768","428","f","true","img/T_ambi40.png","常人","prac_simultaneous",""
"","","","","","html-keyboard-response","122","294870","0.0-11.0-0.0-1.6","null","<span style='color:GreenYellow; font-size: 70px;'>正确! </span>","null","","","","","","","","","","","","","","","","","","","","","","","feedback_test"
"","","","","","psychophysics","123","297046","0.0-11.0-0.0-0.7","1163","","f","","","","","","","","","","","","","key","f","16.66581395348848","768","428","f","true","img/S_ambi40.png","好人","prac_simultaneous",""
"","","","","","html-keyboard-response","124","297353","0.0-11.0-0.0-1.7","null","<span style='color:GreenYellow; font-size: 70px;'>正确! </span>","null","","","","","","","","","","","","","","","","","","","","","","","feedback_test"
"","","","","","psychophysics","125","299122","0.0-11.0-0.0-0.8","768","","f","","","","","","","","","","","","","key","f","16.666028571428754","768","428","f","true","img/C_ambi40.png","坏人","prac_simultaneous",""
"","","","","","html-keyboard-response","126","299438","0.0-11.0-0.0-1.8","null","<span style='color:GreenYellow; font-size: 70px;'>正确! </span>","null","","","","","","","","","","","","","","","","","","","","","","","feedback_test"
"","","","","","psychophysics","127","301388","0.0-11.0-0.0-0.9","948","","f","","","","","","","","","","","","","key","f","16.66590517241375","768","428","f","true","img/C_ambi40.png","好人","prac_simultaneous",""
"","","","","","html-keyboard-response","128","301696","0.0-11.0-0.0-1.9","null","<span style='color:GreenYellow; font-size: 70px;'>正确! </span>","null","","","","","","","","","","","","","","","","","","","","","","","feedback_test"
"","","","","","psychophysics","129","303428","0.0-11.0-0.0-0.10","730","","j","","","","","","","","","","","","","key","j","16.66603883495102","768","428","j","true","img/S_ambi40.png","坏人","prac_simultaneous",""
"","","","","","html-keyboard-response","130","303733","0.0-11.0-0.0-1.10","null","<span style='color:GreenYellow; font-size: 70px;'>正确! </span>","null","","","","","","","","","","","","","","","","","","","","","","","feedback_test"
"","","","","","psychophysics","131","305544","0.0-11.0-0.0-0.11","809","","j","","","","","","","","","","","","","key","j","16.665672897195844","768","428","j","true","img/C_ambi40.png","常人","prac_simultaneous",""
"","","","","","html-keyboard-response","132","305853","0.0-11.0-0.0-1.11","null","<span style='color:GreenYellow; font-size: 70px;'>正确! </span>","null","","","","","","","","","","","","","","","","","","","","","","","feedback_test"
"","","","","","psychophysics","133","307660","0.0-11.0-0.0-0.12","804","","f","","","","","","","","","","","","","key","f","16.665878504672996","768","428","f","true","img/C_ambi40.png","坏人","prac_simultaneous",""
"","","","","","html-keyboard-response","134","307972","0.0-11.0-0.0-1.12","null","<span style='color:GreenYellow; font-size: 70px;'>正确! </span>","null","","","","","","","","","","","","","","","","","","","","","","","feedback_test"
"","","","","","psychophysics","135","309817","0.0-11.0-0.0-0.13","838","","j","","","","","","","","","","","","","key","j","16.665890909090574","768","428","j","true","img/T_ambi40.png","好人","prac_simultaneous",""
"","","","","","html-keyboard-response","136","310133","0.0-11.0-0.0-1.13","null","<span style='color:GreenYellow; font-size: 70px;'>正确! </span>","null","","","","","","","","","","","","","","","","","","","","","","","feedback_test"
"","","","","","psychophysics","137","311857","0.0-11.0-0.0-0.14","716","","j","","","","","","","","","","","","","key","j","16.66599019607826","768","428","j","true","img/C_ambi40.png","常人","prac_simultaneous",""
"","","","","","html-keyboard-response","138","312164","0.0-11.0-0.0-1.14","null","<span style='color:GreenYellow; font-size: 70px;'>正确! </span>","null","","","","","","","","","","","","","","","","","","","","","","","feedback_test"
"","","","","","psychophysics","139","314105","0.0-11.0-0.0-0.15","940","","f","","","","","","","","","","","","","key","f","16.665791304347753","768","428","f","true","img/C_ambi40.png","好人","prac_simultaneous",""
"","","","","","html-keyboard-response","140","314412","0.0-11.0-0.0-1.15","null","<span style='color:GreenYellow; font-size: 70px;'>正确! </span>","null","","","","","","","","","","","","","","","","","","","","","","","feedback_test"
"","","","","","psychophysics","141","316152","0.0-11.0-0.0-0.16","738","","f","","","","","","","","","","","","","key","f","16.666201923076677","768","428","f","true","img/T_ambi40.png","常人","prac_simultaneous",""
"","","","","","html-keyboard-response","142","316454","0.0-11.0-0.0-1.16","null","<span style='color:GreenYellow; font-size: 70px;'>正确! </span>","null","","","","","","","","","","","","","","","","","","","","","","","feedback_test"
"","","","","","psychophysics","143","318077","0.0-11.0-0.0-0.17","614","","j","","","","","","","","","","","","","key","j","16.665947916666482","768","428","j","true","img/S_ambi40.png","坏人","prac_simultaneous",""
"","","","","","html-keyboard-response","144","318390","0.0-11.0-0.0-1.17","null","<span style='color:GreenYellow; font-size: 70px;'>正确! </span>","null","","","","","","","","","","","","","","","","","","","","","","","feedback_test"
"","","","","","psychophysics","145","320423","0.0-11.0-0.0-0.18","1025","","j","","","","","","","","","","","","","key","j","16.665958677685516","768","428","j","true","img/S_ambi40.png","坏人","prac_simultaneous",""
"","","","","","html-keyboard-response","146","320728","0.0-11.0-0.0-1.18","null","<span style='color:GreenYellow; font-size: 70px;'>正确! </span>","null","","","","","","","","","","","","","","","","","","","","","","","feedback_test"
"","","","","","psychophysics","147","322623","0.0-11.0-0.0-0.19","892","","f","","","","","","","","","","","","","key","f","16.66593805309725","768","428","f","true","img/T_ambi40.png","坏人","prac_simultaneous",""
"","","","","","html-keyboard-response","148","322927","0.0-11.0-0.0-1.19","null","<span style='color:GreenYellow; font-size: 70px;'>正确! </span>","null","","","","","","","","","","","","","","","","","","","","","","","feedback_test"
"","","","","","psychophysics","149","324795","0.0-11.0-0.0-0.20","865","","j","","","","","","","","","","","","","key","j","16.664819819819673","768","428","j","true","img/C_ambi40.png","常人","prac_simultaneous",""
"","","","","","html-keyboard-response","150","325110","0.0-11.0-0.0-1.20","null","<span style='color:GreenYellow; font-size: 70px;'>正确! </span>","null","","","","","","","","","","","","","","","","","","","","","","","feedback_test"
"","","","","","psychophysics","151","326906","0.0-11.0-0.0-0.21","791","","f","","","","","","","","","","","","","key","f","16.66608411214961","768","428","f","true","img/S_ambi40.png","常人","prac_simultaneous",""
"","","","","","html-keyboard-response","152","327219","0.0-11.0-0.0-1.21","null","<span style='color:GreenYellow; font-size: 70px;'>正确! </span>","null","","","","","","","","","","","","","","","","","","","","","","","feedback_test"
"","","","","","psychophysics","153","329103","0.0-11.0-0.0-0.22","878","","f","","","","","","","","","","","","","key","f","16.66579464285678","768","428","f","true","img/S_ambi40.png","好人","prac_simultaneous",""
"","","","","","html-keyboard-response","154","329405","0.0-11.0-0.0-1.22","null","<span style='color:GreenYellow; font-size: 70px;'>正确! </span>","null","","","","","","","","","","","","","","","","","","","","","","","feedback_test"
"","","","","","psychophysics","155","331343","0.0-11.0-0.0-0.23","929","","j","","","","","","","","","","","","","key","j","16.66563478260878","768","428","j","true","img/T_ambi40.png","好人","prac_simultaneous",""
"","","","","","html-keyboard-response","156","331657","0.0-11.0-0.0-1.23","null","<span style='color:GreenYellow; font-size: 70px;'>正确! </span>","null","","","","","","","","","","","","","","","","","","","","","","","feedback_test"
"","","","","","html-keyboard-response","157","338417","0.0-12.0","6759","<style>.context{color:white; font-size: 35px; line-height:40px}</style>                              <div><p class='context'>您正确回答了96% 的试次。</p><p class='context'>您的平均反应时为828毫秒。</p><p class='context'>恭喜您完成练习。按任意键进入正式实验。</p><p class='footer' style='font-size: 35px; line-height:40px;'>请在进入正式实验实验之前将您的<span style='color: lightgreen;'>食指</span>放在电脑键盘的相应键位上进行按键。</p>"," ","","","","","","","","","","","","","","","","","","","","","","",""
"","","","","","html-keyboard-response","158","343235","0.0-13.0-0.0-0.0","4815","
      <p>请您将手指放在按键上，准备进入呈现顺序为<span style='color: yellow;'>先图形后文字条件</span>的正式匹配任务</p>
      <p> <div style = ""color: green""><按任意键进入下一阶段的匹配任务></div></p>
      "," ","","","","","","","","","","","","","","","","","","","","","","",""
"","","","","","psychophysics","159","345402","0.0-13.0-0.0-1.0-0.0-0.0","1006","","f","","","","","","","","","","","","","key","f","16.665511627907165","768","428","f","true","img/T_ambi40.png","坏人","image_first",""
"","","","","","html-keyboard-response","160","345711","0.0-13.0-0.0-1.0-0.0-1.0","null","<span style='color:GreenYellow; font-size: 70px;'>正确! </span>","null","","","","","","","","","","","","","","","","","","","","","","","feedback_test"
"","","","","","psychophysics","161","347512","0.0-13.0-0.0-1.0-0.0-0.1","649","","j","","","","","","","","","","","","","key","j","16.54568867924522","768","428","j","true","img/T_ambi40.png","好人","image_first",""
"","","","","","html-keyboard-response","162","347818","0.0-13.0-0.0-1.0-0.0-1.1","null","<span style='color:GreenYellow; font-size: 70px;'>正确! </span>","null","","","","","","","","","","","","","","","","","","","","","","","feedback_test"
"","","","","","psychophysics","163","349688","0.0-13.0-0.0-1.0-0.0-0.2","709","","f","","","","","","","","","","","","","key","f","16.665990990990885","768","428","f","true","img/S_ambi40.png","常人","image_first",""
"","","","","","html-keyboard-response","164","349990","0.0-13.0-0.0-1.0-0.0-1.2","null","<span style='color:GreenYellow; font-size: 70px;'>正确! </span>","null","","","","","","","","","","","","","","","","","","","","","","","feedback_test"
"","","","","","psychophysics","165","351914","0.0-13.0-0.0-1.0-0.0-0.3","768","","f","","","","","","","","","","","","","key","f","16.665904347825816","768","428","f","true","img/S_ambi40.png","好人","image_first",""
"","","","","","html-keyboard-response","166","352220","0.0-13.0-0.0-1.0-0.0-1.3","null","<span style='color:GreenYellow; font-size: 70px;'>正确! </span>","null","","","","","","","","","","","","","","","","","","","","","","","feedback_test"
"","","","","","psychophysics","167","353925","0.0-13.0-0.0-1.0-0.0-0.4","553","","j","","","","","","","","","","","","","key","j","16.665960396039484","768","428","j","true","img/C_ambi40.png","常人","image_first",""
"","","","","","html-keyboard-response","168","354239","0.0-13.0-0.0-1.0-0.0-1.4","null","<span style='color:GreenYellow; font-size: 70px;'>正确! </span>","null","","","","","","","","","","","","","","","","","","","","","","","feedback_test"
"","","","","","psychophysics","169","356102","0.0-13.0-0.0-1.0-0.0-0.5","706","","j","","","","","","","","","","","","","key","j","16.665873873873974","768","428","j","true","img/S_ambi40.png","坏人","image_first",""
"","","","","","html-keyboard-response","170","356409","0.0-13.0-0.0-1.0-0.0-1.5","null","<span style='color:GreenYellow; font-size: 70px;'>正确! </span>","null","","","","","","","","","","","","","","","","","","","","","","","feedback_test"
"","","","","","psychophysics","171","358442","0.0-13.0-0.0-1.0-0.0-0.6","880","","f","","","","","","","","","","","","","key","f","16.665297520661067","768","428","f","true","img/C_ambi40.png","好人","image_first",""
"","","","","","html-keyboard-response","172","358747","0.0-13.0-0.0-1.0-0.0-1.6","null","<span style='color:GreenYellow; font-size: 70px;'>正确! </span>","null","","","","","","","","","","","","","","","","","","","","","","","feedback_test"
"","","","","","psychophysics","173","360715","0.0-13.0-0.0-1.0-0.0-0.7","804","","f","","","","","","","","","","","","","key","f","16.665367521367507","768","428","f","true","img/C_ambi40.png","坏人","image_first",""
"","","","","","html-keyboard-response","174","361025","0.0-13.0-0.0-1.0-0.0-1.7","null","<span style='color:GreenYellow; font-size: 70px;'>正确! </span>","null","","","","","","","","","","","","","","","","","","","","","","","feedback_test"
"","","","","","psychophysics","175","362755","0.0-13.0-0.0-1.0-0.0-0.8","576","","j","","","","","","","","","","","","","key","j","16.66572815533931","768","428","j","true","img/C_ambi40.png","常人","image_first",""
"","","","","","html-keyboard-response","176","363067","0.0-13.0-0.0-1.0-0.0-1.8","null","<span style='color:GreenYellow; font-size: 70px;'>正确! </span>","null","","","","","","","","","","","","","","","","","","","","","","","feedback_test"
"","","","","","psychophysics","177","364801","0.0-13.0-0.0-1.0-0.0-0.9","575","","j","","","","","","","","","","","","","key","j","16.666135922329754","768","428","j","true","img/S_ambi40.png","坏人","image_first",""
"","","","","","html-keyboard-response","178","365109","0.0-13.0-0.0-1.0-0.0-1.9","null","<span style='color:GreenYellow; font-size: 70px;'>正确! </span>","null","","","","","","","","","","","","","","","","","","","","","","","feedback_test"
"","","","","","psychophysics","179","366857","0.0-13.0-0.0-1.0-0.0-0.10","595","","f","","","","","","","","","","","","","key","f","16.665874999999897","768","428","f","true","img/T_ambi40.png","常人","image_first",""
"","","","","","html-keyboard-response","180","367158","0.0-13.0-0.0-1.0-0.0-1.10","null","<span style='color:GreenYellow; font-size: 70px;'>正确! </span>","null","","","","","","","","","","","","","","","","","","","","","","","feedback_test"
"","","","","","psychophysics","181","368814","0.0-13.0-0.0-1.0-0.0-0.11","501","","j","","","","","","","","","","","","","key","j","16.66524242424239","768","428","j","true","img/T_ambi40.png","好人","image_first",""
"","","","","","html-keyboard-response","182","369122","0.0-13.0-0.0-1.0-0.0-1.11","null","<span style='color:GreenYellow; font-size: 70px;'>正确! </span>","null","","","","","","","","","","","","","","","","","","","","","","","feedback_test"
"","","","","","psychophysics","183","370844","0.0-13.0-0.0-1.0-0.0-0.12","565","","f","","","","","","","","","","","","","key","f","16.665980392156793","768","428","f","true","img/T_ambi40.png","坏人","image_first",""
"","","","","","html-keyboard-response","184","371153","0.0-13.0-0.0-1.0-0.0-1.12","null","<span style='color:GreenYellow; font-size: 70px;'>正确! </span>","null","","","","","","","","","","","","","","","","","","","","","","","feedback_test"
"","","","","","psychophysics","185","372825","0.0-13.0-0.0-1.0-0.0-0.13","517","","j","","","","","","","","","","","","","key","j","16.666353535353363","768","428","j","true","img/C_ambi40.png","常人","image_first",""
"","","","","","html-keyboard-response","186","373139","0.0-13.0-0.0-1.0-0.0-1.13","null","<span style='color:GreenYellow; font-size: 70px;'>正确! </span>","null","","","","","","","","","","","","","","","","","","","","","","","feedback_test"
"","","","","","psychophysics","187","375013","0.0-13.0-0.0-1.0-0.0-0.14","717","","f","","","","","","","","","","","","","key","f","16.665252252252195","768","428","f","true","img/C_ambi40.png","坏人","image_first",""
"","","","","","html-keyboard-response","188","375319","0.0-13.0-0.0-1.0-0.0-1.14","null","<span style='color:GreenYellow; font-size: 70px;'>正确! </span>","null","","","","","","","","","","","","","","","","","","","","","","","feedback_test"
"","","","","","psychophysics","189","377129","0.0-13.0-0.0-1.0-0.0-0.15","651","","f","","","","","","","","","","","","","key","f","16.654523364485843","768","428","f","true","img/T_ambi40.png","常人","image_first",""
"","","","","","html-keyboard-response","190","377437","0.0-13.0-0.0-1.0-0.0-1.15","null","<span style='color:GreenYellow; font-size: 70px;'>正确! </span>","null","","","","","","","","","","","","","","","","","","","","","","","feedback_test"
"","","","","","psychophysics","191","379254","0.0-13.0-0.0-1.0-0.0-0.16","658","","f","","","","","","","","","","","","","key","f","16.665805555555615","768","428","f","true","img/S_ambi40.png","常人","image_first",""
"","","","","","html-keyboard-response","192","379571","0.0-13.0-0.0-1.0-0.0-1.16","null","<span style='color:GreenYellow; font-size: 70px;'>正确! </span>","null","","","","","","","","","","","","","","","","","","","","","","","feedback_test"
"","","","","","psychophysics","193","381335","0.0-13.0-0.0-1.0-0.0-0.17","606","","j","","","","","","","","","","","","","key","j","16.666133333332947","768","428","j","true","img/T_ambi40.png","好人","image_first",""
"","","","","","html-keyboard-response","194","381648","0.0-13.0-0.0-1.0-0.0-1.17","null","<span style='color:GreenYellow; font-size: 70px;'>正确! </span>","null","","","","","","","","","","","","","","","","","","","","","","","feedback_test"
"","","","","","psychophysics","195","383391","0.0-13.0-0.0-1.0-0.0-0.18","581","","f","","","","","","","","","","","","","key","f","16.665951456310616","768","428","f","true","img/C_ambi40.png","好人","image_first",""
"","","","","","html-keyboard-response","196","383694","0.0-13.0-0.0-1.0-0.0-1.18","null","<span style='color:GreenYellow; font-size: 70px;'>正确! </span>","null","","","","","","","","","","","","","","","","","","","","","","","feedback_test"
"","","","","","psychophysics","197","385492","0.0-13.0-0.0-1.0-0.0-0.19","646","","f","","","","","","","","","","","","","key","f","16.54843396226434","768","428","f","true","img/S_ambi40.png","好人","image_first",""
"","","","","","html-keyboard-response","198","385805","0.0-13.0-0.0-1.0-0.0-1.19","null","<span style='color:GreenYellow; font-size: 70px;'>正确! </span>","null","","","","","","","","","","","","","","","","","","","","","","","feedback_test"
"","","","","","psychophysics","199","387503","0.0-13.0-0.0-1.0-0.0-0.20","542","","j","","","","","","","","","","","","","key","j","16.66578217821788","768","428","j","true","img/S_ambi40.png","坏人","image_first",""
"","","","","","html-keyboard-response","200","387814","0.0-13.0-0.0-1.0-0.0-1.20","null","<span style='color:GreenYellow; font-size: 70px;'>正确! </span>","null","","","","","","","","","","","","","","","","","","","","","","","feedback_test"
"","","","","","psychophysics","201","389544","0.0-13.0-0.0-1.0-0.0-0.21","569","","j","","","","","","","","","","","","","key","j","16.66600000000029","768","428","j","true","img/S_ambi40.png","坏人","image_first",""
"","","","","","html-keyboard-response","202","389855","0.0-13.0-0.0-1.0-0.0-1.21","null","<span style='color:GreenYellow; font-size: 70px;'>正确! </span>","null","","","","","","","","","","","","","","","","","","","","","","","feedback_test"
"","","","","","psychophysics","203","391596","0.0-13.0-0.0-1.0-0.0-0.22","585","","j","","","","","","","","","","","","","key","j","16.66589423076948","768","428","j","true","img/C_ambi40.png","常人","image_first",""
"","","","","","html-keyboard-response","204","391901","0.0-13.0-0.0-1.0-0.0-1.22","null","<span style='color:GreenYellow; font-size: 70px;'>正确! </span>","null","","","","","","","","","","","","","","","","","","","","","","","feedback_test"
"","","","","","psychophysics","205","393671","0.0-13.0-0.0-1.0-0.0-0.23","611","","j","","","","","","","","","","","","","key","j","16.66487619047652","768","428","j","true","img/T_ambi40.png","好人","image_first",""
"","","","","","html-keyboard-response","206","393987","0.0-13.0-0.0-1.0-0.0-1.23","null","<span style='color:GreenYellow; font-size: 70px;'>正确! </span>","null","","","","","","","","","","","","","","","","","","","","","","","feedback_test"
"","","","","","psychophysics","207","395723","0.0-13.0-0.0-1.0-0.0-0.24","579","","j","","","","","","","","","","","","","key","j","16.666320388349455","768","428","j","true","img/C_ambi40.png","常人","image_first",""
"","","","","","html-keyboard-response","208","396026","0.0-13.0-0.0-1.0-0.0-1.24","null","<span style='color:GreenYellow; font-size: 70px;'>正确! </span>","null","","","","","","","","","","","","","","","","","","","","","","","feedback_test"
"","","","","","psychophysics","209","397924","0.0-13.0-0.0-1.0-0.0-0.25","746","","f","","","","","","","","","","","","","key","f","16.554151785714307","768","428","f","true","img/S_ambi40.png","常人","image_first",""
"","","","","","html-keyboard-response","210","398227","0.0-13.0-0.0-1.0-0.0-1.25","null","<span style='color:GreenYellow; font-size: 70px;'>正确! </span>","null","","","","","","","","","","","","","","","","","","","","","","","feedback_test"
"","","","","","psychophysics","211","400086","0.0-13.0-0.0-1.0-0.0-0.26","708","","j","","","","","","","","","","","","","key","j","16.665918181818085","768","428","j","true","img/S_ambi40.png","坏人","image_first",""
"","","","","","html-keyboard-response","212","400400","0.0-13.0-0.0-1.0-0.0-1.26","null","<span style='color:GreenYellow; font-size: 70px;'>正确! </span>","null","","","","","","","","","","","","","","","","","","","","","","","feedback_test"
"","","","","","psychophysics","213","402256","0.0-13.0-0.0-1.0-0.0-0.27","695","","f","","","","","","","","","","","","","key","f","16.665918181818085","768","428","f","true","img/C_ambi40.png","坏人","image_first",""
"","","","","","html-keyboard-response","214","402560","0.0-13.0-0.0-1.0-0.0-1.27","null","<span style='color:GreenYellow; font-size: 70px;'>正确! </span>","null","","","","","","","","","","","","","","","","","","","","","","","feedback_test"
"","","","","","psychophysics","215","404337","0.0-13.0-0.0-1.0-0.0-0.28","626","","f","","","","","","","","","","","","","key","f","16.666123809523526","768","428","f","true","img/T_ambi40.png","坏人","image_first",""
"","","","","","html-keyboard-response","216","404650","0.0-13.0-0.0-1.0-0.0-1.28","null","<span style='color:GreenYellow; font-size: 70px;'>正确! </span>","null","","","","","","","","","","","","","","","","","","","","","","","feedback_test"
"","","","","","psychophysics","217","406419","0.0-13.0-0.0-1.0-0.0-0.29","608","","f","","","","","","","","","","","","","key","f","16.664800000000035","768","428","f","true","img/S_ambi40.png","好人","image_first",""
"","","","","","html-keyboard-response","218","406721","0.0-13.0-0.0-1.0-0.0-1.29","null","<span style='color:GreenYellow; font-size: 70px;'>正确! </span>","null","","","","","","","","","","","","","","","","","","","","","","","feedback_test"
"","","","","","psychophysics","219","408680","0.0-13.0-0.0-1.0-0.0-0.30","802","","j","","","","","","","","","","","","","key","j","16.6659572649574","768","428","j","true","img/S_ambi40.png","坏人","image_first",""
"","","","","","html-keyboard-response","220","408995","0.0-13.0-0.0-1.0-0.0-1.30","null","<span style='color:GreenYellow; font-size: 70px;'>正确! </span>","null","","","","","","","","","","","","","","","","","","","","","","","feedback_test"
"","","","","","psychophysics","221","410690","0.0-13.0-0.0-1.0-0.0-0.31","537","","j","","","","","","","","","","","","","key","j","16.665960000000197","768","428","j","true","img/C_ambi40.png","常人","image_first",""
"","","","","","html-keyboard-response","222","411006","0.0-13.0-0.0-1.0-0.0-1.31","null","<span style='color:GreenYellow; font-size: 70px;'>正确! </span>","null","","","","","","","","","","","","","","","","","","","","","","","feedback_test"
"","","","","","psychophysics","223","412876","0.0-13.0-0.0-1.0-0.0-0.32","716","","f","","","","","","","","","","","","","key","f","16.665810810811063","768","428","f","true","img/C_ambi40.png","好人","image_first",""
"","","","","","html-keyboard-response","224","413182","0.0-13.0-0.0-1.0-0.0-1.32","null","<span style='color:GreenYellow; font-size: 70px;'>正确! </span>","null","","","","","","","","","","","","","","","","","","","","","","","feedback_test"
"","","","","","psychophysics","225","414898","0.0-13.0-0.0-1.0-0.0-0.33","557","","j","","","","","","","","","","","","","key","j","16.66586274509809","768","428","j","true","img/T_ambi40.png","好人","image_first",""
"","","","","","html-keyboard-response","226","415208","0.0-13.0-0.0-1.0-0.0-1.33","null","<span style='color:GreenYellow; font-size: 70px;'>正确! </span>","null","","","","","","","","","","","","","","","","","","","","","","","feedback_test"
"","","","","","psychophysics","227","417245","0.0-13.0-0.0-1.0-0.0-0.34","885","","j","","","","","","","","","","","","","key","j","16.562413223140705","768","428","j","true","img/T_ambi40.png","好人","image_first",""
"","","","","","html-keyboard-response","228","417549","0.0-13.0-0.0-1.0-0.0-1.34","null","<span style='color:GreenYellow; font-size: 70px;'>正确! </span>","null","","","","","","","","","","","","","","","","","","","","","","","feedback_test"
"","","","","","psychophysics","229","419370","0.0-13.0-0.0-1.0-0.0-0.35","660","","f","","","","","","","","","","","","","key","f","16.664824074073866","768","428","f","true","img/T_ambi40.png","常人","image_first",""
"","","","","","html-keyboard-response","230","419683","0.0-13.0-0.0-1.0-0.0-1.35","null","<span style='color:GreenYellow; font-size: 70px;'>正确! </span>","null","","","","","","","","","","","","","","","","","","","","","","","feedback_test"
"","","","","","psychophysics","231","421476","0.0-13.0-0.0-1.0-0.0-0.36","633","","j","","","","","","","","","","","","","key","j","16.66569811320712","768","428","j","true","img/T_ambi40.png","好人","image_first",""
"","","","","","html-keyboard-response","232","421789","0.0-13.0-0.0-1.0-0.0-1.36","null","<span style='color:GreenYellow; font-size: 70px;'>正确! </span>","null","","","","","","","","","","","","","","","","","","","","","","","feedback_test"
"","","","","","psychophysics","233","423557","0.0-13.0-0.0-1.0-0.0-0.37","616","","j","","","","","","","","","","","","","key","j","16.665428571428528","768","428","j","true","img/S_ambi40.png","坏人","image_first",""
"","","","","","html-keyboard-response","234","423870","0.0-13.0-0.0-1.0-0.0-1.37","null","<span style='color:GreenYellow; font-size: 70px;'>正确! </span>","null","","","","","","","","","","","","","","","","","","","","","","","feedback_test"
"","","","","","psychophysics","235","425764","0.0-13.0-0.0-1.0-0.0-0.38","738","","f","","","","","","","","","","","","","key","f","16.665902654867025","768","428","f","true","img/S_ambi40.png","好人","image_first",""
"","","","","","html-keyboard-response","236","426069","0.0-13.0-0.0-1.0-0.0-1.38","null","<span style='color:GreenYellow; font-size: 70px;'>正确! </span>","null","","","","","","","","","","","","","","","","","","","","","","","feedback_test"
"","","","","","psychophysics","237","427759","0.0-13.0-0.0-1.0-0.0-0.39","533","","j","","","","","","","","","","","","","key","j","16.666230000000215","768","428","j","true","img/S_ambi40.png","坏人","image_first",""
"","","","","","html-keyboard-response","238","428065","0.0-13.0-0.0-1.0-0.0-1.39","null","<span style='color:GreenYellow; font-size: 70px;'>正确! </span>","null","","","","","","","","","","","","","","","","","","","","","","","feedback_test"
"","","","","","psychophysics","239","429835","0.0-13.0-0.0-1.0-0.0-0.40","613","","j","","","","","","","","","","","","","key","j","16.666038095238175","768","428","j","true","img/C_ambi40.png","常人","image_first",""
"","","","","","html-keyboard-response","240","430145","0.0-13.0-0.0-1.0-0.0-1.40","null","<span style='color:GreenYellow; font-size: 70px;'>正确! </span>","null","","","","","","","","","","","","","","","","","","","","","","","feedback_test"
"","","","","","psychophysics","241","432083","0.0-13.0-0.0-1.0-0.0-0.41","776","","j","","","","","","","","","","","","","key","j","16.66573043478268","768","428","j","true","img/C_ambi40.png","常人","image_first",""
"","","","","","html-keyboard-response","242","432391","0.0-13.0-0.0-1.0-0.0-1.41","null","<span style='color:GreenYellow; font-size: 70px;'>正确! </span>","null","","","","","","","","","","","","","","","","","","","","","","","feedback_test"
"","","","","","psychophysics","243","434166","0.0-13.0-0.0-1.0-0.0-0.42","623","","f","","","","","","","","","","","","","key","f","16.66604716981155","768","428","f","true","img/C_ambi40.png","好人","image_first",""
"","","","","","html-keyboard-response","244","434477","0.0-13.0-0.0-1.0-0.0-1.42","null","<span style='color:GreenYellow; font-size: 70px;'>正确! </span>","null","","","","","","","","","","","","","","","","","","","","","","","feedback_test"
"","","","","","psychophysics","245","436724","0.0-13.0-0.0-1.0-0.0-0.43","1095","","f","","","","","","","","","","","","","key","f","16.665932330826763","768","428","f","true","img/T_ambi40.png","坏人","image_first",""
"","","","","","html-keyboard-response","246","437035","0.0-13.0-0.0-1.0-0.0-1.43","null","<span style='color:GreenYellow; font-size: 70px;'>正确! </span>","null","","","","","","","","","","","","","","","","","","","","","","","feedback_test"
"","","","","","psychophysics","247","438970","0.0-13.0-0.0-1.0-0.0-0.44","780","","j","","","","","","","","","","","","","key","j","16.66586086956541","768","428","j","true","img/T_ambi40.png","好人","image_first",""
"","","","","","html-keyboard-response","248","439274","0.0-13.0-0.0-1.0-0.0-1.44","null","<span style='color:GreenYellow; font-size: 70px;'>正确! </span>","null","","","","","","","","","","","","","","","","","","","","","","","feedback_test"
"","","","","","psychophysics","249","441321","0.0-13.0-0.0-1.0-0.0-0.45","896","","f","","","","","","","","","","","","","key","f","16.551239669421584","768","428","f","true","img/C_ambi40.png","坏人","image_first",""
"","","","","","html-keyboard-response","250","441633","0.0-13.0-0.0-1.0-0.0-1.45","null","<span style='color:GreenYellow; font-size: 70px;'>正确! </span>","null","","","","","","","","","","","","","","","","","","","","","","","feedback_test"
"","","","","","psychophysics","251","443718","0.0-13.0-0.0-1.0-0.0-0.46","926","","f","","","","","","","","","","","","","key","f","16.665927419354464","768","428","f","true","img/T_ambi40.png","常人","image_first",""
"","","","","","html-keyboard-response","252","444023","0.0-13.0-0.0-1.0-0.0-1.46","null","<span style='color:GreenYellow; font-size: 70px;'>正确! </span>","null","","","","","","","","","","","","","","","","","","","","","","","feedback_test"
"","","","","","psychophysics","253","445804","0.0-13.0-0.0-1.0-0.0-0.47","628","","f","","","","","","","","","","","","","key","f","16.665962264150984","768","428","f","true","img/S_ambi40.png","常人","image_first",""
"","","","","","html-keyboard-response","254","446114","0.0-13.0-0.0-1.0-0.0-1.47","null","<span style='color:GreenYellow; font-size: 70px;'>正确! </span>","null","","","","","","","","","","","","","","","","","","","","","","","feedback_test"
"","","","","","psychophysics","255","448177","0.0-13.0-0.0-1.0-0.0-0.48","901","","f","","","","","","","","","","","","","key","f","16.66579674796733","768","428","f","true","img/S_ambi40.png","好人","image_first",""
"","","","","","html-keyboard-response","256","448494","0.0-13.0-0.0-1.0-0.0-1.48","null","<span style='color:GreenYellow; font-size: 70px;'>正确! </span>","null","","","","","","","","","","","","","","","","","","","","","","","feedback_test"
"","","","","","psychophysics","257","450337","0.0-13.0-0.0-1.0-0.0-0.49","682","","j","","","","","","","","","","","","","key","j","16.665761467890167","768","428","j","true","img/S_ambi40.png","坏人","image_first",""
"","","","","","html-keyboard-response","258","450645","0.0-13.0-0.0-1.0-0.0-1.49","null","<span style='color:GreenYellow; font-size: 70px;'>正确! </span>","null","","","","","","","","","","","","","","","","","","","","","","","feedback_test"
"","","","","","psychophysics","259","452614","0.0-13.0-0.0-1.0-0.0-0.50","815","","f","","","","","","","","","","","","","key","f","16.66653846153834","768","428","f","true","img/T_ambi40.png","常人","image_first",""
"","","","","","html-keyboard-response","260","452931","0.0-13.0-0.0-1.0-0.0-1.50","null","<span style='color:GreenYellow; font-size: 70px;'>正确! </span>","null","","","","","","","","","","","","","","","","","","","","","","","feedback_test"
"","","","","","psychophysics","261","454599","0.0-13.0-0.0-1.0-0.0-0.51","516","","j","","","","","","","","","","","","","key","j","16.664898989899108","768","428","j","true","img/T_ambi40.png","好人","image_first",""
"","","","","","html-keyboard-response","262","454904","0.0-13.0-0.0-1.0-0.0-1.51","null","<span style='color:GreenYellow; font-size: 70px;'>正确! </span>","null","","","","","","","","","","","","","","","","","","","","","","","feedback_test"
"","","","","","psychophysics","263","457046","0.0-13.0-0.0-1.0-0.0-0.52","988","","f","","","","","","","","","","","","","key","f","16.66560937500026","768","428","f","true","img/C_ambi40.png","好人","image_first",""
"","","","","","html-keyboard-response","264","457355","0.0-13.0-0.0-1.0-0.0-1.52","null","<span style='color:GreenYellow; font-size: 70px;'>正确! </span>","null","","","","","","","","","","","","","","","","","","","","","","","feedback_test"
"","","","","","psychophysics","265","459143","0.0-13.0-0.0-1.0-0.0-0.53","634","","j","","","","","","","","","","","","","key","j","16.66600934579418","768","428","j","true","img/C_ambi40.png","常人","image_first",""
"","","","","","html-keyboard-response","266","459448","0.0-13.0-0.0-1.0-0.0-1.53","null","<span style='color:GreenYellow; font-size: 70px;'>正确! </span>","null","","","","","","","","","","","","","","","","","","","","","","","feedback_test"
"","","","","","psychophysics","267","461216","0.0-13.0-0.0-1.0-0.0-0.54","608","","j","","","","","","","","","","","","","key","j","16.66617142857119","768","428","j","true","img/C_ambi40.png","常人","image_first",""
"","","","","","html-keyboard-response","268","461527","0.0-13.0-0.0-1.0-0.0-1.54","null","<span style='color:GreenYellow; font-size: 70px;'>正确! </span>","null","","","","","","","","","","","","","","","","","","","","","","","feedback_test"
"","","","","","psychophysics","269","463289","0.0-13.0-0.0-1.0-0.0-0.55","598","","f","","","","","","","","","","","","","key","f","16.6654711538459","768","428","f","true","img/C_ambi40.png","坏人","image_first",""
"","","","","","html-keyboard-response","270","463602","0.0-13.0-0.0-1.0-0.0-1.55","null","<span style='color:GreenYellow; font-size: 70px;'>正确! </span>","null","","","","","","","","","","","","","","","","","","","","","","","feedback_test"
"","","","","","psychophysics","271","465611","0.0-13.0-0.0-1.0-0.0-0.56","852","","j","","","","","","","","","","","","","key","j","16.66575833333336","768","428","j","true","img/S_ambi40.png","坏人","image_first",""
"","","","","","html-keyboard-response","272","465924","0.0-13.0-0.0-1.0-0.0-1.56","null","<span style='color:GreenYellow; font-size: 70px;'>正确! </span>","null","","","","","","","","","","","","","","","","","","","","","","","feedback_test"
"","","","","","psychophysics","273","467797","0.0-13.0-0.0-1.0-0.0-0.57","722","","j","","","","","","","","","","","","","key","j","16.536423423423468","768","428","j","true","img/T_ambi40.png","好人","image_first",""
"","","","","","html-keyboard-response","274","468109","0.0-13.0-0.0-1.0-0.0-1.57","null","<span style='color:GreenYellow; font-size: 70px;'>正确! </span>","null","","","","","","","","","","","","","","","","","","","","","","","feedback_test"
"","","","","","psychophysics","275","470144","0.0-13.0-0.0-1.0-0.0-0.58","874","","f","","","","","","","","","","","","","key","f","16.66571900826419","768","428","f","true","img/S_ambi40.png","常人","image_first",""
"","","","","","html-keyboard-response","276","470450","0.0-13.0-0.0-1.0-0.0-1.58","null","<span style='color:GreenYellow; font-size: 70px;'>正确! </span>","null","","","","","","","","","","","","","","","","","","","","","","","feedback_test"
"","","","","","psychophysics","277","472534","0.0-13.0-0.0-1.0-0.0-0.59","926","","f","","","","","","","","","","","","","key","f","16.666040322580468","768","428","f","true","img/T_ambi40.png","坏人","image_first",""
"","","","","","html-keyboard-response","278","472841","0.0-13.0-0.0-1.0-0.0-1.59","null","<span style='color:GreenYellow; font-size: 70px;'>正确! </span>","null","","","","","","","","","","","","","","","","","","","","","","","feedback_test"
"","","","","","html-keyboard-response","279","474405","0.0-13.0-0.0-1.0-1.0","1562","<style>.context{color:white; font-size: 35px; line-height:40px}</style>                              <div><p class='context'>您正确回答了100% 的试次。</p><p class='context'>您的平均反应时为694毫秒。</p><p class='context'>请按任意键进入休息</p></div>"," ","","","","","","","","","","","","","","","","","","","","","","",""
"","","","","","html-button-response","280","536376","0.0-13.0-0.0-1.0-2.0","61968","
                      <p>您当前还剩余3组实验</p>
                      <p>现在是休息时间，当您结束休息后，您可以点击 结束休息 按钮 继续</p>
                      <p>建议休息时间还剩余<span id=""iii"">60</span>秒</p>","0","","","","","","","","","","","","","","","","","","","","","","",""
"","","","","","psychophysics","281","538049","0.0-13.0-0.0-1.0-0.1-0.60","512","","j","","","","","","","","","","","","","key","j","16.66589898989898","768","428","j","true","img/T_ambi40.png","好人","image_first",""
"","","","","","html-keyboard-response","282","538357","0.0-13.0-0.0-1.0-0.1-1.60","null","<span style='color:GreenYellow; font-size: 70px;'>正确! </span>","null","","","","","","","","","","","","","","","","","","","","","","","feedback_test"
"","","","","","psychophysics","283","540086","0.0-13.0-0.0-1.0-0.1-0.61","567","","f","","","","","","","","","","","","","key","f","16.665725490195886","768","428","f","true","img/S_ambi40.png","好人","image_first",""
"","","","","","html-keyboard-response","284","540401","0.0-13.0-0.0-1.0-0.1-1.61","null","<span style='color:GreenYellow; font-size: 70px;'>正确! </span>","null","","","","","","","","","","","","","","","","","","","","","","","feedback_test"
"","","","","","psychophysics","285","542312","0.0-13.0-0.0-1.0-0.1-0.62","758","","f","","","","","","","","","","","","","key","f","16.66621052631557","768","428","f","true","img/C_ambi40.png","坏人","image_first",""
"","","","","","html-keyboard-response","286","542625","0.0-13.0-0.0-1.0-0.1-1.62","null","<span style='color:GreenYellow; font-size: 70px;'>正确! </span>","null","","","","","","","","","","","","","","","","","","","","","","","feedback_test"
"","","","","","psychophysics","287","544348","0.0-13.0-0.0-1.0-0.1-0.63","560","","f","","","","","","","","","","","","","key","f","16.666039215686148","768","428","f","true","img/C_ambi40.png","好人","image_first",""
"","","","","","html-keyboard-response","288","544654","0.0-13.0-0.0-1.0-0.1-1.63","null","<span style='color:GreenYellow; font-size: 70px;'>正确! </span>","null","","","","","","","","","","","","","","","","","","","","","","","feedback_test"
"","","","","","psychophysics","289","546444","0.0-13.0-0.0-1.0-0.1-0.64","639","","f","","","","","","","","","","","","","key","f","16.529660377359317","768","428","f","true","img/T_ambi40.png","坏人","image_first",""
"","","","","","html-keyboard-response","290","546747","0.0-13.0-0.0-1.0-0.1-1.64","null","<span style='color:GreenYellow; font-size: 70px;'>正确! </span>","null","","","","","","","","","","","","","","","","","","","","","","","feedback_test"
"","","","","","psychophysics","291","548545","0.0-13.0-0.0-1.0-0.1-0.65","640","","j","","","","","","","","","","","","","key","j","16.664747663550557","768","428","j","true","img/S_ambi40.png","坏人","image_first",""
"","","","","","html-keyboard-response","292","548852","0.0-13.0-0.0-1.0-0.1-1.65","null","<span style='color:GreenYellow; font-size: 70px;'>正确! </span>","null","","","","","","","","","","","","","","","","","","","","","","","feedback_test"
"","","","","","psychophysics","293","550681","0.0-13.0-0.0-1.0-0.1-0.66","677","","f","","","","","","","","","","","","","key","f","16.66606422018371","768","428","j","false","img/S_ambi40.png","坏人","image_first",""
"","","","","","html-keyboard-response","294","550988","0.0-13.0-0.0-1.0-0.1-1.66","null","<span style='color:red; font-size: 70px;'>错误! </span>","null","","","","","","","","","","","","","","","","","","","","","","","feedback_test"
"","","","","","psychophysics","295","552753","0.0-13.0-0.0-1.0-0.1-0.67","614","","f","","","","","","","","","","","","","key","f","16.66617307692314","768","428","f","true","img/S_ambi40.png","常人","image_first",""
"","","","","","html-keyboard-response","296","553064","0.0-13.0-0.0-1.0-0.1-1.67","null","<span style='color:GreenYellow; font-size: 70px;'>正确! </span>","null","","","","","","","","","","","","","","","","","","","","","","","feedback_test"
"","","","","","psychophysics","297","554925","0.0-13.0-0.0-1.0-0.1-0.68","708","","j","","","","","","","","","","","","","key","j","16.66537837837802","768","428","j","true","img/T_ambi40.png","好人","image_first",""
"","","","","","html-keyboard-response","298","555227","0.0-13.0-0.0-1.0-0.1-1.68","null","<span style='color:GreenYellow; font-size: 70px;'>正确! </span>","null","","","","","","","","","","","","","","","","","","","","","","","feedback_test"
"","","","","","psychophysics","299","556942","0.0-13.0-0.0-1.0-0.1-0.69","555","","f","","","","","","","","","","","","","key","f","16.66586274509752","768","428","f","true","img/T_ambi40.png","常人","image_first",""
"","","","","","html-keyboard-response","300","557244","0.0-13.0-0.0-1.0-0.1-1.69","null","<span style='color:GreenYellow; font-size: 70px;'>正确! </span>","null","","","","","","","","","","","","","","","","","","","","","","","feedback_test"
"","","","","","psychophysics","301","559293","0.0-13.0-0.0-1.0-0.1-0.70","888","","j","","","","","","","","","","","","","key","j","16.665639344262164","768","428","j","true","img/C_ambi40.png","常人","image_first",""
"","","","","","html-keyboard-response","302","559603","0.0-13.0-0.0-1.0-0.1-1.70","null","<span style='color:GreenYellow; font-size: 70px;'>正确! </span>","null","","","","","","","","","","","","","","","","","","","","","","","feedback_test"
"","","","","","psychophysics","303","561358","0.0-13.0-0.0-1.0-0.1-0.71","604","","j","","","","","","","","","","","","","key","j","16.527798076922547","768","428","j","true","img/C_ambi40.png","常人","image_first",""
"","","","","","html-keyboard-response","304","561663","0.0-13.0-0.0-1.0-0.1-1.71","null","<span style='color:GreenYellow; font-size: 70px;'>正确! </span>","null","","","","","","","","","","","","","","","","","","","","","","","feedback_test"
"","","","","","psychophysics","305","563569","0.0-13.0-0.0-1.0-0.1-0.72","748","","f","","","","","","","","","","","","","key","f","16.665920353982912","768","428","f","true","img/S_ambi40.png","常人","image_first",""
"","","","","","html-keyboard-response","306","563878","0.0-13.0-0.0-1.0-0.1-1.72","null","<span style='color:GreenYellow; font-size: 70px;'>正确! </span>","null","","","","","","","","","","","","","","","","","","","","","","","feedback_test"
"","","","","","psychophysics","307","565791","0.0-13.0-0.0-1.0-0.1-0.73","753","","f","","","","","","","","","","","","","key","f","16.66572807017579","768","428","f","true","img/S_ambi40.png","好人","image_first",""
"","","","","","html-keyboard-response","308","566095","0.0-13.0-0.0-1.0-0.1-1.73","null","<span style='color:GreenYellow; font-size: 70px;'>正确! </span>","null","","","","","","","","","","","","","","","","","","","","","","","feedback_test"
"","","","","","psychophysics","309","567923","0.0-13.0-0.0-1.0-0.1-0.74","669","","f","","","","","","","","","","","","","key","f","16.665449541284268","768","428","f","true","img/C_ambi40.png","好人","image_first",""
"","","","","","html-keyboard-response","310","568233","0.0-13.0-0.0-1.0-0.1-1.74","null","<span style='color:GreenYellow; font-size: 70px;'>正确! </span>","null","","","","","","","","","","","","","","","","","","","","","","","feedback_test"
"","","","","","psychophysics","311","570148","0.0-13.0-0.0-1.0-0.1-0.75","760","","f","","","","","","","","","","","","","key","f","16.66527192982469","768","428","f","true","img/C_ambi40.png","坏人","image_first",""
"","","","","","html-keyboard-response","312","570449","0.0-13.0-0.0-1.0-0.1-1.75","null","<span style='color:GreenYellow; font-size: 70px;'>正确! </span>","null","","","","","","","","","","","","","","","","","","","","","","","feedback_test"
"","","","","","psychophysics","313","572169","0.0-13.0-0.0-1.0-0.1-0.76","565","","j","","","","","","","","","","","","","key","j","16.66537254901977","768","428","j","true","img/C_ambi40.png","常人","image_first",""
"","","","","","html-keyboard-response","314","572481","0.0-13.0-0.0-1.0-0.1-1.76","null","<span style='color:GreenYellow; font-size: 70px;'>正确! </span>","null","","","","","","","","","","","","","","","","","","","","","","","feedback_test"
"","","","","","psychophysics","315","574586","0.0-13.0-0.0-1.0-0.1-0.77","949","","f","","","","","","","","","","","","","key","f","16.665632000000215","768","428","f","true","img/T_ambi40.png","坏人","image_first",""
"","","","","","html-keyboard-response","316","574900","0.0-13.0-0.0-1.0-0.1-1.77","null","<span style='color:GreenYellow; font-size: 70px;'>正确! </span>","null","","","","","","","","","","","","","","","","","","","","","","","feedback_test"
"","","","","","psychophysics","317","576696","0.0-13.0-0.0-1.0-0.1-0.78","643","","j","","","","","","","","","","","","","key","j","16.666102803738735","768","428","j","true","img/T_ambi40.png","好人","image_first",""
"","","","","","html-keyboard-response","318","577013","0.0-13.0-0.0-1.0-0.1-1.78","null","<span style='color:GreenYellow; font-size: 70px;'>正确! </span>","null","","","","","","","","","","","","","","","","","","","","","","","feedback_test"
"","","","","","psychophysics","319","578688","0.0-13.0-0.0-1.0-0.1-0.79","518","","j","","","","","","","","","","","","","key","j","16.66594000000041","768","428","j","true","img/T_ambi40.png","好人","image_first",""
"","","","","","html-keyboard-response","320","579001","0.0-13.0-0.0-1.0-0.1-1.79","null","<span style='color:GreenYellow; font-size: 70px;'>正确! </span>","null","","","","","","","","","","","","","","","","","","","","","","","feedback_test"
"","","","","","psychophysics","321","580713","0.0-13.0-0.0-1.0-0.1-0.80","561","","j","","","","","","","","","","","","","key","j","16.666186274509812","768","428","j","true","img/C_ambi40.png","常人","image_first",""
"","","","","","html-keyboard-response","322","581027","0.0-13.0-0.0-1.0-0.1-1.80","null","<span style='color:GreenYellow; font-size: 70px;'>正确! </span>","null","","","","","","","","","","","","","","","","","","","","","","","feedback_test"
"","","","","","psychophysics","323","583030","0.0-13.0-0.0-1.0-0.1-0.81","845","","j","","","","","","","","","","","","","key","j","16.666134453780693","768","428","j","true","img/S_ambi40.png","坏人","image_first",""
"","","","","","html-keyboard-response","324","583332","0.0-13.0-0.0-1.0-0.1-1.81","null","<span style='color:GreenYellow; font-size: 70px;'>正确! </span>","null","","","","","","","","","","","","","","","","","","","","","","","feedback_test"
"","","","","","psychophysics","325","585117","0.0-13.0-0.0-1.0-0.1-0.82","631","","f","","","","","","","","","","","","","key","f","16.665811320754727","768","428","f","true","img/T_ambi40.png","常人","image_first",""
"","","","","","html-keyboard-response","326","585432","0.0-13.0-0.0-1.0-0.1-1.82","null","<span style='color:GreenYellow; font-size: 70px;'>正确! </span>","null","","","","","","","","","","","","","","","","","","","","","","","feedback_test"
"","","","","","psychophysics","327","587148","0.0-13.0-0.0-1.0-0.1-0.83","561","","j","","","","","","","","","","","","","key","j","16.66489215686178","768","428","j","true","img/S_ambi40.png","坏人","image_first",""
"","","","","","html-keyboard-response","328","587459","0.0-13.0-0.0-1.0-0.1-1.83","null","<span style='color:GreenYellow; font-size: 70px;'>正确! </span>","null","","","","","","","","","","","","","","","","","","","","","","","feedback_test"
"","","","","","psychophysics","329","589234","0.0-13.0-0.0-1.0-0.1-0.84","615","","f","","","","","","","","","","","","","key","f","16.666019047619333","768","428","f","true","img/T_ambi40.png","常人","image_first",""
"","","","","","html-keyboard-response","330","589549","0.0-13.0-0.0-1.0-0.1-1.84","null","<span style='color:GreenYellow; font-size: 70px;'>正确! </span>","null","","","","","","","","","","","","","","","","","","","","","","","feedback_test"
"","","","","","psychophysics","331","591251","0.0-13.0-0.0-1.0-0.1-0.85","548","","j","","","","","","","","","","","","","key","j","16.665841584158414","768","428","j","true","img/S_ambi40.png","坏人","image_first",""
"","","","","","html-keyboard-response","332","591557","0.0-13.0-0.0-1.0-0.1-1.85","null","<span style='color:GreenYellow; font-size: 70px;'>正确! </span>","null","","","","","","","","","","","","","","","","","","","","","","","feedback_test"
"","","","","","psychophysics","333","593431","0.0-13.0-0.0-1.0-0.1-0.86","714","","f","","","","","","","","","","","","","key","f","16.66568468468419","768","428","f","true","img/S_ambi40.png","常人","image_first",""
"","","","","","html-keyboard-response","334","593734","0.0-13.0-0.0-1.0-0.1-1.86","null","<span style='color:GreenYellow; font-size: 70px;'>正确! </span>","null","","","","","","","","","","","","","","","","","","","","","","","feedback_test"
"","","","","","psychophysics","335","595648","0.0-13.0-0.0-1.0-0.1-0.87","761","","f","","","","","","","","","","","","","key","f","16.54612389380479","768","428","f","true","img/S_ambi40.png","好人","image_first",""
"","","","","","html-keyboard-response","336","595962","0.0-13.0-0.0-1.0-0.1-1.87","null","<span style='color:GreenYellow; font-size: 70px;'>正确! </span>","null","","","","","","","","","","","","","","","","","","","","","","","feedback_test"
"","","","","","psychophysics","337","597698","0.0-13.0-0.0-1.0-0.1-0.88","579","","f","","","","","","","","","","","","","key","f","16.666155339805275","768","428","f","true","img/C_ambi40.png","坏人","image_first",""
"","","","","","html-keyboard-response","338","598004","0.0-13.0-0.0-1.0-0.1-1.88","null","<span style='color:GreenYellow; font-size: 70px;'>正确! </span>","null","","","","","","","","","","","","","","","","","","","","","","","feedback_test"
"","","","","","psychophysics","339","599915","0.0-13.0-0.0-1.0-0.1-0.89","746","","j","","","","","","","","","","","","","key","j","16.665796460176868","768","428","j","true","img/C_ambi40.png","常人","image_first",""
"","","","","","html-keyboard-response","340","600220","0.0-13.0-0.0-1.0-0.1-1.89","null","<span style='color:GreenYellow; font-size: 70px;'>正确! </span>","null","","","","","","","","","","","","","","","","","","","","","","","feedback_test"
"","","","","","psychophysics","341","602080","0.0-13.0-0.0-1.0-0.1-0.90","701","","j","","","","","","","","","","","","","key","j","16.666063636363567","768","428","j","true","img/T_ambi40.png","好人","image_first",""
"","","","","","html-keyboard-response","342","602384","0.0-13.0-0.0-1.0-0.1-1.90","null","<span style='color:GreenYellow; font-size: 70px;'>正确! </span>","null","","","","","","","","","","","","","","","","","","","","","","","feedback_test"
"","","","","","psychophysics","343","604588","0.0-13.0-0.0-1.0-0.1-0.91","1052","","j","","","","","","","","","","","","","key","j","16.555694656488342","768","428","j","true","img/S_ambi40.png","坏人","image_first",""
"","","","","","html-keyboard-response","344","604897","0.0-13.0-0.0-1.0-0.1-1.91","null","<span style='color:GreenYellow; font-size: 70px;'>正确! </span>","null","","","","","","","","","","","","","","","","","","","","","","","feedback_test"
"","","","","","psychophysics","345","606878","0.0-13.0-0.0-1.0-0.1-0.92","826","","f","","","","","","","","","","","","","key","f","16.664898305084613","768","428","f","true","img/C_ambi40.png","好人","image_first",""
"","","","","","html-keyboard-response","346","607191","0.0-13.0-0.0-1.0-0.1-1.92","null","<span style='color:GreenYellow; font-size: 70px;'>正确! </span>","null","","","","","","","","","","","","","","","","","","","","","","","feedback_test"
"","","","","","psychophysics","347","609174","0.0-13.0-0.0-1.0-0.1-0.93","823","","j","","","","","","","","","","","","","key","j","16.66456779661012","768","428","f","false","img/T_ambi40.png","坏人","image_first",""
"","","","","","html-keyboard-response","348","609480","0.0-13.0-0.0-1.0-0.1-1.93","null","<span style='color:red; font-size: 70px;'>错误! </span>","null","","","","","","","","","","","","","","","","","","","","","","","feedback_test"
"","","","","","psychophysics","349","611411","0.0-13.0-0.0-1.0-0.1-0.94","778","","j","","","","","","","","","","","","","key","j","16.666043478260626","768","428","j","true","img/T_ambi40.png","好人","image_first",""
"","","","","","html-keyboard-response","350","611723","0.0-13.0-0.0-1.0-0.1-1.94","null","<span style='color:GreenYellow; font-size: 70px;'>正确! </span>","null","","","","","","","","","","","","","","","","","","","","","","","feedback_test"
"","","","","","psychophysics","351","613617","0.0-13.0-0.0-1.0-0.1-0.95","732","","j","","","","","","","","","","","","","key","j","16.666017857142183","768","428","j","true","img/C_ambi40.png","常人","image_first",""
"","","","","","html-keyboard-response","352","613925","0.0-13.0-0.0-1.0-0.1-1.95","null","<span style='color:GreenYellow; font-size: 70px;'>正确! </span>","null","","","","","","","","","","","","","","","","","","","","","","","feedback_test"
"","","","","","psychophysics","353","616039","0.0-13.0-0.0-1.0-0.1-0.96","955","","f","","","","","","","","","","","","","key","f","16.665761904762356","768","428","f","true","img/T_ambi40.png","坏人","image_first",""
"","","","","","html-keyboard-response","354","616349","0.0-13.0-0.0-1.0-0.1-1.96","null","<span style='color:GreenYellow; font-size: 70px;'>正确! </span>","null","","","","","","","","","","","","","","","","","","","","","","","feedback_test"
"","","","","","psychophysics","355","618015","0.0-13.0-0.0-1.0-0.1-0.97","514","","j","","","","","","","","","","","","","key","j","16.665878787878995","768","428","j","true","img/T_ambi40.png","好人","image_first",""
"","","","","","html-keyboard-response","356","618329","0.0-13.0-0.0-1.0-0.1-1.97","null","<span style='color:GreenYellow; font-size: 70px;'>正确! </span>","null","","","","","","","","","","","","","","","","","","","","","","","feedback_test"
"","","","","","psychophysics","357","620241","0.0-13.0-0.0-1.0-0.1-0.98","759","","f","","","","","","","","","","","","","key","f","16.665991228070773","768","428","f","true","img/C_ambi40.png","好人","image_first",""
"","","","","","html-keyboard-response","358","620544","0.0-13.0-0.0-1.0-0.1-1.98","null","<span style='color:GreenYellow; font-size: 70px;'>正确! </span>","null","","","","","","","","","","","","","","","","","","","","","","","feedback_test"
"","","","","","psychophysics","359","622547","0.0-13.0-0.0-1.0-0.1-0.99","845","","j","","","","","","","","","","","","","key","j","16.66511764705862","768","428","j","true","img/S_ambi40.png","坏人","image_first",""
"","","","","","html-keyboard-response","360","622851","0.0-13.0-0.0-1.0-0.1-1.99","null","<span style='color:GreenYellow; font-size: 70px;'>正确! </span>","null","","","","","","","","","","","","","","","","","","","","","","","feedback_test"
"","","","","","psychophysics","361","624858","0.0-13.0-0.0-1.0-0.1-0.100","856","","f","","","","","","","","","","","","","key","f","16.665974789916365","768","428","f","true","img/S_ambi40.png","常人","image_first",""
"","","","","","html-keyboard-response","362","625172","0.0-13.0-0.0-1.0-0.1-1.100","null","<span style='color:GreenYellow; font-size: 70px;'>正确! </span>","null","","","","","","","","","","","","","","","","","","","","","","","feedback_test"
"","","","","","psychophysics","363","627172","0.0-13.0-0.0-1.0-0.1-0.101","837","","f","","","","","","","","","","","","","key","f","16.66616806722669","768","428","f","true","img/S_ambi40.png","好人","image_first",""
"","","","","","html-keyboard-response","364","627481","0.0-13.0-0.0-1.0-0.1-1.101","null","<span style='color:GreenYellow; font-size: 70px;'>正确! </span>","null","","","","","","","","","","","","","","","","","","","","","","","feedback_test"
"","","","","","psychophysics","365","629266","0.0-13.0-0.0-1.0-0.1-0.102","632","","f","","","","","","","","","","","","","key","f","16.66591509433907","768","428","f","true","img/C_ambi40.png","坏人","image_first",""
"","","","","","html-keyboard-response","366","629581","0.0-13.0-0.0-1.0-0.1-1.102","null","<span style='color:GreenYellow; font-size: 70px;'>正确! </span>","null","","","","","","","","","","","","","","","","","","","","","","","feedback_test"
"","","","","","psychophysics","367","631427","0.0-13.0-0.0-1.0-0.1-0.103","693","","f","","","","","","","","","","","","","key","f","16.66582727272762","768","428","f","true","img/T_ambi40.png","常人","image_first",""
"","","","","","html-keyboard-response","368","631732","0.0-13.0-0.0-1.0-0.1-1.103","null","<span style='color:GreenYellow; font-size: 70px;'>正确! </span>","null","","","","","","","","","","","","","","","","","","","","","","","feedback_test"
"","","","","","psychophysics","369","633763","0.0-13.0-0.0-1.0-0.1-0.104","879","","j","","","","","","","","","","","","","key","j","16.666123966942347","768","428","j","true","img/C_ambi40.png","常人","image_first",""
"","","","","","html-keyboard-response","370","634076","0.0-13.0-0.0-1.0-0.1-1.104","null","<span style='color:GreenYellow; font-size: 70px;'>正确! </span>","null","","","","","","","","","","","","","","","","","","","","","","","feedback_test"
"","","","","","psychophysics","371","635960","0.0-13.0-0.0-1.0-0.1-0.105","726","","j","","","","","","","","","","","","","key","j","16.666133928572112","768","428","j","true","img/S_ambi40.png","坏人","image_first",""
"","","","","","html-keyboard-response","372","636275","0.0-13.0-0.0-1.0-0.1-1.105","null","<span style='color:GreenYellow; font-size: 70px;'>正确! </span>","null","","","","","","","","","","","","","","","","","","","","","","","feedback_test"
"","","","","","psychophysics","373","638165","0.0-13.0-0.0-1.0-0.1-0.106","731","","j","","","","","","","","","","","","","key","j","16.66588392857167","768","428","j","true","img/T_ambi40.png","好人","image_first",""
"","","","","","html-keyboard-response","374","638468","0.0-13.0-0.0-1.0-0.1-1.106","null","<span style='color:GreenYellow; font-size: 70px;'>正确! </span>","null","","","","","","","","","","","","","","","","","","","","","","","feedback_test"
"","","","","","psychophysics","375","640232","0.0-13.0-0.0-1.0-0.1-0.107","603","","j","","","","","","","","","","","","","key","j","16.665721153846018","768","428","j","true","img/C_ambi40.png","常人","image_first",""
"","","","","","html-keyboard-response","376","640536","0.0-13.0-0.0-1.0-0.1-1.107","null","<span style='color:GreenYellow; font-size: 70px;'>正确! </span>","null","","","","","","","","","","","","","","","","","","","","","","","feedback_test"
"","","","","","psychophysics","377","642624","0.0-13.0-0.0-1.0-0.1-0.108","924","","j","","","","","","","","","","","","","key","j","16.665895161290294","768","428","j","true","img/S_ambi40.png","坏人","image_first",""
"","","","","","html-keyboard-response","378","642931","0.0-13.0-0.0-1.0-0.1-1.108","null","<span style='color:GreenYellow; font-size: 70px;'>正确! </span>","null","","","","","","","","","","","","","","","","","","","","","","","feedback_test"
"","","","","","psychophysics","379","644714","0.0-13.0-0.0-1.0-0.1-0.109","632","","f","","","","","","","","","","","","","key","f","16.666235849057006","768","428","f","true","img/C_ambi40.png","坏人","image_first",""
"","","","","","html-keyboard-response","380","645025","0.0-13.0-0.0-1.0-0.1-1.109","null","<span style='color:GreenYellow; font-size: 70px;'>正确! </span>","null","","","","","","","","","","","","","","","","","","","","","","","feedback_test"
"","","","","","psychophysics","381","646775","0.0-13.0-0.0-1.0-0.1-0.110","592","","j","","","","","","","","","","","","","key","j","16.666201923077235","768","428","j","true","img/C_ambi40.png","常人","image_first",""
"","","","","","html-keyboard-response","382","647078","0.0-13.0-0.0-1.0-0.1-1.110","null","<span style='color:GreenYellow; font-size: 70px;'>正确! </span>","null","","","","","","","","","","","","","","","","","","","","","","","feedback_test"
"","","","","","psychophysics","383","648852","0.0-13.0-0.0-1.0-0.1-0.111","622","","j","","","","","","","","","","","","","key","j","16.664877358490145","768","428","j","true","img/T_ambi40.png","好人","image_first",""
"","","","","","html-keyboard-response","384","649157","0.0-13.0-0.0-1.0-0.1-1.111","null","<span style='color:GreenYellow; font-size: 70px;'>正确! </span>","null","","","","","","","","","","","","","","","","","","","","","","","feedback_test"
"","","","","","psychophysics","385","651073","0.0-13.0-0.0-1.0-0.1-0.112","759","","j","","","","","","","","","","","","","key","j","16.666026315789694","768","428","j","true","img/C_ambi40.png","常人","image_first",""
"","","","","","html-keyboard-response","386","651386","0.0-13.0-0.0-1.0-0.1-1.112","null","<span style='color:GreenYellow; font-size: 70px;'>正确! </span>","null","","","","","","","","","","","","","","","","","","","","","","","feedback_test"
"","","","","","psychophysics","387","653159","0.0-13.0-0.0-1.0-0.1-0.113","615","","f","","","","","","","","","","","","","key","f","16.66599047619051","768","428","f","true","img/C_ambi40.png","好人","image_first",""
"","","","","","html-keyboard-response","388","653475","0.0-13.0-0.0-1.0-0.1-1.113","null","<span style='color:GreenYellow; font-size: 70px;'>正确! </span>","null","","","","","","","","","","","","","","","","","","","","","","","feedback_test"
"","","","","","psychophysics","389","655365","0.0-13.0-0.0-1.0-0.1-0.114","732","","f","","","","","","","","","","","","","key","f","16.66618750000011","768","428","f","true","img/T_ambi40.png","常人","image_first",""
"","","","","","html-keyboard-response","390","655675","0.0-13.0-0.0-1.0-0.1-1.114","null","<span style='color:GreenYellow; font-size: 70px;'>正确! </span>","null","","","","","","","","","","","","","","","","","","","","","","","feedback_test"
"","","","","","psychophysics","391","657506","0.0-13.0-0.0-1.0-0.1-0.115","673","","f","","","","","","","","","","","","","key","f","16.66520183486223","768","428","f","true","img/S_ambi40.png","常人","image_first",""
"","","","","","html-keyboard-response","392","657812","0.0-13.0-0.0-1.0-0.1-1.115","null","<span style='color:GreenYellow; font-size: 70px;'>正确! </span>","null","","","","","","","","","","","","","","","","","","","","","","","feedback_test"
"","","","","","psychophysics","393","659513","0.0-13.0-0.0-1.0-0.1-0.116","546","","j","","","","","","","","","","","","","key","j","16.665178217821396","768","428","j","true","img/T_ambi40.png","好人","image_first",""
"","","","","","html-keyboard-response","394","659822","0.0-13.0-0.0-1.0-0.1-1.116","null","<span style='color:GreenYellow; font-size: 70px;'>正确! </span>","null","","","","","","","","","","","","","","","","","","","","","","","feedback_test"
"","","","","","psychophysics","395","661772","0.0-13.0-0.0-1.0-0.1-0.117","792","","j","","","","","","","","","","","","","key","j","16.665948275862068","768","428","j","true","img/S_ambi40.png","坏人","image_first",""
"","","","","","html-keyboard-response","396","662085","0.0-13.0-0.0-1.0-0.1-1.117","null","<span style='color:GreenYellow; font-size: 70px;'>正确! </span>","null","","","","","","","","","","","","","","","","","","","","","","","feedback_test"
"","","","","","psychophysics","397","663816","0.0-13.0-0.0-1.0-0.1-0.118","580","","f","","","","","","","","","","","","","key","f","16.665764705882882","768","428","f","true","img/S_ambi40.png","好人","image_first",""
"","","","","","html-keyboard-response","398","664130","0.0-13.0-0.0-1.0-0.1-1.118","null","<span style='color:GreenYellow; font-size: 70px;'>正确! </span>","null","","","","","","","","","","","","","","","","","","","","","","","feedback_test"
"","","","","","psychophysics","399","666004","0.0-13.0-0.0-1.0-0.1-0.119","721","","f","","","","","","","","","","","","","key","f","16.66505357142887","768","428","f","true","img/T_ambi40.png","坏人","image_first",""
"","","","","","html-keyboard-response","400","666314","0.0-13.0-0.0-1.0-0.1-1.119","null","<span style='color:GreenYellow; font-size: 70px;'>正确! </span>","null","","","","","","","","","","","","","","","","","","","","","","","feedback_test"
"","","","","","html-keyboard-response","401","668024","0.0-13.0-0.0-1.0-1.1","1709","<style>.context{color:white; font-size: 35px; line-height:40px}</style>                              <div><p class='context'>您正确回答了97% 的试次。</p><p class='context'>您的平均反应时为699毫秒。</p><p class='context'>请按任意键进入休息</p></div>"," ","","","","","","","","","","","","","","","","","","","","","","",""
"","","","","","html-button-response","402","734176","0.0-13.0-0.0-1.0-2.1","66150","
                      <p>您当前还剩余2组实验</p>
                      <p>现在是休息时间，当您结束休息后，您可以点击 结束休息 按钮 继续</p>
                      <p>建议休息时间还剩余<span id=""iii"">60</span>秒</p>","0","","","","","","","","","","","","","","","","","","","","","","",""
"","","","","","psychophysics","403","736340","0.0-13.0-0.0-1.0-0.2-0.120","1010","","j","","","","","","","","","","","","","key","j","16.66603100775243","768","428","j","true","img/T_ambi40.png","好人","image_first",""
"","","","","","html-keyboard-response","404","736654","0.0-13.0-0.0-1.0-0.2-1.120","null","<span style='color:GreenYellow; font-size: 70px;'>正确! </span>","null","","","","","","","","","","","","","","","","","","","","","","","feedback_test"
"","","","","","psychophysics","405","738430","0.0-13.0-0.0-1.0-0.2-0.121","617","","f","","","","","","","","","","","","","key","f","16.665801886793112","768","428","f","true","img/S_ambi40.png","好人","image_first",""
"","","","","","html-keyboard-response","406","738740","0.0-13.0-0.0-1.0-0.2-1.121","null","<span style='color:GreenYellow; font-size: 70px;'>正确! </span>","null","","","","","","","","","","","","","","","","","","","","","","","feedback_test"
"","","","","","psychophysics","407","740467","0.0-13.0-0.0-1.0-0.2-0.122","571","","f","","","","","","","","","","","","","key","f","16.666019417476633","768","428","f","true","img/T_ambi40.png","坏人","image_first",""
"","","","","","html-keyboard-response","408","740778","0.0-13.0-0.0-1.0-0.2-1.122","null","<span style='color:GreenYellow; font-size: 70px;'>正确! </span>","null","","","","","","","","","","","","","","","","","","","","","","","feedback_test"
"","","","","","psychophysics","409","742558","0.0-13.0-0.0-1.0-0.2-0.123","628","","j","","","","","","","","","","","","","key","j","16.547019047619376","768","428","j","true","img/C_ambi40.png","常人","image_first",""
"","","","","","html-keyboard-response","410","742875","0.0-13.0-0.0-1.0-0.2-1.123","null","<span style='color:GreenYellow; font-size: 70px;'>正确! </span>","null","","","","","","","","","","","","","","","","","","","","","","","feedback_test"
"","","","","","psychophysics","411","744629","0.0-13.0-0.0-1.0-0.2-0.124","599","","f","","","","","","","","","","","","","key","f","16.665403846153193","768","428","f","true","img/C_ambi40.png","好人","image_first",""
"","","","","","html-keyboard-response","412","744939","0.0-13.0-0.0-1.0-0.2-1.124","null","<span style='color:GreenYellow; font-size: 70px;'>正确! </span>","null","","","","","","","","","","","","","","","","","","","","","","","feedback_test"
"","","","","","psychophysics","413","746605","0.0-13.0-0.0-1.0-0.2-0.125","507","","j","","","","","","","","","","","","","key","j","16.664777777778607","768","428","j","true","img/S_ambi40.png","坏人","image_first",""
"","","","","","html-keyboard-response","414","746920","0.0-13.0-0.0-1.0-0.2-1.125","null","<span style='color:GreenYellow; font-size: 70px;'>正确! </span>","null","","","","","","","","","","","","","","","","","","","","","","","feedback_test"
"","","","","","psychophysics","415","748656","0.0-13.0-0.0-1.0-0.2-0.126","576","","f","","","","","","","","","","","","","key","f","16.665970873786137","768","428","f","true","img/T_ambi40.png","常人","image_first",""
"","","","","","html-keyboard-response","416","748959","0.0-13.0-0.0-1.0-0.2-1.126","null","<span style='color:GreenYellow; font-size: 70px;'>正确! </span>","null","","","","","","","","","","","","","","","","","","","","","","","feedback_test"
"","","","","","psychophysics","417","751052","0.0-13.0-0.0-1.0-0.2-0.127","940","","j","","","","","","","","","","","","","key","j","16.665071999999693","768","428","j","true","img/T_ambi40.png","好人","image_first",""
"","","","","","html-keyboard-response","418","751363","0.0-13.0-0.0-1.0-0.2-1.127","null","<span style='color:GreenYellow; font-size: 70px;'>正确! </span>","null","","","","","","","","","","","","","","","","","","","","","","","feedback_test"
"","","","","","psychophysics","419","753086","0.0-13.0-0.0-1.0-0.2-0.128","567","","f","","","","","","","","","","","","","key","f","16.66570588235296","768","428","f","true","img/C_ambi40.png","坏人","image_first",""
"","","","","","html-keyboard-response","420","753396","0.0-13.0-0.0-1.0-0.2-1.128","null","<span style='color:GreenYellow; font-size: 70px;'>正确! </span>","null","","","","","","","","","","","","","","","","","","","","","","","feedback_test"
"","","","","","psychophysics","421","755376","0.0-13.0-0.0-1.0-0.2-0.129","829","","f","","","","","","","","","","","","","key","f","16.665333333333685","768","428","f","true","img/S_ambi40.png","常人","image_first",""
"","","","","","html-keyboard-response","422","755687","0.0-13.0-0.0-1.0-0.2-1.129","null","<span style='color:GreenYellow; font-size: 70px;'>正确! </span>","null","","","","","","","","","","","","","","","","","","","","","","","feedback_test"
"","","","","","psychophysics","423","757634","0.0-13.0-0.0-1.0-0.2-0.130","790","","j","","","","","","","","","","","","","key","j","16.66618965517284","768","428","j","true","img/C_ambi40.png","常人","image_first",""
"","","","","","html-keyboard-response","424","757945","0.0-13.0-0.0-1.0-0.2-1.130","null","<span style='color:GreenYellow; font-size: 70px;'>正确! </span>","null","","","","","","","","","","","","","","","","","","","","","","","feedback_test"
"","","","","","psychophysics","425","759619","0.0-13.0-0.0-1.0-0.2-0.131","523","","j","","","","","","","","","","","","","key","j","16.665989898989505","768","428","j","true","img/S_ambi40.png","坏人","image_first",""
"","","","","","html-keyboard-response","426","759929","0.0-13.0-0.0-1.0-0.2-1.131","null","<span style='color:GreenYellow; font-size: 70px;'>正确! </span>","null","","","","","","","","","","","","","","","","","","","","","","","feedback_test"
"","","","","","psychophysics","427","761584","0.0-13.0-0.0-1.0-0.2-0.132","495","","j","","","","","","","","","","","","","key","j","16.66583673469366","768","428","j","true","img/C_ambi40.png","常人","image_first",""
"","","","","","html-keyboard-response","428","761891","0.0-13.0-0.0-1.0-0.2-1.132","null","<span style='color:GreenYellow; font-size: 70px;'>正确! </span>","null","","","","","","","","","","","","","","","","","","","","","","","feedback_test"
"","","","","","psychophysics","429","763631","0.0-13.0-0.0-1.0-0.2-0.133","585","","f","","","","","","","","","","","","","key","f","16.66609615384592","768","428","f","true","img/C_ambi40.png","好人","image_first",""
"","","","","","html-keyboard-response","430","763947","0.0-13.0-0.0-1.0-0.2-1.133","null","<span style='color:GreenYellow; font-size: 70px;'>正确! </span>","null","","","","","","","","","","","","","","","","","","","","","","","feedback_test"
"","","","","","psychophysics","431","765721","0.0-13.0-0.0-1.0-0.2-0.134","611","","f","","","","","","","","","","","","","key","f","16.66521904761903","768","428","f","true","img/T_ambi40.png","坏人","image_first",""
