"success","timeout","failed_images","failed_audio","failed_video","trial_type","trial_index","time_elapsed","internal_node_id","rt","stimulus","response","value","item_width_mm","item_height_mm","item_width_px","px2mm","view_dist_mm","item_width_deg","px2deg","scale_factor","win_width_deg","win_height_deg","view_history","response_type","key_press","avg_frame_time","center_x","center_y","correct_response","correct","Image","word","condition","screen_id"
"true","false","[]","[]","[]","preload","0","455","0.0-0.0","","","","","","","","","","","","","","","","","","","","","","","","","",""
"","","","","","html-keyboard-response","1","526565","0.0-1.0","526119","
     <p>您好，欢迎参加本次实验。</p>
     <p>为充分保障您的权利，请确保您已经知晓并同意《参与实验同意书》以及《数据公开知情同意书》。</p>
     <p>如果您未见过上述内容，请咨询实验员。</p>
     <p>如果您选择继续实验，则表示您已经清楚两份知情同意书的内容并同意。</p>
     <p> <div style = ""color: green""><按任意键至下页></div> </p>
     "," ","","","","","","","","","","","","","","","","","","","","","","",""
"","","","","","html-keyboard-response","2","529496","0.0-2.0","2930","
     <p>本实验首先需要您填写一些基本个人信息。</p>
     <p> <div style = ""color: green""><按任意键至下页></div></p>
     "," ","","","","","","","","","","","","","","","","","","","","","","",""
"","","","","","call-function","3","529499","0.0-3.0-0.0","","","","","","","","","","","","","","","","","","","","","","","","","",""
"","","","","","survey-html-form","4","537773","0.0-3.0-1.0","8272","","{""Q0"":""34""}","","","","","","","","","","","","","","","","","","","","","","",""
"","","","","","html-button-response","5","540327","0.0-3.0-2.0","2552","<p style = 'color : white'>您的性别</p>","0","","","","","","","","","","","","","","","","","","","","","","",""
"","","","","","survey-html-form","6","547709","0.0-3.0-3.0","7381","","{""Q0"":""2000""}","","","","","","","","","","","","","","","","","","","","","","",""
"","","","","","survey-html-form","7","554091","0.0-3.0-4.0","6381","","{""Q0"":""5""}","","","","","","","","","","","","","","","","","","","","","","",""
"","","","","","virtual-chinrest","8","641288","0.0-4.0","87194","","","","85.6","53.98","589.8543975149715","6.890953032580117","414.27","11.79708795029943","50","0.7154307940703094","28.8","15.28","","","","","","","","","","","",""
"true","","","","","fullscreen","9","644838","0.0-5.0","","","","","","","","","","","","","","","","","","","","","","","","","",""
"","","","","","instructions","10","693488","0.0-6.0","48650","","","","","","","","","","","","","","[{""page_index"":0,""viewing_time"":2184},{""page_index"":1,""viewing_time"":28856},{""page_index"":2,""viewing_time"":13058},{""page_index"":3,""viewing_time"":4552}]","","","","","","","","","","",""
"","","","","","psychophysics","11","695400","0.0-7.0-0.0-0.0","756","","f","","","","","","","","","","","","","key","f","16.66599999999924","720","446","f","true","img/S_ambi40.png","好人","prac_image_first",""
"","","","","","html-keyboard-response","12","695703","0.0-7.0-0.0-1.0","null","<span style='color:GreenYellow; font-size: 70px;'>正确! </span>","null","","","","","","","","","","","","","","","","","","","","","","","feedback_test"
"","","","","","psychophysics","13","697497","0.0-7.0-0.0-0.1","639","","f","","","","","","","","","","","","","key","f","16.666000000000974","720","446","f","true","img/S_ambi40.png","好人","prac_image_first",""
"","","","","","html-keyboard-response","14","697810","0.0-7.0-0.0-1.1","null","<span style='color:GreenYellow; font-size: 70px;'>正确! </span>","null","","","","","","","","","","","","","","","","","","","","","","","feedback_test"
"","","","","","psychophysics","15","699681","0.0-7.0-0.0-0.2","710","","j","","","","","","","","","","","","","key","j","16.665999999999798","720","446","j","true","img/T_ambi40.png","坏人","prac_image_first",""
"","","","","","html-keyboard-response","16","699987","0.0-7.0-0.0-1.2","null","<span style='color:GreenYellow; font-size: 70px;'>正确! </span>","null","","","","","","","","","","","","","","","","","","","","","","","feedback_test"
"","","","","","psychophysics","17","701990","0.0-7.0-0.0-0.3","850","","f","","","","","","","","","","","","","key","f","16.66600000000035","720","446","f","true","img/T_ambi40.png","常人","prac_image_first",""
"","","","","","html-keyboard-response","18","702299","0.0-7.0-0.0-1.3","null","<span style='color:GreenYellow; font-size: 70px;'>正确! </span>","null","","","","","","","","","","","","","","","","","","","","","","","feedback_test"
"","","","","","psychophysics","19","704313","0.0-7.0-0.0-0.4","859","","j","","","","","","","","","","","","","key","j","16.66600000000035","720","446","j","true","img/C_ambi40.png","好人","prac_image_first",""
"","","","","","html-keyboard-response","20","704627","0.0-7.0-0.0-1.4","null","<span style='color:GreenYellow; font-size: 70px;'>正确! </span>","null","","","","","","","","","","","","","","","","","","","","","","","feedback_test"
"","","","","","psychophysics","21","706755","0.0-7.0-0.0-0.5","972","","j","","","","","","","","","","","","","key","j","16.666000000000672","720","446","f","false","img/C_ambi40.png","坏人","prac_image_first",""
"","","","","","html-keyboard-response","22","707062","0.0-7.0-0.0-1.5","null","<span style='color:red; font-size: 70px;'>错误! </span>","null","","","","","","","","","","","","","","","","","","","","","","","feedback_test"
"","","","","","psychophysics","23","709078","0.0-7.0-0.0-0.6","854","","j","","","","","","","","","","","","","key","j","16.670366666666816","720","446","j","true","img/S_ambi40.png","常人","prac_image_first",""
"","","","","","html-keyboard-response","24","709383","0.0-7.0-0.0-1.6","null","<span style='color:GreenYellow; font-size: 70px;'>正确! </span>","null","","","","","","","","","","","","","","","","","","","","","","","feedback_test"
"","","","","","psychophysics","25","711500","0.0-7.0-0.0-0.7","959","","f","","","","","","","","","","","","","key","f","16.665999999999748","720","446","f","true","img/T_ambi40.png","常人","prac_image_first",""
"","","","","","html-keyboard-response","26","711809","0.0-7.0-0.0-1.7","null","<span style='color:GreenYellow; font-size: 70px;'>正确! </span>","null","","","","","","","","","","","","","","","","","","","","","","","feedback_test"
"","","","","","psychophysics","27","713933","0.0-7.0-0.0-0.8","968","","f","","","","","","","","","","","","","key","f","16.665999999999748","720","446","f","true","img/C_ambi40.png","坏人","prac_image_first",""
"","","","","","html-keyboard-response","28","714238","0.0-7.0-0.0-1.8","null","<span style='color:GreenYellow; font-size: 70px;'>正确! </span>","null","","","","","","","","","","","","","","","","","","","","","","","feedback_test"
"","","","","","psychophysics","29","716328","0.0-7.0-0.0-0.9","938","","j","","","","","","","","","","","","","key","j","16.666000000000256","720","446","j","true","img/C_ambi40.png","常人","prac_image_first",""
"","","","","","html-keyboard-response","30","716630","0.0-7.0-0.0-1.9","null","<span style='color:GreenYellow; font-size: 70px;'>正确! </span>","null","","","","","","","","","","","","","","","","","","","","","","","feedback_test"
"","","","","","psychophysics","31","718631","0.0-7.0-0.0-0.10","840","","j","","","","","","","","","","","","","key","j","16.66600000000062","720","446","j","true","img/T_ambi40.png","好人","prac_image_first",""
"","","","","","html-keyboard-response","32","718938","0.0-7.0-0.0-1.10","null","<span style='color:GreenYellow; font-size: 70px;'>正确! </span>","null","","","","","","","","","","","","","","","","","","","","","","","feedback_test"
"","","","","","psychophysics","33","720765","0.0-7.0-0.0-0.11","675","","j","","","","","","","","","","","","","key","j","16.666000000000377","720","446","j","true","img/S_ambi40.png","坏人","prac_image_first",""
"","","","","","html-keyboard-response","34","721070","0.0-7.0-0.0-1.11","null","<span style='color:GreenYellow; font-size: 70px;'>正确! </span>","null","","","","","","","","","","","","","","","","","","","","","","","feedback_test"
"","","","","","psychophysics","35","723123","0.0-7.0-0.0-0.12","899","","f","","","","","","","","","","","","","key","f","16.665999999999823","720","446","f","true","img/S_ambi40.png","好人","prac_image_first",""
"","","","","","html-keyboard-response","36","723434","0.0-7.0-0.0-1.12","null","<span style='color:GreenYellow; font-size: 70px;'>正确! </span>","null","","","","","","","","","","","","","","","","","","","","","","","feedback_test"
"","","","","","psychophysics","37","725329","0.0-7.0-0.0-0.13","739","","j","","","","","","","","","","","","","key","j","16.66600000000027","720","446","j","true","img/T_ambi40.png","好人","prac_image_first",""
"","","","","","html-keyboard-response","38","725639","0.0-7.0-0.0-1.13","null","<span style='color:GreenYellow; font-size: 70px;'>正确! </span>","null","","","","","","","","","","","","","","","","","","","","","","","feedback_test"
"","","","","","psychophysics","39","727762","0.0-7.0-0.0-0.14","971","","f","","","","","","","","","","","","","key","f","16.666000000000672","720","446","f","true","img/T_ambi40.png","常人","prac_image_first",""
"","","","","","html-keyboard-response","40","728069","0.0-7.0-0.0-1.14","null","<span style='color:GreenYellow; font-size: 70px;'>正确! </span>","null","","","","","","","","","","","","","","","","","","","","","","","feedback_test"
"","","","","","psychophysics","41","730195","0.0-7.0-0.0-0.15","973","","f","","","","","","","","","","","","","key","f","16.670125984252195","720","446","f","true","img/C_ambi40.png","坏人","prac_image_first",""
"","","","","","html-keyboard-response","42","730506","0.0-7.0-0.0-1.15","null","<span style='color:GreenYellow; font-size: 70px;'>正确! </span>","null","","","","","","","","","","","","","","","","","","","","","","","feedback_test"
"","","","","","psychophysics","43","732514","0.0-7.0-0.0-0.16","856","","j","","","","","","","","","","","","","key","j","16.66599999999964","720","446","j","true","img/C_ambi40.png","常人","prac_image_first",""
"","","","","","html-keyboard-response","44","732825","0.0-7.0-0.0-1.16","null","<span style='color:GreenYellow; font-size: 70px;'>正确! </span>","null","","","","","","","","","","","","","","","","","","","","","","","feedback_test"
"","","","","","psychophysics","45","734754","0.0-7.0-0.0-0.17","777","","j","","","","","","","","","","","","","key","j","16.665999999999716","720","446","j","true","img/C_ambi40.png","好人","prac_image_first",""
"","","","","","html-keyboard-response","46","735066","0.0-7.0-0.0-1.17","null","<span style='color:GreenYellow; font-size: 70px;'>正确! </span>","null","","","","","","","","","","","","","","","","","","","","","","","feedback_test"
"","","","","","psychophysics","47","737138","0.0-7.0-0.0-0.18","916","","j","","","","","","","","","","","","","key","j","16.666000000000516","720","446","j","true","img/T_ambi40.png","坏人","prac_image_first",""
"","","","","","html-keyboard-response","48","737450","0.0-7.0-0.0-1.18","null","<span style='color:GreenYellow; font-size: 70px;'>正确! </span>","null","","","","","","","","","","","","","","","","","","","","","","","feedback_test"
"","","","","","psychophysics","49","739220","0.0-7.0-0.0-0.19","613","","j","","","","","","","","","","","","","key","j","16.666000000000487","720","446","f","false","img/C_ambi40.png","坏人","prac_image_first",""
"","","","","","html-keyboard-response","50","739526","0.0-7.0-0.0-1.19","null","<span style='color:red; font-size: 70px;'>错误! </span>","null","","","","","","","","","","","","","","","","","","","","","","","feedback_test"
"","","","","","psychophysics","51","741404","0.0-7.0-0.0-0.20","718","","f","","","","","","","","","","","","","key","f","16.665999999999798","720","446","f","true","img/T_ambi40.png","常人","prac_image_first",""
"","","","","","html-keyboard-response","52","741710","0.0-7.0-0.0-1.20","null","<span style='color:GreenYellow; font-size: 70px;'>正确! </span>","null","","","","","","","","","","","","","","","","","","","","","","","feedback_test"
"","","","","","psychophysics","53","743614","0.0-7.0-0.0-0.21","742","","f","","","","","","","","","","","","","key","f","16.66600000000027","720","446","f","true","img/S_ambi40.png","好人","prac_image_first",""
"","","","","","html-keyboard-response","54","743922","0.0-7.0-0.0-1.21","null","<span style='color:GreenYellow; font-size: 70px;'>正确! </span>","null","","","","","","","","","","","","","","","","","","","","","","","feedback_test"
"","","","","","psychophysics","55","745845","0.0-7.0-0.0-0.22","771","","j","","","","","","","","","","","","","key","j","16.665999999999993","720","446","j","true","img/S_ambi40.png","常人","prac_image_first",""
"","","","","","html-keyboard-response","56","746152","0.0-7.0-0.0-1.22","null","<span style='color:GreenYellow; font-size: 70px;'>正确! </span>","null","","","","","","","","","","","","","","","","","","","","","","","feedback_test"
"","","","","","psychophysics","57","748807","0.0-7.0-0.0-0.23","null","","null","","","","","","","","","","","","","key","null","16.66599999999982","720","446","j","false","img/S_ambi40.png","坏人","prac_image_first",""
"","","","","","html-keyboard-response","58","749114","0.0-7.0-0.0-1.23","null","<span class='add_' style='color:yellow; font-size: 70px;'> 太慢! </span>","null","","","","","","","","","","","","","","","","","","","","","","","feedback_test"
"","","","","","html-keyboard-response","59","753060","0.0-8.0","3942","<style>.context{color:white; font-size: 35px; line-height:40px}</style>                              <div><p class='context'>您正确回答了88% 的试次。</p><p class='context'>您的平均反应时为829毫秒。</p><p class='context'>恭喜您完成这一阶段的练习。按任意键进入<span style='color: yellow;'>先文字后图形条件</span>的练习。</p></div>"," ","","","","","","","","","","","","","","","","","","","","","","",""
"","","","","","psychophysics","60","755723","0.0-9.0-0.0-0.0","null","","null","","","","","","","","","","","","","key","null","16.66599999999982","720","446","j","false","img/T_ambi40.png","坏人","prac_word_first",""
"","","","","","html-keyboard-response","61","756032","0.0-9.0-0.0-1.0","null","<span class='add_' style='color:yellow; font-size: 70px;'> 太慢! </span>","null","","","","","","","","","","","","","","","","","","","","","","","feedback_test"
"","","","","","psychophysics","62","758227","0.0-9.0-0.0-0.1","1038","","j","","","","","","","","","","","","","key","j","16.66599999999944","720","446","j","true","img/C_ambi40.png","常人","prac_word_first",""
"","","","","","html-keyboard-response","63","758535","0.0-9.0-0.0-1.1","null","<span style='color:GreenYellow; font-size: 70px;'>正确! </span>","null","","","","","","","","","","","","","","","","","","","","","","","feedback_test"
"","","","","","psychophysics","64","760514","0.0-9.0-0.0-0.2","823","","f","","","","","","","","","","","","","key","f","16.665999999999904","720","446","f","true","img/T_ambi40.png","常人","prac_word_first",""
"","","","","","html-keyboard-response","65","760826","0.0-9.0-0.0-1.2","null","<span style='color:GreenYellow; font-size: 70px;'>正确! </span>","null","","","","","","","","","","","","","","","","","","","","","","","feedback_test"
"","","","","","psychophysics","66","762756","0.0-9.0-0.0-0.3","774","","f","","","","","","","","","","","","","key","f","16.665999999999716","720","446","f","true","img/T_ambi40.png","常人","prac_word_first",""
"","","","","","html-keyboard-response","67","763062","0.0-9.0-0.0-1.3","null","<span style='color:GreenYellow; font-size: 70px;'>正确! </span>","null","","","","","","","","","","","","","","","","","","","","","","","feedback_test"
"","","","","","psychophysics","68","764914","0.0-9.0-0.0-0.4","691","","j","","","","","","","","","","","","","key","j","16.666000000000086","720","446","j","true","img/S_ambi40.png","坏人","prac_word_first",""
"","","","","","html-keyboard-response","69","765222","0.0-9.0-0.0-1.4","null","<span style='color:GreenYellow; font-size: 70px;'>正确! </span>","null","","","","","","","","","","","","","","","","","","","","","","","feedback_test"
"","","","","","psychophysics","70","767182","0.0-9.0-0.0-0.5","807","","f","","","","","","","","","","","","","key","f","16.665999999999446","720","446","f","true","img/C_ambi40.png","坏人","prac_word_first",""
"","","","","","html-keyboard-response","71","767489","0.0-9.0-0.0-1.5","null","<span style='color:GreenYellow; font-size: 70px;'>正确! </span>","null","","","","","","","","","","","","","","","","","","","","","","","feedback_test"
"","","","","","psychophysics","72","769529","0.0-9.0-0.0-0.6","887","","j","","","","","","","","","","","","","key","j","16.67033057851228","720","446","j","true","img/T_ambi40.png","好人","prac_word_first",""
"","","","","","html-keyboard-response","73","769841","0.0-9.0-0.0-1.6","null","<span style='color:GreenYellow; font-size: 70px;'>正确! </span>","null","","","","","","","","","","","","","","","","","","","","","","","feedback_test"
"","","","","","psychophysics","74","771764","0.0-9.0-0.0-0.7","771","","j","","","","","","","","","","","","","key","j","16.665999999999993","720","446","j","true","img/C_ambi40.png","好人","prac_word_first",""
"","","","","","html-keyboard-response","75","772072","0.0-9.0-0.0-1.7","null","<span style='color:GreenYellow; font-size: 70px;'>正确! </span>","null","","","","","","","","","","","","","","","","","","","","","","","feedback_test"
"","","","","","psychophysics","76","774051","0.0-9.0-0.0-0.8","827","","f","","","","","","","","","","","","","key","f","16.66599999999918","720","446","f","true","img/S_ambi40.png","好人","prac_word_first",""
"","","","","","html-keyboard-response","77","774361","0.0-9.0-0.0-1.8","null","<span style='color:GreenYellow; font-size: 70px;'>正确! </span>","null","","","","","","","","","","","","","","","","","","","","","","","feedback_test"
"","","","","","psychophysics","78","776108","0.0-9.0-0.0-0.9","591","","f","","","","","","","","","","","","","key","f","16.665999999999677","720","446","f","true","img/S_ambi40.png","好人","prac_word_first",""
"","","","","","html-keyboard-response","79","776413","0.0-9.0-0.0-1.9","null","<span style='color:GreenYellow; font-size: 70px;'>正确! </span>","null","","","","","","","","","","","","","","","","","","","","","","","feedback_test"
"","","","","","psychophysics","80","778345","0.0-9.0-0.0-0.10","775","","f","","","","","","","","","","","","","key","f","16.66600000000073","720","446","f","true","img/C_ambi40.png","坏人","prac_word_first",""
"","","","","","html-keyboard-response","81","778654","0.0-9.0-0.0-1.10","null","<span style='color:GreenYellow; font-size: 70px;'>正确! </span>","null","","","","","","","","","","","","","","","","","","","","","","","feedback_test"
"","","","","","psychophysics","82","780617","0.0-9.0-0.0-0.11","811","","j","","","","","","","","","","","","","key","j","16.666000000000448","720","446","j","true","img/S_ambi40.png","常人","prac_word_first",""
"","","","","","html-keyboard-response","83","780926","0.0-9.0-0.0-1.11","null","<span style='color:GreenYellow; font-size: 70px;'>正确! </span>","null","","","","","","","","","","","","","","","","","","","","","","","feedback_test"
"","","","","","psychophysics","84","783038","0.0-9.0-0.0-0.12","952","","f","","","","","","","","","","","","","key","f","16.665999999999748","720","446","f","true","img/C_ambi40.png","坏人","prac_word_first",""
"","","","","","html-keyboard-response","85","783344","0.0-9.0-0.0-1.12","null","<span style='color:GreenYellow; font-size: 70px;'>正确! </span>","null","","","","","","","","","","","","","","","","","","","","","","","feedback_test"
"","","","","","psychophysics","86","785246","0.0-9.0-0.0-0.13","743","","j","","","","","","","","","","","","","key","j","16.66599999999924","720","446","j","true","img/S_ambi40.png","坏人","prac_word_first",""
"","","","","","html-keyboard-response","87","785551","0.0-9.0-0.0-1.13","null","<span style='color:GreenYellow; font-size: 70px;'>正确! </span>","null","","","","","","","","","","","","","","","","","","","","","","","feedback_test"
"","","","","","psychophysics","88","787394","0.0-9.0-0.0-0.14","689","","f","","","","","","","","","","","","","key","f","16.666000000000086","720","446","f","true","img/S_ambi40.png","好人","prac_word_first",""
"","","","","","html-keyboard-response","89","787701","0.0-9.0-0.0-1.14","null","<span style='color:GreenYellow; font-size: 70px;'>正确! </span>","null","","","","","","","","","","","","","","","","","","","","","","","feedback_test"
"","","","","","psychophysics","90","789726","0.0-9.0-0.0-0.15","871","","f","","","","","","","","","","","","","key","f","16.670322314049077","720","446","f","true","img/S_ambi40.png","好人","prac_word_first",""
"","","","","","html-keyboard-response","91","790034","0.0-9.0-0.0-1.15","null","<span style='color:GreenYellow; font-size: 70px;'>正确! </span>","null","","","","","","","","","","","","","","","","","","","","","","","feedback_test"
"","","","","","psychophysics","92","791810","0.0-9.0-0.0-0.16","621","","j","","","","","","","","","","","","","key","j","16.666000000000185","720","446","j","true","img/S_ambi40.png","常人","prac_word_first",""
"","","","","","html-keyboard-response","93","792119","0.0-9.0-0.0-1.16","null","<span style='color:GreenYellow; font-size: 70px;'>正确! </span>","null","","","","","","","","","","","","","","","","","","","","","","","feedback_test"
"","","","","","psychophysics","94","794038","0.0-9.0-0.0-0.17","749","","j","","","","","","","","","","","","","key","j","16.665999999999993","720","446","j","true","img/C_ambi40.png","常人","prac_word_first",""
"","","","","","html-keyboard-response","95","794345","0.0-9.0-0.0-1.17","null","<span style='color:GreenYellow; font-size: 70px;'>正确! </span>","null","","","","","","","","","","","","","","","","","","","","","","","feedback_test"
"","","","","","psychophysics","96","796226","0.0-9.0-0.0-0.18","721","","f","","","","","","","","","","","","","key","f","16.665999999999517","720","446","f","true","img/T_ambi40.png","常人","prac_word_first",""
"","","","","","html-keyboard-response","97","796534","0.0-9.0-0.0-1.18","null","<span style='color:GreenYellow; font-size: 70px;'>正确! </span>","null","","","","","","","","","","","","","","","","","","","","","","","feedback_test"
"","","","","","psychophysics","98","798749","0.0-9.0-0.0-0.19","1060","","j","","","","","","","","","","","","","key","j","16.666000000000086","720","446","j","true","img/C_ambi40.png","好人","prac_word_first",""
"","","","","","html-keyboard-response","99","799052","0.0-9.0-0.0-1.19","null","<span style='color:GreenYellow; font-size: 70px;'>正确! </span>","null","","","","","","","","","","","","","","","","","","","","","","","feedback_test"
"","","","","","psychophysics","100","801030","0.0-9.0-0.0-0.20","825","","f","","","","","","","","","","","","","key","f","16.665999999999904","720","446","f","true","img/T_ambi40.png","常人","prac_word_first",""
"","","","","","html-keyboard-response","101","801335","0.0-9.0-0.0-1.20","null","<span style='color:GreenYellow; font-size: 70px;'>正确! </span>","null","","","","","","","","","","","","","","","","","","","","","","","feedback_test"
"","","","","","psychophysics","102","803377","0.0-9.0-0.0-0.21","888","","f","","","","","","","","","","","","","key","f","16.665999999999823","720","446","f","true","img/C_ambi40.png","坏人","prac_word_first",""
"","","","","","html-keyboard-response","103","803689","0.0-9.0-0.0-1.21","null","<span style='color:GreenYellow; font-size: 70px;'>正确! </span>","null","","","","","","","","","","","","","","","","","","","","","","","feedback_test"
"","","","","","psychophysics","104","805515","0.0-9.0-0.0-0.22","660","","j","","","","","","","","","","","","","key","j","16.666000000000672","720","446","j","true","img/T_ambi40.png","坏人","prac_word_first",""
"","","","","","html-keyboard-response","105","805825","0.0-9.0-0.0-1.22","null","<span style='color:GreenYellow; font-size: 70px;'>正确! </span>","null","","","","","","","","","","","","","","","","","","","","","","","feedback_test"
"","","","","","psychophysics","106","807845","0.0-9.0-0.0-0.23","860","","j","","","","","","","","","","","","","key","j","16.666000000000086","720","446","j","true","img/T_ambi40.png","好人","prac_word_first",""
"","","","","","html-keyboard-response","107","808153","0.0-9.0-0.0-1.23","null","<span style='color:GreenYellow; font-size: 70px;'>正确! </span>","null","","","","","","","","","","","","","","","","","","","","","","","feedback_test"
"","","","","","html-keyboard-response","108","810709","0.0-10.0","2552","<style>.context{color:white; font-size: 35px; line-height:40px}</style>                              <div><p class='context'>您正确回答了96% 的试次。</p><p class='context'>您的平均反应时为801毫秒。</p><p class='context'>恭喜您完成练习。按任意键进入<span style='color: yellow;'>图形和文字同时呈现条件</span>的练习。</p></div>"," ","","","","","","","","","","","","","","","","","","","","","","",""
"","","","","","psychophysics","109","812895","0.0-11.0-0.0-0.0","1173","","j","","","","","","","","","","","","","key","j","16.670346153846296","720","446","f","false","img/T_ambi40.png","常人","prac_simultaneous",""
"","","","","","html-keyboard-response","110","813199","0.0-11.0-0.0-1.0","null","<span style='color:red; font-size: 70px;'>错误! </span>","null","","","","","","","","","","","","","","","","","","","","","","","feedback_test"
"","","","","","psychophysics","111","815271","0.0-11.0-0.0-0.1","1067","","j","","","","","","","","","","","","","key","j","16.666000000000256","720","446","j","true","img/T_ambi40.png","坏人","prac_simultaneous",""
"","","","","","html-keyboard-response","112","815575","0.0-11.0-0.0-1.1","null","<span style='color:GreenYellow; font-size: 70px;'>正确! </span>","null","","","","","","","","","","","","","","","","","","","","","","","feedback_test"
"","","","","","psychophysics","113","817487","0.0-11.0-0.0-0.2","905","","f","","","","","","","","","","","","","key","f","16.665999999999517","720","446","f","true","img/S_ambi40.png","好人","prac_simultaneous",""
"","","","","","html-keyboard-response","114","817793","0.0-11.0-0.0-1.2","null","<span style='color:GreenYellow; font-size: 70px;'>正确! </span>","null","","","","","","","","","","","","","","","","","","","","","","","feedback_test"
"","","","","","psychophysics","115","820108","0.0-11.0-0.0-0.3","1308","","j","","","","","","","","","","","","","key","j","16.66599999999955","720","446","j","true","img/C_ambi40.png","好人","prac_simultaneous",""
"","","","","","html-keyboard-response","116","820412","0.0-11.0-0.0-1.3","null","<span style='color:GreenYellow; font-size: 70px;'>正确! </span>","null","","","","","","","","","","","","","","","","","","","","","","","feedback_test"
"","","","","","psychophysics","117","822387","0.0-11.0-0.0-0.4","967","","j","","","","","","","","","","","","","key","j","16.665999999999904","720","446","j","true","img/C_ambi40.png","常人","prac_simultaneous",""
"","","","","","html-keyboard-response","118","822697","0.0-11.0-0.0-1.4","null","<span style='color:GreenYellow; font-size: 70px;'>正确! </span>","null","","","","","","","","","","","","","","","","","","","","","","","feedback_test"
"","","","","","psychophysics","119","824835","0.0-11.0-0.0-0.5","1134","","j","","","","","","","","","","","","","key","j","16.665999999999503","720","446","j","true","img/S_ambi40.png","常人","prac_simultaneous",""
"","","","","","html-keyboard-response","120","825144","0.0-11.0-0.0-1.5","null","<span style='color:GreenYellow; font-size: 70px;'>正确! </span>","null","","","","","","","","","","","","","","","","","","","","","","","feedback_test"
"","","","","","psychophysics","121","827083","0.0-11.0-0.0-0.6","931","","f","","","","","","","","","","","","","key","f","16.665999999999716","720","446","j","false","img/T_ambi40.png","好人","prac_simultaneous",""
"","","","","","html-keyboard-response","122","827393","0.0-11.0-0.0-1.6","null","<span style='color:red; font-size: 70px;'>错误! </span>","null","","","","","","","","","","","","","","","","","","","","","","","feedback_test"
"","","","","","psychophysics","123","829385","0.0-11.0-0.0-0.7","986","","f","","","","","","","","","","","","","key","f","16.665999999999904","720","446","f","true","img/C_ambi40.png","坏人","prac_simultaneous",""
"","","","","","html-keyboard-response","124","829697","0.0-11.0-0.0-1.7","null","<span style='color:GreenYellow; font-size: 70px;'>正确! </span>","null","","","","","","","","","","","","","","","","","","","","","","","feedback_test"
"","","","","","psychophysics","125","831487","0.0-11.0-0.0-0.8","786","","f","","","","","","","","","","","","","key","f","16.67093396226476","720","446","f","true","img/C_ambi40.png","坏人","prac_simultaneous",""
"","","","","","html-keyboard-response","126","831792","0.0-11.0-0.0-1.8","null","<span style='color:GreenYellow; font-size: 70px;'>正确! </span>","null","","","","","","","","","","","","","","","","","","","","","","","feedback_test"
"","","","","","psychophysics","127","833812","0.0-11.0-0.0-0.9","1013","","f","","","","","","","","","","","","","key","f","16.66600000000035","720","446","f","true","img/T_ambi40.png","常人","prac_simultaneous",""
"","","","","","html-keyboard-response","128","834118","0.0-11.0-0.0-1.9","null","<span style='color:GreenYellow; font-size: 70px;'>正确! </span>","null","","","","","","","","","","","","","","","","","","","","","","","feedback_test"
"","","","","","psychophysics","129","835897","0.0-11.0-0.0-0.10","775","","f","","","","","","","","","","","","","key","f","16.666000000000185","720","446","f","true","img/S_ambi40.png","好人","prac_simultaneous",""
"","","","","","html-keyboard-response","130","836208","0.0-11.0-0.0-1.10","null","<span style='color:GreenYellow; font-size: 70px;'>正确! </span>","null","","","","","","","","","","","","","","","","","","","","","","","feedback_test"
"","","","","","psychophysics","131","837997","0.0-11.0-0.0-0.11","784","","j","","","","","","","","","","","","","key","j","16.666000000000185","720","446","j","true","img/S_ambi40.png","坏人","prac_simultaneous",""
"","","","","","html-keyboard-response","132","838304","0.0-11.0-0.0-1.11","null","<span style='color:GreenYellow; font-size: 70px;'>正确! </span>","null","","","","","","","","","","","","","","","","","","","","","","","feedback_test"
"","","","","","psychophysics","133","840181","0.0-11.0-0.0-0.12","872","","f","","","","","","","","","","","","","key","f","16.666000000000846","720","446","f","true","img/T_ambi40.png","常人","prac_simultaneous",""
"","","","","","html-keyboard-response","134","840486","0.0-11.0-0.0-1.12","null","<span style='color:GreenYellow; font-size: 70px;'>正确! </span>","null","","","","","","","","","","","","","","","","","","","","","","","feedback_test"
"","","","","","psychophysics","135","842477","0.0-11.0-0.0-0.13","989","","j","","","","","","","","","","","","","key","j","16.665999999999904","720","446","j","true","img/C_ambi40.png","好人","prac_simultaneous",""
"","","","","","html-keyboard-response","136","842785","0.0-11.0-0.0-1.13","null","<span style='color:GreenYellow; font-size: 70px;'>正确! </span>","null","","","","","","","","","","","","","","","","","","","","","","","feedback_test"
"","","","","","psychophysics","137","844688","0.0-11.0-0.0-0.14","900","","j","","","","","","","","","","","","","key","j","16.66600000000027","720","446","j","true","img/T_ambi40.png","坏人","prac_simultaneous",""
"","","","","","html-keyboard-response","138","844999","0.0-11.0-0.0-1.14","null","<span style='color:GreenYellow; font-size: 70px;'>正确! </span>","null","","","","","","","","","","","","","","","","","","","","","","","feedback_test"
"","","","","","psychophysics","139","847093","0.0-11.0-0.0-0.15","1089","","j","","","","","","","","","","","","","key","j","16.666","720","446","j","true","img/T_ambi40.png","好人","prac_simultaneous",""
"","","","","","html-keyboard-response","140","847400","0.0-11.0-0.0-1.15","null","<span style='color:GreenYellow; font-size: 70px;'>正确! </span>","null","","","","","","","","","","","","","","","","","","","","","","","feedback_test"
"","","","","","psychophysics","141","849213","0.0-11.0-0.0-0.16","809","","f","","","","","","","","","","","","","key","f","16.665999999999595","720","446","f","true","img/S_ambi40.png","好人","prac_simultaneous",""
"","","","","","html-keyboard-response","142","849518","0.0-11.0-0.0-1.16","null","<span style='color:GreenYellow; font-size: 70px;'>正确! </span>","null","","","","","","","","","","","","","","","","","","","","","","","feedback_test"
"","","","","","psychophysics","143","851268","0.0-11.0-0.0-0.17","747","","f","","","","","","","","","","","","","key","f","16.671087378641655","720","446","f","true","img/C_ambi40.png","坏人","prac_simultaneous",""
"","","","","","html-keyboard-response","144","851573","0.0-11.0-0.0-1.17","null","<span style='color:GreenYellow; font-size: 70px;'>正确! </span>","null","","","","","","","","","","","","","","","","","","","","","","","feedback_test"
"","","","","","psychophysics","145","853581","0.0-11.0-0.0-0.18","1000","","f","","","","","","","","","","","","","key","f","16.66599999999964","720","446","f","true","img/T_ambi40.png","常人","prac_simultaneous",""
"","","","","","html-keyboard-response","146","853885","0.0-11.0-0.0-1.18","null","<span style='color:GreenYellow; font-size: 70px;'>正确! </span>","null","","","","","","","","","","","","","","","","","","","","","","","feedback_test"
"","","","","","psychophysics","147","855909","0.0-11.0-0.0-0.19","1023","","j","","","","","","","","","","","","","key","j","16.66599999999938","720","446","j","true","img/C_ambi40.png","常人","prac_simultaneous",""
"","","","","","html-keyboard-response","148","856214","0.0-11.0-0.0-1.19","null","<span style='color:GreenYellow; font-size: 70px;'>正确! </span>","null","","","","","","","","","","","","","","","","","","","","","","","feedback_test"
"","","","","","psychophysics","149","858113","0.0-11.0-0.0-0.20","892","","j","","","","","","","","","","","","","key","j","16.66599999999924","720","446","j","true","img/S_ambi40.png","坏人","prac_simultaneous",""
"","","","","","html-keyboard-response","150","858421","0.0-11.0-0.0-1.20","null","<span style='color:GreenYellow; font-size: 70px;'>正确! </span>","null","","","","","","","","","","","","","","","","","","","","","","","feedback_test"
"","","","","","psychophysics","151","860110","0.0-11.0-0.0-0.21","679","","f","","","","","","","","","","","","","key","f","16.665999999999766","720","446","f","true","img/S_ambi40.png","好人","prac_simultaneous",""
"","","","","","html-keyboard-response","152","860413","0.0-11.0-0.0-1.21","null","<span style='color:GreenYellow; font-size: 70px;'>正确! </span>","null","","","","","","","","","","","","","","","","","","","","","","","feedback_test"
"","","","","","psychophysics","153","862212","0.0-11.0-0.0-0.22","793","","j","","","","","","","","","","","","","key","j","16.665999999999887","720","446","j","true","img/S_ambi40.png","常人","prac_simultaneous",""
"","","","","","html-keyboard-response","154","862519","0.0-11.0-0.0-1.22","null","<span style='color:GreenYellow; font-size: 70px;'>正确! </span>","null","","","","","","","","","","","","","","","","","","","","","","","feedback_test"
"","","","","","psychophysics","155","864369","0.0-11.0-0.0-0.23","848","","j","","","","","","","","","","","","","key","j","16.665999999999308","720","446","f","false","img/C_ambi40.png","坏人","prac_simultaneous",""
"","","","","","html-keyboard-response","156","864677","0.0-11.0-0.0-1.23","null","<span style='color:red; font-size: 70px;'>错误! </span>","null","","","","","","","","","","","","","","","","","","","","","","","feedback_test"
"","","","","","html-keyboard-response","157","868599","0.0-12.0","3918","<style>.context{color:white; font-size: 35px; line-height:40px}</style>                              <div><p class='context'>您正确回答了88% 的试次。</p><p class='context'>您的平均反应时为929毫秒。</p><p class='context'>恭喜您完成练习。按任意键进入正式实验。</p><p class='footer' style='font-size: 35px; line-height:40px;'>请在进入正式实验实验之前将您的<span style='color: lightgreen;'>食指</span>放在电脑键盘的相应键位上进行按键。</p>"," ","","","","","","","","","","","","","","","","","","","","","","",""
"","","","","","html-keyboard-response","158","872270","0.0-13.0-2.0-0.0","3666","
      <p>请您将手指放在按键上，准备进入呈现顺序为<span style='color: yellow;'>图形和文字同时呈现条件</span>的正式匹配任务</p>
      <p> <div style = ""color: green""><按任意键进入下一阶段的匹配任务></div></p>
      "," ","","","","","","","","","","","","","","","","","","","","","","",""
"","","","","","psychophysics","159","874342","0.0-13.0-2.0-1.0-0.0-0.0","1071","","j","","","","","","","","","","","","","key","j","16.670569105690905","720","446","j","true","img/S_ambi40.png","坏人","simultaneous",""
"","","","","","html-keyboard-response","160","874645","0.0-13.0-2.0-1.0-0.0-1.0","null","<span style='color:GreenYellow; font-size: 70px;'>正确! </span>","null","","","","","","","","","","","","","","","","","","","","","","","feedback_test"
"","","","","","psychophysics","161","876394","0.0-13.0-2.0-1.0-0.0-0.1","742","","f","","","","","","","","","","","","","key","f","16.665999999999677","720","446","f","true","img/S_ambi40.png","好人","simultaneous",""
"","","","","","html-keyboard-response","162","876705","0.0-13.0-2.0-1.0-0.0-1.1","null","<span style='color:GreenYellow; font-size: 70px;'>正确! </span>","null","","","","","","","","","","","","","","","","","","","","","","","feedback_test"
"","","","","","psychophysics","163","878577","0.0-13.0-2.0-1.0-0.0-0.2","870","","f","","","","","","","","","","","","","key","f","16.665999999999798","720","446","f","true","img/T_ambi40.png","常人","simultaneous",""
"","","","","","html-keyboard-response","164","878888","0.0-13.0-2.0-1.0-0.0-1.2","null","<span style='color:GreenYellow; font-size: 70px;'>正确! </span>","null","","","","","","","","","","","","","","","","","","","","","","","feedback_test"
"","","","","","psychophysics","165","880759","0.0-13.0-2.0-1.0-0.0-0.3","864","","f","","","","","","","","","","","","","key","f","16.665999999999798","720","446","f","true","img/C_ambi40.png","坏人","simultaneous",""
"","","","","","html-keyboard-response","166","881065","0.0-13.0-2.0-1.0-0.0-1.3","null","<span style='color:GreenYellow; font-size: 70px;'>正确! </span>","null","","","","","","","","","","","","","","","","","","","","","","","feedback_test"
"","","","","","psychophysics","167","882868","0.0-13.0-2.0-1.0-0.0-0.4","800","","j","","","","","","","","","","","","","key","j","16.665999999999887","720","446","j","true","img/C_ambi40.png","好人","simultaneous",""
"","","","","","html-keyboard-response","168","883173","0.0-13.0-2.0-1.0-0.0-1.4","null","<span style='color:GreenYellow; font-size: 70px;'>正确! </span>","null","","","","","","","","","","","","","","","","","","","","","","","feedback_test"
"","","","","","psychophysics","169","885200","0.0-13.0-2.0-1.0-0.0-0.5","1020","","j","","","","","","","","","","","","","key","j","16.66600000000035","720","446","j","true","img/T_ambi40.png","好人","simultaneous",""
"","","","","","html-keyboard-response","170","885513","0.0-13.0-2.0-1.0-0.0-1.5","null","<span style='color:GreenYellow; font-size: 70px;'>正确! </span>","null","","","","","","","","","","","","","","","","","","","","","","","feedback_test"
"","","","","","psychophysics","171","887609","0.0-13.0-2.0-1.0-0.0-0.6","1089","","j","","","","","","","","","","","","","key","j","16.666","720","446","j","true","img/T_ambi40.png","坏人","simultaneous",""
"","","","","","html-keyboard-response","172","887919","0.0-13.0-2.0-1.0-0.0-1.6","null","<span style='color:GreenYellow; font-size: 70px;'>正确! </span>","null","","","","","","","","","","","","","","","","","","","","","","","feedback_test"
"","","","","","psychophysics","173","889680","0.0-13.0-2.0-1.0-0.0-0.7","760","","f","","","","","","","","","","","","","key","f","16.665999999999677","720","446","f","true","img/S_ambi40.png","好人","simultaneous",""
"","","","","","html-keyboard-response","174","889992","0.0-13.0-2.0-1.0-0.0-1.7","null","<span style='color:GreenYellow; font-size: 70px;'>正确! </span>","null","","","","","","","","","","","","","","","","","","","","","","","feedback_test"
"","","","","","psychophysics","175","892061","0.0-13.0-2.0-1.0-0.0-0.8","1065","","j","","","","","","","","","","","","","key","j","16.665999999999567","720","446","j","true","img/C_ambi40.png","常人","simultaneous",""
"","","","","","html-keyboard-response","176","892367","0.0-13.0-2.0-1.0-0.0-1.8","null","<span style='color:GreenYellow; font-size: 70px;'>正确! </span>","null","","","","","","","","","","","","","","","","","","","","","","","feedback_test"
"","","","","","psychophysics","177","894125","0.0-13.0-2.0-1.0-0.0-0.9","755","","f","","","","","","","","","","","","","key","f","16.671009523809577","720","446","f","true","img/C_ambi40.png","坏人","simultaneous",""
"","","","","","html-keyboard-response","178","894431","0.0-13.0-2.0-1.0-0.0-1.9","null","<span style='color:GreenYellow; font-size: 70px;'>正确! </span>","null","","","","","","","","","","","","","","","","","","","","","","","feedback_test"
"","","","","","psychophysics","179","896542","0.0-13.0-2.0-1.0-0.0-0.10","1106","","j","","","","","","","","","","","","","key","j","16.666000000000672","720","446","j","true","img/S_ambi40.png","常人","simultaneous",""
"","","","","","html-keyboard-response","180","896847","0.0-13.0-2.0-1.0-0.0-1.10","null","<span style='color:GreenYellow; font-size: 70px;'>正确! </span>","null","","","","","","","","","","","","","","","","","","","","","","","feedback_test"
"","","","","","psychophysics","181","898923","0.0-13.0-2.0-1.0-0.0-0.11","1071","","f","","","","","","","","","","","","","key","f","16.666000000000256","720","446","f","true","img/T_ambi40.png","常人","simultaneous",""
"","","","","","html-keyboard-response","182","899228","0.0-13.0-2.0-1.0-0.0-1.11","null","<span style='color:GreenYellow; font-size: 70px;'>正确! </span>","null","","","","","","","","","","","","","","","","","","","","","","","feedback_test"
"","","","","","psychophysics","183","901025","0.0-13.0-2.0-1.0-0.0-0.12","788","","j","","","","","","","","","","","","","key","j","16.665999999999887","720","446","j","true","img/S_ambi40.png","坏人","simultaneous",""
"","","","","","html-keyboard-response","184","901334","0.0-13.0-2.0-1.0-0.0-1.12","null","<span style='color:GreenYellow; font-size: 70px;'>正确! </span>","null","","","","","","","","","","","","","","","","","","","","","","","feedback_test"
"","","","","","psychophysics","185","903230","0.0-13.0-2.0-1.0-0.0-0.13","893","","f","","","","","","","","","","","","","key","f","16.66600000000027","720","446","f","true","img/C_ambi40.png","坏人","simultaneous",""
"","","","","","html-keyboard-response","186","903536","0.0-13.0-2.0-1.0-0.0-1.13","null","<span style='color:GreenYellow; font-size: 70px;'>正确! </span>","null","","","","","","","","","","","","","","","","","","","","","","","feedback_test"
"","","","","","psychophysics","187","905403","0.0-13.0-2.0-1.0-0.0-0.14","865","","f","","","","","","","","","","","","","key","f","16.665999999999798","720","446","f","true","img/C_ambi40.png","坏人","simultaneous",""
"","","","","","html-keyboard-response","188","905709","0.0-13.0-2.0-1.0-0.0-1.14","null","<span style='color:GreenYellow; font-size: 70px;'>正确! </span>","null","","","","","","","","","","","","","","","","","","","","","","","feedback_test"
"","","","","","psychophysics","189","907777","0.0-13.0-2.0-1.0-0.0-0.15","1058","","j","","","","","","","","","","","","","key","j","16.665999999999567","720","446","j","true","img/T_ambi40.png","坏人","simultaneous",""
"","","","","","html-keyboard-response","190","908089","0.0-13.0-2.0-1.0-0.0-1.15","null","<span style='color:GreenYellow; font-size: 70px;'>正确! </span>","null","","","","","","","","","","","","","","","","","","","","","","","feedback_test"
"","","","","","psychophysics","191","909918","0.0-13.0-2.0-1.0-0.0-0.16","823","","f","","","","","","","","","","","","","key","f","16.666000000000672","720","446","f","true","img/S_ambi40.png","好人","simultaneous",""
"","","","","","html-keyboard-response","192","910221","0.0-13.0-2.0-1.0-0.0-1.16","null","<span style='color:GreenYellow; font-size: 70px;'>正确! </span>","null","","","","","","","","","","","","","","","","","","","","","","","feedback_test"
"","","","","","psychophysics","193","912373","0.0-13.0-2.0-1.0-0.0-0.17","1145","","f","","","","","","","","","","","","","key","f","16.666000000000167","720","446","f","true","img/S_ambi40.png","好人","simultaneous",""
"","","","","","html-keyboard-response","194","912681","0.0-13.0-2.0-1.0-0.0-1.17","null","<span style='color:GreenYellow; font-size: 70px;'>正确! </span>","null","","","","","","","","","","","","","","","","","","","","","","","feedback_test"
"","","","","","psychophysics","195","914680","0.0-13.0-2.0-1.0-0.0-0.18","996","","j","","","","","","","","","","","","","key","j","16.66600000000062","720","446","j","true","img/C_ambi40.png","好人","simultaneous",""
"","","","","","html-keyboard-response","196","914991","0.0-13.0-2.0-1.0-0.0-1.18","null","<span style='color:GreenYellow; font-size: 70px;'>正确! </span>","null","","","","","","","","","","","","","","","","","","","","","","","feedback_test"
"","","","","","psychophysics","197","917012","0.0-13.0-2.0-1.0-0.0-0.19","1013","","f","","","","","","","","","","","","","key","f","16.66600000000035","720","446","f","true","img/T_ambi40.png","常人","simultaneous",""
"","","","","","html-keyboard-response","198","917317","0.0-13.0-2.0-1.0-0.0-1.19","null","<span style='color:GreenYellow; font-size: 70px;'>正确! </span>","null","","","","","","","","","","","","","","","","","","","","","","","feedback_test"
"","","","","","psychophysics","199","919206","0.0-13.0-2.0-1.0-0.0-0.20","888","","j","","","","","","","","","","","","","key","j","16.66600000000027","720","446","j","true","img/C_ambi40.png","常人","simultaneous",""
"","","","","","html-keyboard-response","200","919510","0.0-13.0-2.0-1.0-0.0-1.20","null","<span style='color:GreenYellow; font-size: 70px;'>正确! </span>","null","","","","","","","","","","","","","","","","","","","","","","","feedback_test"
"","","","","","psychophysics","201","921460","0.0-13.0-2.0-1.0-0.0-0.21","941","","f","","","","","","","","","","","","","key","f","16.666000000000448","720","446","f","true","img/T_ambi40.png","常人","simultaneous",""
"","","","","","html-keyboard-response","202","921826","0.0-13.0-2.0-1.0-0.0-1.21","null","<span style='color:GreenYellow; font-size: 70px;'>正确! </span>","null","","","","","","","","","","","","","","","","","","","","","","","feedback_test"
"","","","","","psychophysics","203","924059","0.0-13.0-2.0-1.0-0.0-0.22","1227","","j","","","","","","","","","","","","","key","j","16.665999999999848","720","446","j","true","img/S_ambi40.png","常人","simultaneous",""
"","","","","","html-keyboard-response","204","924366","0.0-13.0-2.0-1.0-0.0-1.22","null","<span style='color:GreenYellow; font-size: 70px;'>正确! </span>","null","","","","","","","","","","","","","","","","","","","","","","","feedback_test"
"","","","","","psychophysics","205","926341","0.0-13.0-2.0-1.0-0.0-0.23","967","","j","","","","","","","","","","","","","key","j","16.666000000000174","720","446","j","true","img/T_ambi40.png","好人","simultaneous",""
"","","","","","html-keyboard-response","206","926651","0.0-13.0-2.0-1.0-0.0-1.23","null","<span style='color:GreenYellow; font-size: 70px;'>正确! </span>","null","","","","","","","","","","","","","","","","","","","","","","","feedback_test"
"","","","","","psychophysics","207","928508","0.0-13.0-2.0-1.0-0.0-0.24","846","","j","","","","","","","","","","","","","key","j","16.666000000000086","720","446","j","true","img/T_ambi40.png","坏人","simultaneous",""
"","","","","","html-keyboard-response","208","928814","0.0-13.0-2.0-1.0-0.0-1.24","null","<span style='color:GreenYellow; font-size: 70px;'>正确! </span>","null","","","","","","","","","","","","","","","","","","","","","","","feedback_test"
"","","","","","psychophysics","209","930628","0.0-13.0-2.0-1.0-0.0-0.25","813","","f","","","","","","","","","","","","","key","f","16.665999999999887","720","446","f","true","img/T_ambi40.png","常人","simultaneous",""
"","","","","","html-keyboard-response","210","930935","0.0-13.0-2.0-1.0-0.0-1.25","null","<span style='color:GreenYellow; font-size: 70px;'>正确! </span>","null","","","","","","","","","","","","","","","","","","","","","","","feedback_test"
"","","","","","psychophysics","211","932731","0.0-13.0-2.0-1.0-0.0-0.26","791","","j","","","","","","","","","","","","","key","j","16.670887850466507","720","446","j","true","img/C_ambi40.png","常人","simultaneous",""
"","","","","","html-keyboard-response","212","933035","0.0-13.0-2.0-1.0-0.0-1.26","null","<span style='color:GreenYellow; font-size: 70px;'>正确! </span>","null","","","","","","","","","","","","","","","","","","","","","","","feedback_test"
"","","","","","psychophysics","213","934800","0.0-13.0-2.0-1.0-0.0-0.27","756","","f","","","","","","","","","","","","","key","f","16.666000000000487","720","446","f","true","img/S_ambi40.png","好人","simultaneous",""
"","","","","","html-keyboard-response","214","935106","0.0-13.0-2.0-1.0-0.0-1.27","null","<span style='color:GreenYellow; font-size: 70px;'>正确! </span>","null","","","","","","","","","","","","","","","","","","","","","","","feedback_test"
"","","","","","psychophysics","215","937207","0.0-13.0-2.0-1.0-0.0-0.28","1091","","j","","","","","","","","","","","","","key","j","16.666","720","446","j","true","img/T_ambi40.png","好人","simultaneous",""
"","","","","","html-keyboard-response","216","937514","0.0-13.0-2.0-1.0-0.0-1.28","null","<span style='color:GreenYellow; font-size: 70px;'>正确! </span>","null","","","","","","","","","","","","","","","","","","","","","","","feedback_test"
"","","","","","psychophysics","217","939326","0.0-13.0-2.0-1.0-0.0-0.29","811","","j","","","","","","","","","","","","","key","j","16.665999999999887","720","446","j","true","img/S_ambi40.png","坏人","simultaneous",""
"","","","","","html-keyboard-response","218","939637","0.0-13.0-2.0-1.0-0.0-1.29","null","<span style='color:GreenYellow; font-size: 70px;'>正确! </span>","null","","","","","","","","","","","","","","","","","","","","","","","feedback_test"
"","","","","","psychophysics","219","941518","0.0-13.0-2.0-1.0-0.0-0.30","875","","f","","","","","","","","","","","","","key","f","16.666000000000558","720","446","f","true","img/C_ambi40.png","坏人","simultaneous",""
"","","","","","html-keyboard-response","220","941827","0.0-13.0-2.0-1.0-0.0-1.30","null","<span style='color:GreenYellow; font-size: 70px;'>正确! </span>","null","","","","","","","","","","","","","","","","","","","","","","","feedback_test"
"","","","","","psychophysics","221","943595","0.0-13.0-2.0-1.0-0.0-0.31","763","","j","","","","","","","","","","","","","key","j","16.66599999999938","720","446","j","true","img/C_ambi40.png","好人","simultaneous",""
"","","","","","html-keyboard-response","222","943898","0.0-13.0-2.0-1.0-0.0-1.31","null","<span style='color:GreenYellow; font-size: 70px;'>正确! </span>","null","","","","","","","","","","","","","","","","","","","","","","","feedback_test"
"","","","","","psychophysics","223","945681","0.0-13.0-2.0-1.0-0.0-0.32","772","","f","","","","","","","","","","","","","key","f","16.666000000000185","720","446","f","true","img/C_ambi40.png","坏人","simultaneous",""
"","","","","","html-keyboard-response","224","945987","0.0-13.0-2.0-1.0-0.0-1.32","null","<span style='color:GreenYellow; font-size: 70px;'>正确! </span>","null","","","","","","","","","","","","","","","","","","","","","","","feedback_test"
"","","","","","psychophysics","225","947962","0.0-13.0-2.0-1.0-0.0-0.33","964","","f","","","","","","","","","","","","","key","f","16.666000000000174","720","446","f","true","img/T_ambi40.png","常人","simultaneous",""
"","","","","","html-keyboard-response","226","948266","0.0-13.0-2.0-1.0-0.0-1.33","null","<span style='color:GreenYellow; font-size: 70px;'>正确! </span>","null","","","","","","","","","","","","","","","","","","","","","","","feedback_test"
"","","","","","psychophysics","227","949978","0.0-13.0-2.0-1.0-0.0-0.34","711","","f","","","","","","","","","","","","","key","f","16.665999999999457","720","446","f","true","img/S_ambi40.png","好人","simultaneous",""
"","","","","","html-keyboard-response","228","950286","0.0-13.0-2.0-1.0-0.0-1.34","null","<span style='color:GreenYellow; font-size: 70px;'>正确! </span>","null","","","","","","","","","","","","","","","","","","","","","","","feedback_test"
"","","","","","psychophysics","229","952407","0.0-13.0-2.0-1.0-0.0-0.35","1116","","f","","","","","","","","","","","","","key","f","16.665999999999748","720","446","j","false","img/S_ambi40.png","常人","simultaneous",""
"","","","","","html-keyboard-response","230","952719","0.0-13.0-2.0-1.0-0.0-1.35","null","<span style='color:red; font-size: 70px;'>错误! </span>","null","","","","","","","","","","","","","","","","","","","","","","","feedback_test"
"","","","","","psychophysics","231","954486","0.0-13.0-2.0-1.0-0.0-0.36","761","","f","","","","","","","","","","","","","key","f","16.67105714285724","720","446","f","true","img/S_ambi40.png","好人","simultaneous",""
"","","","","","html-keyboard-response","232","954798","0.0-13.0-2.0-1.0-0.0-1.36","null","<span style='color:GreenYellow; font-size: 70px;'>正确! </span>","null","","","","","","","","","","","","","","","","","","","","","","","feedback_test"
"","","","","","psychophysics","233","956549","0.0-13.0-2.0-1.0-0.0-0.37","743","","f","","","","","","","","","","","","","key","f","16.665999999999677","720","446","f","true","img/C_ambi40.png","坏人","simultaneous",""
"","","","","","html-keyboard-response","234","956860","0.0-13.0-2.0-1.0-0.0-1.37","null","<span style='color:GreenYellow; font-size: 70px;'>正确! </span>","null","","","","","","","","","","","","","","","","","","","","","","","feedback_test"
"","","","","","psychophysics","235","958764","0.0-13.0-2.0-1.0-0.0-0.38","900","","j","","","","","","","","","","","","","key","j","16.665999999999993","720","446","j","true","img/T_ambi40.png","好人","simultaneous",""
"","","","","","html-keyboard-response","236","959071","0.0-13.0-2.0-1.0-0.0-1.38","null","<span style='color:GreenYellow; font-size: 70px;'>正确! </span>","null","","","","","","","","","","","","","","","","","","","","","","","feedback_test"
"","","","","","psychophysics","237","961104","0.0-13.0-2.0-1.0-0.0-0.39","1027","","f","","","","","","","","","","","","","key","f","16.666000000000086","720","446","f","true","img/T_ambi40.png","常人","simultaneous",""
"","","","","","html-keyboard-response","238","961412","0.0-13.0-2.0-1.0-0.0-1.39","null","<span style='color:GreenYellow; font-size: 70px;'>正确! </span>","null","","","","","","","","","","","","","","","","","","","","","","","feedback_test"
"","","","","","psychophysics","239","963273","0.0-13.0-2.0-1.0-0.0-0.40","858","","j","","","","","","","","","","","","","key","j","16.666000000000086","720","446","j","true","img/S_ambi40.png","坏人","simultaneous",""
"","","","","","html-keyboard-response","240","963579","0.0-13.0-2.0-1.0-0.0-1.40","null","<span style='color:GreenYellow; font-size: 70px;'>正确! </span>","null","","","","","","","","","","","","","","","","","","","","","","","feedback_test"
"","","","","","psychophysics","241","965344","0.0-13.0-2.0-1.0-0.0-0.41","762","","f","","","","","","","","","","","","","key","f","16.666000000000796","720","446","f","true","img/S_ambi40.png","好人","simultaneous",""
"","","","","","html-keyboard-response","242","965653","0.0-13.0-2.0-1.0-0.0-1.41","null","<span style='color:GreenYellow; font-size: 70px;'>正确! </span>","null","","","","","","","","","","","","","","","","","","","","","","","feedback_test"
"","","","","","psychophysics","243","967586","0.0-13.0-2.0-1.0-0.0-0.42","923","","j","","","","","","","","","","","","","key","j","16.665999999999716","720","446","j","true","img/T_ambi40.png","坏人","simultaneous",""
"","","","","","html-keyboard-response","244","967890","0.0-13.0-2.0-1.0-0.0-1.42","null","<span style='color:GreenYellow; font-size: 70px;'>正确! </span>","null","","","","","","","","","","","","","","","","","","","","","","","feedback_test"
"","","","","","psychophysics","245","969828","0.0-13.0-2.0-1.0-0.0-0.43","937","","j","","","","","","","","","","","","","key","j","16.665999999999716","720","446","j","true","img/C_ambi40.png","好人","simultaneous",""
"","","","","","html-keyboard-response","246","970134","0.0-13.0-2.0-1.0-0.0-1.43","null","<span style='color:GreenYellow; font-size: 70px;'>正确! </span>","null","","","","","","","","","","","","","","","","","","","","","","","feedback_test"
"","","","","","psychophysics","247","972020","0.0-13.0-2.0-1.0-0.0-0.44","879","","f","","","","","","","","","","","","","key","f","16.666000000000558","720","446","f","true","img/T_ambi40.png","常人","simultaneous",""
"","","","","","html-keyboard-response","248","972322","0.0-13.0-2.0-1.0-0.0-1.44","null","<span style='color:GreenYellow; font-size: 70px;'>正确! </span>","null","","","","","","","","","","","","","","","","","","","","","","","feedback_test"
"","","","","","psychophysics","249","974179","0.0-13.0-2.0-1.0-0.0-0.45","848","","j","","","","","","","","","","","","","key","j","16.670754545453978","720","446","j","true","img/S_ambi40.png","常人","simultaneous",""
"","","","","","html-keyboard-response","250","974484","0.0-13.0-2.0-1.0-0.0-1.45","null","<span style='color:GreenYellow; font-size: 70px;'>正确! </span>","null","","","","","","","","","","","","","","","","","","","","","","","feedback_test"
"","","","","","psychophysics","251","976307","0.0-13.0-2.0-1.0-0.0-0.46","816","","f","","","","","","","","","","","","","key","f","16.665999999999595","720","446","f","true","img/C_ambi40.png","坏人","simultaneous",""
"","","","","","html-keyboard-response","252","976610","0.0-13.0-2.0-1.0-0.0-1.46","null","<span style='color:GreenYellow; font-size: 70px;'>正确! </span>","null","","","","","","","","","","","","","","","","","","","","","","","feedback_test"
"","","","","","psychophysics","253","978572","0.0-13.0-2.0-1.0-0.0-0.47","958","","j","","","","","","","","","","","","","key","j","16.666000000000174","720","446","j","true","img/C_ambi40.png","常人","simultaneous",""
"","","","","","html-keyboard-response","254","978875","0.0-13.0-2.0-1.0-0.0-1.47","null","<span style='color:GreenYellow; font-size: 70px;'>正确! </span>","null","","","","","","","","","","","","","","","","","","","","","","","feedback_test"
"","","","","","psychophysics","255","980810","0.0-13.0-2.0-1.0-0.0-0.48","928","","j","","","","","","","","","","","","","key","j","16.66600000000073","720","446","j","true","img/T_ambi40.png","坏人","simultaneous",""
"","","","","","html-keyboard-response","256","981127","0.0-13.0-2.0-1.0-0.0-1.48","null","<span style='color:GreenYellow; font-size: 70px;'>正确! </span>","null","","","","","","","","","","","","","","","","","","","","","","","feedback_test"
"","","","","","psychophysics","257","983035","0.0-13.0-2.0-1.0-0.0-0.49","904","","j","","","","","","","","","","","","","key","j","16.665999999999993","720","446","j","true","img/C_ambi40.png","好人","simultaneous",""
"","","","","","html-keyboard-response","258","983339","0.0-13.0-2.0-1.0-0.0-1.49","null","<span style='color:GreenYellow; font-size: 70px;'>正确! </span>","null","","","","","","","","","","","","","","","","","","","","","","","feedback_test"
"","","","","","psychophysics","259","985184","0.0-13.0-2.0-1.0-0.0-0.50","838","","f","","","","","","","","","","","","","key","f","16.666000000000086","720","446","f","true","img/T_ambi40.png","常人","simultaneous",""
"","","","","","html-keyboard-response","260","985490","0.0-13.0-2.0-1.0-0.0-1.50","null","<span style='color:GreenYellow; font-size: 70px;'>正确! </span>","null","","","","","","","","","","","","","","","","","","","","","","","feedback_test"
"","","","","","psychophysics","261","987366","0.0-13.0-2.0-1.0-0.0-0.51","869","","j","","","","","","","","","","","","","key","j","16.666000000000558","720","446","j","true","img/C_ambi40.png","常人","simultaneous",""
"","","","","","html-keyboard-response","262","987675","0.0-13.0-2.0-1.0-0.0-1.51","null","<span style='color:GreenYellow; font-size: 70px;'>正确! </span>","null","","","","","","","","","","","","","","","","","","","","","","","feedback_test"
"","","","","","psychophysics","263","989526","0.0-13.0-2.0-1.0-0.0-0.52","845","","f","","","","","","","","","","","","","key","f","16.666000000000086","720","446","f","true","img/T_ambi40.png","常人","simultaneous",""
"","","","","","html-keyboard-response","264","989836","0.0-13.0-2.0-1.0-0.0-1.52","null","<span style='color:GreenYellow; font-size: 70px;'>正确! </span>","null","","","","","","","","","","","","","","","","","","","","","","","feedback_test"
"","","","","","psychophysics","265","991810","0.0-13.0-2.0-1.0-0.0-0.53","962","","j","","","","","","","","","","","","","key","j","16.666000000000174","720","446","j","true","img/S_ambi40.png","常人","simultaneous",""
"","","","","","html-keyboard-response","266","992114","0.0-13.0-2.0-1.0-0.0-1.53","null","<span style='color:GreenYellow; font-size: 70px;'>正确! </span>","null","","","","","","","","","","","","","","","","","","","","","","","feedback_test"
"","","","","","psychophysics","267","994004","0.0-13.0-2.0-1.0-0.0-0.54","886","","f","","","","","","","","","","","","","key","f","16.670678571427874","720","446","f","true","img/S_ambi40.png","好人","simultaneous",""
"","","","","","html-keyboard-response","268","994307","0.0-13.0-2.0-1.0-0.0-1.54","null","<span style='color:GreenYellow; font-size: 70px;'>正确! </span>","null","","","","","","","","","","","","","","","","","","","","","","","feedback_test"
"","","","","","psychophysics","269","996264","0.0-13.0-2.0-1.0-0.0-0.55","950","","f","","","","","","","","","","","","","key","f","16.666000000000174","720","446","f","true","img/S_ambi40.png","好人","simultaneous",""
"","","","","","html-keyboard-response","270","996570","0.0-13.0-2.0-1.0-0.0-1.55","null","<span style='color:GreenYellow; font-size: 70px;'>正确! </span>","null","","","","","","","","","","","","","","","","","","","","","","","feedback_test"
"","","","","","psychophysics","271","998456","0.0-13.0-2.0-1.0-0.0-0.56","875","","f","","","","","","","","","","","","","key","f","16.666000000000558","720","446","f","true","img/C_ambi40.png","坏人","simultaneous",""
"","","","","","html-keyboard-response","272","998763","0.0-13.0-2.0-1.0-0.0-1.56","null","<span style='color:GreenYellow; font-size: 70px;'>正确! </span>","null","","","","","","","","","","","","","","","","","","","","","","","feedback_test"
"","","","","","psychophysics","273","1000745","0.0-13.0-2.0-1.0-0.0-0.57","981","","f","","","","","","","","","","","","","key","f","16.666000000000174","720","446","f","true","img/C_ambi40.png","坏人","simultaneous",""
"","","","","","html-keyboard-response","274","1001050","0.0-13.0-2.0-1.0-0.0-1.57","null","<span style='color:GreenYellow; font-size: 70px;'>正确! </span>","null","","","","","","","","","","","","","","","","","","","","","","","feedback_test"
"","","","","","psychophysics","275","1003013","0.0-13.0-2.0-1.0-0.0-0.58","954","","j","","","","","","","","","","","","","key","j","16.66599999999918","720","446","j","true","img/S_ambi40.png","坏人","simultaneous",""
"","","","","","html-keyboard-response","276","1003317","0.0-13.0-2.0-1.0-0.0-1.58","null","<span style='color:GreenYellow; font-size: 70px;'>正确! </span>","null","","","","","","","","","","","","","","","","","","","","","","","feedback_test"
"","","","","","psychophysics","277","1005372","0.0-13.0-2.0-1.0-0.0-0.59","1048","","j","","","","","","","","","","","","","key","j","16.665999999999823","720","446","j","true","img/T_ambi40.png","好人","simultaneous",""
"","","","","","html-keyboard-response","278","1005676","0.0-13.0-2.0-1.0-0.0-1.59","null","<span style='color:GreenYellow; font-size: 70px;'>正确! </span>","null","","","","","","","","","","","","","","","","","","","","","","","feedback_test"
"","","","","","html-keyboard-response","279","1008490","0.0-13.0-2.0-1.0-1.0","2811","<style>.context{color:white; font-size: 35px; line-height:40px}</style>                              <div><p class='context'>您正确回答了98% 的试次。</p><p class='context'>您的平均反应时为906毫秒。</p><p class='context'>请按任意键进入休息</p></div>"," ","","","","","","","","","","","","","","","","","","","","","","",""
"","","","","","html-button-response","280","1014278","0.0-13.0-2.0-1.0-2.0","5785","
                      <p>您当前还剩余3组实验</p>
                      <p>现在是休息时间，当您结束休息后，您可以点击 结束休息 按钮 继续</p>
                      <p>建议休息时间还剩余<span id=""iii"">60</span>秒</p>","0","","","","","","","","","","","","","","","","","","","","","","",""
"","","","","","psychophysics","281","1016196","0.0-13.0-2.0-1.0-0.1-0.60","915","","j","","","","","","","","","","","","","key","j","16.66600000000027","720","446","j","true","img/T_ambi40.png","坏人","simultaneous",""
"","","","","","html-keyboard-response","282","1016503","0.0-13.0-2.0-1.0-0.1-1.60","null","<span style='color:GreenYellow; font-size: 70px;'>正确! </span>","null","","","","","","","","","","","","","","","","","","","","","","","feedback_test"
"","","","","","psychophysics","283","1018287","0.0-13.0-2.0-1.0-0.1-0.61","776","","f","","","","","","","","","","","","","key","f","16.665999999999087","720","446","f","true","img/S_ambi40.png","好人","simultaneous",""
"","","","","","html-keyboard-response","284","1018594","0.0-13.0-2.0-1.0-0.1-1.61","null","<span style='color:GreenYellow; font-size: 70px;'>正确! </span>","null","","","","","","","","","","","","","","","","","","","","","","","feedback_test"
"","","","","","psychophysics","285","1020405","0.0-13.0-2.0-1.0-0.1-0.62","807","","j","","","","","","","","","","","","","key","j","16.665999999999595","720","446","j","true","img/S_ambi40.png","坏人","simultaneous",""
"","","","","","html-keyboard-response","286","1020707","0.0-13.0-2.0-1.0-0.1-1.62","null","<span style='color:GreenYellow; font-size: 70px;'>正确! </span>","null","","","","","","","","","","","","","","","","","","","","","","","feedback_test"
"","","","","","psychophysics","287","1022501","0.0-13.0-2.0-1.0-0.1-0.63","786","","f","","","","","","","","","","","","","key","f","16.665999999999887","720","446","f","true","img/C_ambi40.png","坏人","simultaneous",""
"","","","","","html-keyboard-response","288","1022807","0.0-13.0-2.0-1.0-0.1-1.63","null","<span style='color:GreenYellow; font-size: 70px;'>正确! </span>","null","","","","","","","","","","","","","","","","","","","","","","","feedback_test"
"","","","","","psychophysics","289","1024620","0.0-13.0-2.0-1.0-0.1-0.64","809","","f","","","","","","","","","","","","","key","f","16.666000000000672","720","446","f","true","img/T_ambi40.png","常人","simultaneous",""
"","","","","","html-keyboard-response","290","1024923","0.0-13.0-2.0-1.0-0.1-1.64","null","<span style='color:GreenYellow; font-size: 70px;'>正确! </span>","null","","","","","","","","","","","","","","","","","","","","","","","feedback_test"
"","","","","","psychophysics","291","1026830","0.0-13.0-2.0-1.0-0.1-0.65","900","","f","","","","","","","","","","","","","key","f","16.665999999999993","720","446","f","true","img/S_ambi40.png","好人","simultaneous",""
"","","","","","html-keyboard-response","292","1027142","0.0-13.0-2.0-1.0-0.1-1.65","null","<span style='color:GreenYellow; font-size: 70px;'>正确! </span>","null","","","","","","","","","","","","","","","","","","","","","","","feedback_test"
"","","","","","psychophysics","293","1029027","0.0-13.0-2.0-1.0-0.1-0.66","880","","j","","","","","","","","","","","","","key","j","16.666000000000558","720","446","j","true","img/C_ambi40.png","常人","simultaneous",""
"","","","","","html-keyboard-response","294","1029335","0.0-13.0-2.0-1.0-0.1-1.66","null","<span style='color:GreenYellow; font-size: 70px;'>正确! </span>","null","","","","","","","","","","","","","","","","","","","","","","","feedback_test"
"","","","","","psychophysics","295","1031507","0.0-13.0-2.0-1.0-0.1-0.67","1164","","f","","","","","","","","","","","","","key","f","16.665999999999922","720","446","j","false","img/T_ambi40.png","好人","simultaneous",""
"","","","","","html-keyboard-response","296","1031815","0.0-13.0-2.0-1.0-0.1-1.67","null","<span style='color:red; font-size: 70px;'>错误! </span>","null","","","","","","","","","","","","","","","","","","","","","","","feedback_test"
"","","","","","psychophysics","297","1033616","0.0-13.0-2.0-1.0-0.1-0.68","794","","f","","","","","","","","","","","","","key","f","16.670897196261343","720","446","f","true","img/C_ambi40.png","坏人","simultaneous",""
"","","","","","html-keyboard-response","298","1033924","0.0-13.0-2.0-1.0-0.1-1.68","null","<span style='color:GreenYellow; font-size: 70px;'>正确! </span>","null","","","","","","","","","","","","","","","","","","","","","","","feedback_test"
"","","","","","psychophysics","299","1035775","0.0-13.0-2.0-1.0-0.1-0.69","845","","j","","","","","","","","","","","","","key","j","16.666000000000086","720","446","j","true","img/S_ambi40.png","常人","simultaneous",""
"","","","","","html-keyboard-response","300","1036087","0.0-13.0-2.0-1.0-0.1-1.69","null","<span style='color:GreenYellow; font-size: 70px;'>正确! </span>","null","","","","","","","","","","","","","","","","","","","","","","","feedback_test"
"","","","","","psychophysics","301","1038037","0.0-13.0-2.0-1.0-0.1-0.70","946","","f","","","","","","","","","","","","","key","f","16.666000000000448","720","446","f","true","img/T_ambi40.png","常人","simultaneous",""
"","","","","","html-keyboard-response","302","1038341","0.0-13.0-2.0-1.0-0.1-1.70","null","<span style='color:GreenYellow; font-size: 70px;'>正确! </span>","null","","","","","","","","","","","","","","","","","","","","","","","feedback_test"
"","","","","","psychophysics","303","1040243","0.0-13.0-2.0-1.0-0.1-0.71","898","","j","","","","","","","","","","","","","key","j","16.66600000000027","720","446","j","true","img/C_ambi40.png","好人","simultaneous",""
"","","","","","html-keyboard-response","304","1040547","0.0-13.0-2.0-1.0-0.1-1.71","null","<span style='color:GreenYellow; font-size: 70px;'>正确! </span>","null","","","","","","","","","","","","","","","","","","","","","","","feedback_test"
"","","","","","psychophysics","305","1042387","0.0-13.0-2.0-1.0-0.1-0.72","830","","j","","","","","","","","","","","","","key","j","16.666000000000377","720","446","j","true","img/C_ambi40.png","常人","simultaneous",""
"","","","","","html-keyboard-response","306","1042695","0.0-13.0-2.0-1.0-0.1-1.72","null","<span style='color:GreenYellow; font-size: 70px;'>正确! </span>","null","","","","","","","","","","","","","","","","","","","","","","","feedback_test"
"","","","","","psychophysics","307","1045113","0.0-13.0-2.0-1.0-0.1-0.73","1415","","j","","","","","","","","","","","","","key","j","16.666000000000672","720","446","j","true","img/T_ambi40.png","坏人","simultaneous",""
"","","","","","html-keyboard-response","308","1045419","0.0-13.0-2.0-1.0-0.1-1.73","null","<span style='color:GreenYellow; font-size: 70px;'>正确! </span>","null","","","","","","","","","","","","","","","","","","","","","","","feedback_test"
"","","","","","psychophysics","309","1047193","0.0-13.0-2.0-1.0-0.1-0.74","764","","f","","","","","","","","","","","","","key","f","16.66599999999938","720","446","f","true","img/C_ambi40.png","坏人","simultaneous",""
"","","","","","html-keyboard-response","310","1047501","0.0-13.0-2.0-1.0-0.1-1.74","null","<span style='color:GreenYellow; font-size: 70px;'>正确! </span>","null","","","","","","","","","","","","","","","","","","","","","","","feedback_test"
"","","","","","psychophysics","311","1049370","0.0-13.0-2.0-1.0-0.1-0.75","863","","f","","","","","","","","","","","","","key","f","16.665999999999798","720","446","f","true","img/T_ambi40.png","常人","simultaneous",""
"","","","","","html-keyboard-response","312","1049675","0.0-13.0-2.0-1.0-0.1-1.75","null","<span style='color:GreenYellow; font-size: 70px;'>正确! </span>","null","","","","","","","","","","","","","","","","","","","","","","","feedback_test"
"","","","","","psychophysics","313","1051489","0.0-13.0-2.0-1.0-0.1-0.76","810","","f","","","","","","","","","","","","","key","f","16.665999999998515","720","446","j","false","img/S_ambi40.png","常人","simultaneous",""
"","","","","","html-keyboard-response","314","1051797","0.0-13.0-2.0-1.0-0.1-1.76","null","<span style='color:red; font-size: 70px;'>错误! </span>","null","","","","","","","","","","","","","","","","","","","","","","","feedback_test"
"","","","","","psychophysics","315","1053854","0.0-13.0-2.0-1.0-0.1-0.77","1055","","f","","","","","","","","","","","","","key","f","16.670286885245137","720","446","f","true","img/T_ambi40.png","常人","simultaneous",""
"","","","","","html-keyboard-response","316","1054167","0.0-13.0-2.0-1.0-0.1-1.77","null","<span style='color:GreenYellow; font-size: 70px;'>正确! </span>","null","","","","","","","","","","","","","","","","","","","","","","","feedback_test"
"","","","","","psychophysics","317","1056043","0.0-13.0-2.0-1.0-0.1-0.78","871","","j","","","","","","","","","","","","","key","j","16.665999999999798","720","446","j","true","img/S_ambi40.png","坏人","simultaneous",""
"","","","","","html-keyboard-response","318","1056348","0.0-13.0-2.0-1.0-0.1-1.78","null","<span style='color:GreenYellow; font-size: 70px;'>正确! </span>","null","","","","","","","","","","","","","","","","","","","","","","","feedback_test"
"","","","","","psychophysics","319","1058266","0.0-13.0-2.0-1.0-0.1-0.79","916","","j","","","","","","","","","","","","","key","j","16.66599999999897","720","446","j","true","img/C_ambi40.png","好人","simultaneous",""
"","","","","","html-keyboard-response","320","1058575","0.0-13.0-2.0-1.0-0.1-1.79","null","<span style='color:GreenYellow; font-size: 70px;'>正确! </span>","null","","","","","","","","","","","","","","","","","","","","","","","feedback_test"
"","","","","","psychophysics","321","1060339","0.0-13.0-2.0-1.0-0.1-0.80","760","","f","","","","","","","","","","","","","key","f","16.66599999999938","720","446","f","true","img/S_ambi40.png","好人","simultaneous",""
"","","","","","html-keyboard-response","322","1060647","0.0-13.0-2.0-1.0-0.1-1.80","null","<span style='color:GreenYellow; font-size: 70px;'>正确! </span>","null","","","","","","","","","","","","","","","","","","","","","","","feedback_test"
"","","","","","psychophysics","323","1062645","0.0-13.0-2.0-1.0-0.1-0.81","998","","f","","","","","","","","","","","","","key","f","16.66599999999964","720","446","f","true","img/S_ambi40.png","好人","simultaneous",""
"","","","","","html-keyboard-response","324","1062955","0.0-13.0-2.0-1.0-0.1-1.81","null","<span style='color:GreenYellow; font-size: 70px;'>正确! </span>","null","","","","","","","","","","","","","","","","","","","","","","","feedback_test"
"","","","","","psychophysics","325","1064852","0.0-13.0-2.0-1.0-0.1-0.82","889","","f","","","","","","","","","","","","","key","f","16.66599999999924","720","446","f","true","img/C_ambi40.png","坏人","simultaneous",""
"","","","","","html-keyboard-response","326","1065154","0.0-13.0-2.0-1.0-0.1-1.82","null","<span style='color:GreenYellow; font-size: 70px;'>正确! </span>","null","","","","","","","","","","","","","","","","","","","","","","","feedback_test"
"","","","","","psychophysics","327","1067025","0.0-13.0-2.0-1.0-0.1-0.83","862","","j","","","","","","","","","","","","","key","j","16.665999999999798","720","446","j","true","img/T_ambi40.png","好人","simultaneous",""
"","","","","","html-keyboard-response","328","1067335","0.0-13.0-2.0-1.0-0.1-1.83","null","<span style='color:GreenYellow; font-size: 70px;'>正确! </span>","null","","","","","","","","","","","","","","","","","","","","","","","feedback_test"
"","","","","","psychophysics","329","1069269","0.0-13.0-2.0-1.0-0.1-0.84","927","","j","","","","","","","","","","","","","key","j","16.665999999998704","720","446","j","true","img/S_ambi40.png","坏人","simultaneous",""
"","","","","","html-keyboard-response","330","1069575","0.0-13.0-2.0-1.0-0.1-1.84","null","<span style='color:GreenYellow; font-size: 70px;'>正确! </span>","null","","","","","","","","","","","","","","","","","","","","","","","feedback_test"
"","","","","","psychophysics","331","1071302","0.0-13.0-2.0-1.0-0.1-0.85","722","","f","","","","","","","","","","","","","key","f","16.665999999999983","720","446","f","true","img/S_ambi40.png","好人","simultaneous",""
"","","","","","html-keyboard-response","332","1071615","0.0-13.0-2.0-1.0-0.1-1.85","null","<span style='color:GreenYellow; font-size: 70px;'>正确! </span>","null","","","","","","","","","","","","","","","","","","","","","","","feedback_test"
"","","","","","psychophysics","333","1073435","0.0-13.0-2.0-1.0-0.1-0.86","816","","f","","","","","","","","","","","","","key","f","16.666000000000672","720","446","f","true","img/T_ambi40.png","常人","simultaneous",""
"","","","","","html-keyboard-response","334","1073743","0.0-13.0-2.0-1.0-0.1-1.86","null","<span style='color:GreenYellow; font-size: 70px;'>正确! </span>","null","","","","","","","","","","","","","","","","","","","","","","","feedback_test"
"","","","","","psychophysics","335","1075746","0.0-13.0-2.0-1.0-0.1-0.87","1000","","j","","","","","","","","","","","","","key","j","16.67040833333352","720","446","j","true","img/C_ambi40.png","好人","simultaneous",""
"","","","","","html-keyboard-response","336","1076055","0.0-13.0-2.0-1.0-0.1-1.87","null","<span style='color:GreenYellow; font-size: 70px;'>正确! </span>","null","","","","","","","","","","","","","","","","","","","","","","","feedback_test"
"","","","","","psychophysics","337","1078004","0.0-13.0-2.0-1.0-0.1-0.88","943","","j","","","","","","","","","","","","","key","j","16.666000000000448","720","446","j","true","img/T_ambi40.png","好人","simultaneous",""
"","","","","","html-keyboard-response","338","1078311","0.0-13.0-2.0-1.0-0.1-1.88","null","<span style='color:GreenYellow; font-size: 70px;'>正确! </span>","null","","","","","","","","","","","","","","","","","","","","","","","feedback_test"
"","","","","","psychophysics","339","1080062","0.0-13.0-2.0-1.0-0.1-0.89","749","","f","","","","","","","","","","","","","key","f","16.665999999999677","720","446","f","true","img/S_ambi40.png","好人","simultaneous",""
"","","","","","html-keyboard-response","340","1080372","0.0-13.0-2.0-1.0-0.1-1.89","null","<span style='color:GreenYellow; font-size: 70px;'>正确! </span>","null","","","","","","","","","","","","","","","","","","","","","","","feedback_test"
"","","","","","psychophysics","341","1082269","0.0-13.0-2.0-1.0-0.1-0.90","890","","j","","","","","","","","","","","","","key","j","16.6660000000013","720","446","j","true","img/C_ambi40.png","常人","simultaneous",""
"","","","","","html-keyboard-response","342","1082575","0.0-13.0-2.0-1.0-0.1-1.90","null","<span style='color:GreenYellow; font-size: 70px;'>正确! </span>","null","","","","","","","","","","","","","","","","","","","","","","","feedback_test"
"","","","","","psychophysics","343","1084537","0.0-13.0-2.0-1.0-0.1-0.91","957","","f","","","","","","","","","","","","","key","f","16.666000000000174","720","446","f","true","img/C_ambi40.png","坏人","simultaneous",""
"","","","","","html-keyboard-response","344","1084847","0.0-13.0-2.0-1.0-0.1-1.91","null","<span style='color:GreenYellow; font-size: 70px;'>正确! </span>","null","","","","","","","","","","","","","","","","","","","","","","","feedback_test"
"","","","","","psychophysics","345","1086677","0.0-13.0-2.0-1.0-0.1-0.92","823","","j","","","","","","","","","","","","","key","j","16.666000000000672","720","446","j","true","img/S_ambi40.png","常人","simultaneous",""
"","","","","","html-keyboard-response","346","1086983","0.0-13.0-2.0-1.0-0.1-1.92","null","<span style='color:GreenYellow; font-size: 70px;'>正确! </span>","null","","","","","","","","","","","","","","","","","","","","","","","feedback_test"
"","","","","","psychophysics","347","1089101","0.0-13.0-2.0-1.0-0.1-0.93","1111","","f","","","","","","","","","","","","","key","f","16.666000000001596","720","446","f","true","img/T_ambi40.png","常人","simultaneous",""
"","","","","","html-keyboard-response","348","1089411","0.0-13.0-2.0-1.0-0.1-1.93","null","<span style='color:GreenYellow; font-size: 70px;'>正确! </span>","null","","","","","","","","","","","","","","","","","","","","","","","feedback_test"
"","","","","","psychophysics","349","1091210","0.0-13.0-2.0-1.0-0.1-0.94","798","","f","","","","","","","","","","","","","key","f","16.666000000001283","720","446","f","true","img/C_ambi40.png","坏人","simultaneous",""
"","","","","","html-keyboard-response","350","1091518","0.0-13.0-2.0-1.0-0.1-1.94","null","<span style='color:GreenYellow; font-size: 70px;'>正确! </span>","null","","","","","","","","","","","","","","","","","","","","","","","feedback_test"
"","","","","","psychophysics","351","1093327","0.0-13.0-2.0-1.0-0.1-0.95","805","","j","","","","","","","","","","","","","key","j","16.666000000000974","720","446","j","true","img/T_ambi40.png","坏人","simultaneous",""
"","","","","","html-keyboard-response","352","1093634","0.0-13.0-2.0-1.0-0.1-1.95","null","<span style='color:GreenYellow; font-size: 70px;'>正确! </span>","null","","","","","","","","","","","","","","","","","","","","","","","feedback_test"
"","","","","","psychophysics","353","1095797","0.0-13.0-2.0-1.0-0.1-0.96","1154","","f","","","","","","","","","","","","","key","f","16.670062015502708","720","446","f","true","img/C_ambi40.png","坏人","simultaneous",""
"","","","","","html-keyboard-response","354","1096106","0.0-13.0-2.0-1.0-0.1-1.96","null","<span style='color:GreenYellow; font-size: 70px;'>正确! </span>","null","","","","","","","","","","","","","","","","","","","","","","","feedback_test"
"","","","","","psychophysics","355","1098154","0.0-13.0-2.0-1.0-0.1-0.97","1041","","f","","","","","","","","","","","","","key","f","16.66600000000078","720","446","f","true","img/T_ambi40.png","常人","simultaneous",""
"","","","","","html-keyboard-response","356","1098458","0.0-13.0-2.0-1.0-0.1-1.97","null","<span style='color:GreenYellow; font-size: 70px;'>正确! </span>","null","","","","","","","","","","","","","","","","","","","","","","","feedback_test"
"","","","","","psychophysics","357","1100144","0.0-13.0-2.0-1.0-0.1-0.98","681","","f","","","","","","","","","","","","","key","f","16.66600000000093","720","446","f","true","img/C_ambi40.png","坏人","simultaneous",""
"","","","","","html-keyboard-response","358","1100452","0.0-13.0-2.0-1.0-0.1-1.98","null","<span style='color:GreenYellow; font-size: 70px;'>正确! </span>","null","","","","","","","","","","","","","","","","","","","","","","","feedback_test"
"","","","","","psychophysics","359","1102231","0.0-13.0-2.0-1.0-0.1-0.99","772","","f","","","","","","","","","","","","","key","f","16.666000000001283","720","446","f","true","img/S_ambi40.png","好人","simultaneous",""
"","","","","","html-keyboard-response","360","1102543","0.0-13.0-2.0-1.0-0.1-1.99","null","<span style='color:GreenYellow; font-size: 70px;'>正确! </span>","null","","","","","","","","","","","","","","","","","","","","","","","feedback_test"
"","","","","","psychophysics","361","1104356","0.0-13.0-2.0-1.0-0.1-0.100","809","","j","","","","","","","","","","","","","key","j","16.666000000000672","720","446","j","true","img/T_ambi40.png","坏人","simultaneous",""
"","","","","","html-keyboard-response","362","1104661","0.0-13.0-2.0-1.0-0.1-1.100","null","<span style='color:GreenYellow; font-size: 70px;'>正确! </span>","null","","","","","","","","","","","","","","","","","","","","","","","feedback_test"
"","","","","","psychophysics","363","1106451","0.0-13.0-2.0-1.0-0.1-0.101","789","","f","","","","","","","","","","","","","key","f","16.665999999999087","720","446","f","true","img/T_ambi40.png","常人","simultaneous",""
"","","","","","html-keyboard-response","364","1106759","0.0-13.0-2.0-1.0-0.1-1.101","null","<span style='color:GreenYellow; font-size: 70px;'>正确! </span>","null","","","","","","","","","","","","","","","","","","","","","","","feedback_test"
"","","","","","psychophysics","365","1108569","0.0-13.0-2.0-1.0-0.1-0.102","806","","j","","","","","","","","","","","","","key","j","16.666000000000672","720","446","j","true","img/S_ambi40.png","常人","simultaneous",""
"","","","","","html-keyboard-response","366","1108875","0.0-13.0-2.0-1.0-0.1-1.102","null","<span style='color:GreenYellow; font-size: 70px;'>正确! </span>","null","","","","","","","","","","","","","","","","","","","","","","","feedback_test"
"","","","","","psychophysics","367","1110604","0.0-13.0-2.0-1.0-0.1-0.103","724","","f","","","","","","","","","","","","","key","f","16.665999999999983","720","446","f","true","img/S_ambi40.png","好人","simultaneous",""
"","","","","","html-keyboard-response","368","1110919","0.0-13.0-2.0-1.0-0.1-1.103","null","<span style='color:GreenYellow; font-size: 70px;'>正确! </span>","null","","","","","","","","","","","","","","","","","","","","","","","feedback_test"
"","","","","","psychophysics","369","1112734","0.0-13.0-2.0-1.0-0.1-0.104","810","","j","","","","","","","","","","","","","key","j","16.666000000000672","720","446","j","true","img/C_ambi40.png","好人","simultaneous",""
"","","","","","html-keyboard-response","370","1113047","0.0-13.0-2.0-1.0-0.1-1.104","null","<span style='color:GreenYellow; font-size: 70px;'>正确! </span>","null","","","","","","","","","","","","","","","","","","","","","","","feedback_test"
"","","","","","psychophysics","371","1115032","0.0-13.0-2.0-1.0-0.1-0.105","983","","j","","","","","","","","","","","","","key","j","16.6704406779658","720","446","j","true","img/S_ambi40.png","坏人","simultaneous",""
"","","","","","html-keyboard-response","372","1115341","0.0-13.0-2.0-1.0-0.1-1.105","null","<span style='color:GreenYellow; font-size: 70px;'>正确! </span>","null","","","","","","","","","","","","","","","","","","","","","","","feedback_test"
"","","","","","psychophysics","373","1117184","0.0-13.0-2.0-1.0-0.1-0.106","839","","j","","","","","","","","","","","","","key","j","16.666000000000086","720","446","j","true","img/T_ambi40.png","好人","simultaneous",""
"","","","","","html-keyboard-response","374","1117495","0.0-13.0-2.0-1.0-0.1-1.106","null","<span style='color:GreenYellow; font-size: 70px;'>正确! </span>","null","","","","","","","","","","","","","","","","","","","","","","","feedback_test"
"","","","","","psychophysics","375","1119304","0.0-13.0-2.0-1.0-0.1-0.107","808","","j","","","","","","","","","","","","","key","j","16.6659999999988","720","446","j","true","img/C_ambi40.png","常人","simultaneous",""
"","","","","","html-keyboard-response","376","1119615","0.0-13.0-2.0-1.0-0.1-1.107","null","<span style='color:GreenYellow; font-size: 70px;'>正确! </span>","null","","","","","","","","","","","","","","","","","","","","","","","feedback_test"
"","","","","","psychophysics","377","1121286","0.0-13.0-2.0-1.0-0.1-0.108","660","","f","","","","","","","","","","","","","key","f","16.66599999999891","720","446","f","true","img/T_ambi40.png","常人","simultaneous",""
"","","","","","html-keyboard-response","378","1121599","0.0-13.0-2.0-1.0-0.1-1.108","null","<span style='color:GreenYellow; font-size: 70px;'>正确! </span>","null","","","","","","","","","","","","","","","","","","","","","","","feedback_test"
"","","","","","psychophysics","379","1123352","0.0-13.0-2.0-1.0-0.1-0.109","746","","f","","","","","","","","","","","","","key","f","16.665999999999677","720","446","f","true","img/S_ambi40.png","好人","simultaneous",""
"","","","","","html-keyboard-response","380","1123661","0.0-13.0-2.0-1.0-0.1-1.109","null","<span style='color:GreenYellow; font-size: 70px;'>正确! </span>","null","","","","","","","","","","","","","","","","","","","","","","","feedback_test"
"","","","","","psychophysics","381","1125493","0.0-13.0-2.0-1.0-0.1-0.110","830","","j","","","","","","","","","","","","","key","j","16.666000000000672","720","446","j","true","img/S_ambi40.png","坏人","simultaneous",""
"","","","","","html-keyboard-response","382","1125795","0.0-13.0-2.0-1.0-0.1-1.110","null","<span style='color:GreenYellow; font-size: 70px;'>正确! </span>","null","","","","","","","","","","","","","","","","","","","","","","","feedback_test"
"","","","","","psychophysics","383","1127752","0.0-13.0-2.0-1.0-0.1-0.111","955","","j","","","","","","","","","","","","","key","j","16.666000000000448","720","446","j","true","img/S_ambi40.png","常人","simultaneous",""
"","","","","","html-keyboard-response","384","1128061","0.0-13.0-2.0-1.0-0.1-1.111","null","<span style='color:GreenYellow; font-size: 70px;'>正确! </span>","null","","","","","","","","","","","","","","","","","","","","","","","feedback_test"
"","","","","","psychophysics","385","1129942","0.0-13.0-2.0-1.0-0.1-0.112","880","","f","","","","","","","","","","","","","key","f","16.665999999999798","720","446","f","true","img/T_ambi40.png","常人","simultaneous",""
"","","","","","html-keyboard-response","386","1130255","0.0-13.0-2.0-1.0-0.1-1.112","null","<span style='color:GreenYellow; font-size: 70px;'>正确! </span>","null","","","","","","","","","","","","","","","","","","","","","","","feedback_test"
"","","","","","psychophysics","387","1132179","0.0-13.0-2.0-1.0-0.1-0.113","919","","j","","","","","","","","","","","","","key","j","16.665999999998704","720","446","j","true","img/C_ambi40.png","常人","simultaneous",""
"","","","","","html-keyboard-response","388","1132486","0.0-13.0-2.0-1.0-0.1-1.113","null","<span style='color:GreenYellow; font-size: 70px;'>正确! </span>","null","","","","","","","","","","","","","","","","","","","","","","","feedback_test"
"","","","","","psychophysics","389","1134384","0.0-13.0-2.0-1.0-0.1-0.114","890","","j","","","","","","","","","","","","","key","j","16.67063716814062","720","446","j","true","img/T_ambi40.png","好人","simultaneous",""
"","","","","","html-keyboard-response","390","1134695","0.0-13.0-2.0-1.0-0.1-1.114","null","<span style='color:GreenYellow; font-size: 70px;'>正确! </span>","null","","","","","","","","","","","","","","","","","","","","","","","feedback_test"
"","","","","","psychophysics","391","1136405","0.0-13.0-2.0-1.0-0.1-0.115","708","","j","","","","","","","","","","","","","key","j","16.666000000000608","720","446","j","true","img/C_ambi40.png","好人","simultaneous",""
"","","","","","html-keyboard-response","392","1136709","0.0-13.0-2.0-1.0-0.1-1.115","null","<span style='color:GreenYellow; font-size: 70px;'>正确! </span>","null","","","","","","","","","","","","","","","","","","","","","","","feedback_test"
"","","","","","psychophysics","393","1138503","0.0-13.0-2.0-1.0-0.1-0.116","791","","f","","","","","","","","","","","","","key","f","16.666000000000974","720","446","f","true","img/S_ambi40.png","好人","simultaneous",""
"","","","","","html-keyboard-response","394","1138815","0.0-13.0-2.0-1.0-0.1-1.116","null","<span style='color:GreenYellow; font-size: 70px;'>正确! </span>","null","","","","","","","","","","","","","","","","","","","","","","","feedback_test"
"","","","","","psychophysics","395","1141022","0.0-13.0-2.0-1.0-0.1-0.117","1203","","j","","","","","","","","","","","","","key","j","16.666000000000327","720","446","j","true","img/T_ambi40.png","坏人","simultaneous",""
"","","","","","html-keyboard-response","396","1141335","0.0-13.0-2.0-1.0-0.1-1.117","null","<span style='color:GreenYellow; font-size: 70px;'>正确! </span>","null","","","","","","","","","","","","","","","","","","","","","","","feedback_test"
"","","","","","psychophysics","397","1143162","0.0-13.0-2.0-1.0-0.1-0.118","822","","f","","","","","","","","","","","","","key","f","16.666000000000377","720","446","f","true","img/C_ambi40.png","坏人","simultaneous",""
"","","","","","html-keyboard-response","398","1143471","0.0-13.0-2.0-1.0-0.1-1.118","null","<span style='color:GreenYellow; font-size: 70px;'>正确! </span>","null","","","","","","","","","","","","","","","","","","","","","","","feedback_test"
"","","","","","psychophysics","399","1145467","0.0-13.0-2.0-1.0-0.1-0.119","991","","f","","","","","","","","","","","","","key","f","16.66599999999964","720","446","f","true","img/C_ambi40.png","坏人","simultaneous",""
"","","","","","html-keyboard-response","400","1145775","0.0-13.0-2.0-1.0-0.1-1.119","null","<span style='color:GreenYellow; font-size: 70px;'>正确! </span>","null","","","","","","","","","","","","","","","","","","","","","","","feedback_test"
"","","","","","html-keyboard-response","401","1147950","0.0-13.0-2.0-1.0-1.1","2172","<style>.context{color:white; font-size: 35px; line-height:40px}</style>                              <div><p class='context'>您正确回答了97% 的试次。</p><p class='context'>您的平均反应时为875毫秒。</p><p class='context'>请按任意键进入休息</p></div>"," ","","","","","","","","","","","","","","","","","","","","","","",""
"","","","","","html-button-response","402","1151340","0.0-13.0-2.0-1.0-2.1","3386","
                      <p>您当前还剩余2组实验</p>
                      <p>现在是休息时间，当您结束休息后，您可以点击 结束休息 按钮 继续</p>
                      <p>建议休息时间还剩余<span id=""iii"">60</span>秒</p>","0","","","","","","","","","","","","","","","","","","","","","","",""
"","","","","","psychophysics","403","1153371","0.0-13.0-2.0-1.0-0.2-0.120","1025","","j","","","","","","","","","","","","","key","j","16.665999999999123","720","446","j","true","img/T_ambi40.png","坏人","simultaneous",""
"","","","","","html-keyboard-response","404","1153674","0.0-13.0-2.0-1.0-0.2-1.120","null","<span style='color:GreenYellow; font-size: 70px;'>正确! </span>","null","","","","","","","","","","","","","","","","","","","","","","","feedback_test"
"","","","","","psychophysics","405","1155785","0.0-13.0-2.0-1.0-0.2-0.121","1105","","f","","","","","","","","","","","","","key","f","16.67015873015829","720","446","f","true","img/T_ambi40.png","常人","simultaneous",""
"","","","","","html-keyboard-response","406","1156095","0.0-13.0-2.0-1.0-0.2-1.121","null","<span style='color:GreenYellow; font-size: 70px;'>正确! </span>","null","","","","","","","","","","","","","","","","","","","","","","","feedback_test"
"","","","","","psychophysics","407","1157985","0.0-13.0-2.0-1.0-0.2-0.122","889","","j","","","","","","","","","","","","","key","j","16.665999999999517","720","446","j","true","img/T_ambi40.png","好人","simultaneous",""
"","","","","","html-keyboard-response","408","1158295","0.0-13.0-2.0-1.0-0.2-1.122","null","<span style='color:GreenYellow; font-size: 70px;'>正确! </span>","null","","","","","","","","","","","","","","","","","","","","","","","feedback_test"
"","","","","","psychophysics","409","1160072","0.0-13.0-2.0-1.0-0.2-0.123","775","","f","","","","","","","","","","","","","key","f","16.66599999999938","720","446","f","true","img/C_ambi40.png","坏人","simultaneous",""
"","","","","","html-keyboard-response","410","1160378","0.0-13.0-2.0-1.0-0.2-1.123","null","<span style='color:GreenYellow; font-size: 70px;'>正确! </span>","null","","","","","","","","","","","","","","","","","","","","","","","feedback_test"
"","","","","","psychophysics","411","1162135","0.0-13.0-2.0-1.0-0.2-0.124","755","","j","","","","","","","","","","","","","key","j","16.665999999999677","720","446","j","true","img/C_ambi40.png","常人","simultaneous",""
"","","","","","html-keyboard-response","412","1162442","0.0-13.0-2.0-1.0-0.2-1.124","null","<span style='color:GreenYellow; font-size: 70px;'>正确! </span>","null","","","","","","","","","","","","","","","","","","","","","","","feedback_test"
"","","","","","psychophysics","413","1164199","0.0-13.0-2.0-1.0-0.2-0.125","754","","f","","","","","","","","","","","","","key","f","16.66599999999938","720","446","f","true","img/C_ambi40.png","坏人","simultaneous",""
"","","","","","html-keyboard-response","414","1164506","0.0-13.0-2.0-1.0-0.2-1.125","null","<span style='color:GreenYellow; font-size: 70px;'>正确! </span>","null","","","","","","","","","","","","","","","","","","","","","","","feedback_test"
"","","","","","psychophysics","415","1166285","0.0-13.0-2.0-1.0-0.2-0.126","772","","j","","","","","","","","","","","","","key","j","16.666000000001283","720","446","j","true","img/S_ambi40.png","常人","simultaneous",""
"","","","","","html-keyboard-response","416","1166591","0.0-13.0-2.0-1.0-0.2-1.126","null","<span style='color:GreenYellow; font-size: 70px;'>正确! </span>","null","","","","","","","","","","","","","","","","","","","","","","","feedback_test"
"","","","","","psychophysics","417","1168241","0.0-13.0-2.0-1.0-0.2-0.127","646","","f","","","","","","","","","","","","","key","f","16.666000000001596","720","446","f","true","img/T_ambi40.png","常人","simultaneous",""
"","","","","","html-keyboard-response","418","1168551","0.0-13.0-2.0-1.0-0.2-1.127","null","<span style='color:GreenYellow; font-size: 70px;'>正确! </span>","null","","","","","","","","","","","","","","","","","","","","","","","feedback_test"
"","","","","","psychophysics","419","1170419","0.0-13.0-2.0-1.0-0.2-0.128","863","","j","","","","","","","","","","","","","key","j","16.666000000001898","720","446","j","true","img/S_ambi40.png","坏人","simultaneous",""
"","","","","","html-keyboard-response","420","1170727","0.0-13.0-2.0-1.0-0.2-1.128","null","<span style='color:GreenYellow; font-size: 70px;'>正确! </span>","null","","","","","","","","","","","","","","","","","","","","","","","feedback_test"
"","","","","","psychophysics","421","1172467","0.0-13.0-2.0-1.0-0.2-0.129","739","","f","","","","","","","","","","","","","key","f","16.665999999999983","720","446","f","true","img/S_ambi40.png","好人","simultaneous",""
"","","","","","html-keyboard-response","422","1172775","0.0-13.0-2.0-1.0-0.2-1.129","null","<span style='color:GreenYellow; font-size: 70px;'>正确! </span>","null","","","","","","","","","","","","","","","","","","","","","","","feedback_test"
"","","","","","psychophysics","423","1174441","0.0-13.0-2.0-1.0-0.2-0.130","663","","f","","","","","","","","","","","","","key","f","16.671282828282187","720","446","f","true","img/S_ambi40.png","好人","simultaneous",""
"","","","","","html-keyboard-response","424","1174746","0.0-13.0-2.0-1.0-0.2-1.130","null","<span style='color:GreenYellow; font-size: 70px;'>正确! </span>","null","","","","","","","","","","","","","","","","","","","","","","","feedback_test"
"","","","","","psychophysics","425","1176494","0.0-13.0-2.0-1.0-0.2-0.131","737","","j","","","","","","","","","","","","","key","j","16.665999999999677","720","446","j","true","img/C_ambi40.png","好人","simultaneous",""
"","","","","","html-keyboard-response","426","1176807","0.0-13.0-2.0-1.0-0.2-1.131","null","<span style='color:GreenYellow; font-size: 70px;'>正确! </span>","null","","","","","","","","","","","","","","","","","","","","","","","feedback_test"
"","","","","","psychophysics","427","1178787","0.0-13.0-2.0-1.0-0.2-0.132","975","","j","","","","","","","","","","","","","key","j","16.665999999999904","720","446","j","true","img/S_ambi40.png","坏人","simultaneous",""
"","","","","","html-keyboard-response","428","1179090","0.0-13.0-2.0-1.0-0.2-1.132","null","<span style='color:GreenYellow; font-size: 70px;'>正确! </span>","null","","","","","","","","","","","","","","","","","","","","","","","feedback_test"
"","","","","","psychophysics","429","1180950","0.0-13.0-2.0-1.0-0.2-0.133","855","","f","","","","","","","","","","","","","key","f","16.665999999999798","720","446","f","true","img/T_ambi40.png","常人","simultaneous",""
"","","","","","html-keyboard-response","430","1181261","0.0-13.0-2.0-1.0-0.2-1.133","null","<span style='color:GreenYellow; font-size: 70px;'>正确! </span>","null","","","","","","","","","","","","","","","","","","","","","","","feedback_test"
