"success","timeout","failed_images","failed_audio","failed_video","trial_type","trial_index","time_elapsed","internal_node_id","rt","stimulus","response","value","item_width_mm","item_height_mm","item_width_px","px2mm","view_dist_mm","item_width_deg","px2deg","scale_factor","win_width_deg","win_height_deg","view_history","response_type","key_press","avg_frame_time","center_x","center_y","correct_response","correct","Image","word","condition","screen_id"
"true","false","[]","[]","[]","preload","0","2","0.0-0.0","","","","","","","","","","","","","","","","","","","","","","","","","",""
"","","","","","html-keyboard-response","1","2286","0.0-1.0","2284","
     <p>您好，欢迎参加本次实验。</p>
     <p>为充分保障您的权利，请确保您已经知晓并同意《参与实验同意书》以及《数据公开知情同意书》。</p>
     <p>如果您未见过上述内容，请咨询实验员。</p>
     <p>如果您选择继续实验，则表示您已经清楚两份知情同意书的内容并同意。</p>
     <p> <div style = ""color: green""><按任意键至下页></div> </p>
     "," ","","","","","","","","","","","","","","","","","","","","","","",""
"","","","","","html-keyboard-response","2","3780","0.0-2.0","1494","
     <p>本实验首先需要您填写一些基本个人信息。</p>
     <p> <div style = ""color: green""><按任意键至下页></div></p>
     "," ","","","","","","","","","","","","","","","","","","","","","","",""
"","","","","","call-function","3","3781","0.0-3.0-0.0","","","","","","","","","","","","","","","","","","","","","","","","","",""
"","","","","","survey-html-form","4","6402","0.0-3.0-1.0","2621","","{""Q0"":""4""}","","","","","","","","","","","","","","","","","","","","","","",""
"","","","","","html-button-response","5","7480","0.0-3.0-2.0","1077","<p style = 'color : white'>您的性别</p>","0","","","","","","","","","","","","","","","","","","","","","","",""
"","","","","","survey-html-form","6","12660","0.0-3.0-3.0","5180","","{""Q0"":""2001""}","","","","","","","","","","","","","","","","","","","","","","",""
"","","","","","survey-html-form","7","15082","0.0-3.0-4.0","2421","","{""Q0"":""5""}","","","","","","","","","","","","","","","","","","","","","","",""
"","","","","","virtual-chinrest","8","60718","0.0-4.0","45635","","","","85.6","53.98","474.98332608409453","5.548975823683853","515.1","9.49966652168189","50","0.8884522399535474","34.14","19.12","","","","","","","","","","","",""
"true","","","","","fullscreen","9","63290","0.0-5.0","","","","","","","","","","","","","","","","","","","","","","","","","",""
"","","","","","instructions","10","108565","0.0-6.0","45274","","","","","","","","","","","","","","[{""page_index"":0,""viewing_time"":2713},{""page_index"":1,""viewing_time"":36830},{""page_index"":2,""viewing_time"":3466},{""page_index"":3,""viewing_time"":2265}]","","","","","","","","","","",""
"","","","","","psychophysics","11","110688","0.0-7.0-0.0-0.0","970","","j","","","","","","","","","","","","","key","j","16.66660317460316","853.3333333333334","529.3333333333334","j","true","img/S_ambi40.png","常人","prac_image_first",""
"","","","","","html-keyboard-response","12","110996","0.0-7.0-0.0-1.0","null","<span style='color:GreenYellow; font-size: 70px;'>正确! </span>","null","","","","","","","","","","","","","","","","","","","","","","","feedback_test"
"","","","","","psychophysics","13","112892","0.0-7.0-0.0-0.1","741","","f","","","","","","","","","","","","","key","f","16.666530973451323","853.3333333333334","529.3333333333334","f","true","img/T_ambi40.png","常人","prac_image_first",""
"","","","","","html-keyboard-response","14","113201","0.0-7.0-0.0-1.1","null","<span style='color:GreenYellow; font-size: 70px;'>正确! </span>","null","","","","","","","","","","","","","","","","","","","","","","","feedback_test"
"","","","","","psychophysics","15","114982","0.0-7.0-0.0-0.2","614","","f","","","","","","","","","","","","","key","f","16.666628571428564","853.3333333333334","529.3333333333334","f","true","img/T_ambi40.png","常人","prac_image_first",""
"","","","","","html-keyboard-response","16","115293","0.0-7.0-0.0-1.2","null","<span style='color:GreenYellow; font-size: 70px;'>正确! </span>","null","","","","","","","","","","","","","","","","","","","","","","","feedback_test"
"","","","","","psychophysics","17","117108","0.0-7.0-0.0-0.3","657","","f","","","","","","","","","","","","","key","f","16.666768518518506","853.3333333333334","529.3333333333334","f","true","img/C_ambi40.png","坏人","prac_image_first",""
"","","","","","html-keyboard-response","18","117413","0.0-7.0-0.0-1.3","null","<span style='color:GreenYellow; font-size: 70px;'>正确! </span>","null","","","","","","","","","","","","","","","","","","","","","","","feedback_test"
"","","","","","psychophysics","19","119253","0.0-7.0-0.0-0.4","683","","j","","","","","","","","","","","","","key","j","16.666431192660582","853.3333333333334","529.3333333333334","j","true","img/T_ambi40.png","坏人","prac_image_first",""
"","","","","","html-keyboard-response","20","119557","0.0-7.0-0.0-1.4","null","<span style='color:GreenYellow; font-size: 70px;'>正确! </span>","null","","","","","","","","","","","","","","","","","","","","","","","feedback_test"
"","","","","","psychophysics","21","121579","0.0-7.0-0.0-0.5","862","","f","","","","","","","","","","","","","key","f","16.666341666666632","853.3333333333334","529.3333333333334","j","false","img/T_ambi40.png","好人","prac_image_first",""
"","","","","","html-keyboard-response","22","121889","0.0-7.0-0.0-1.5","null","<span style='color:red; font-size: 70px;'>错误! </span>","null","","","","","","","","","","","","","","","","","","","","","","","feedback_test"
"","","","","","psychophysics","23","123692","0.0-7.0-0.0-0.6","646","","j","","","","","","","","","","","","","key","j","16.666859813084173","853.3333333333334","529.3333333333334","j","true","img/C_ambi40.png","好人","prac_image_first",""
"","","","","","html-keyboard-response","24","123996","0.0-7.0-0.0-1.6","null","<span style='color:GreenYellow; font-size: 70px;'>正确! </span>","null","","","","","","","","","","","","","","","","","","","","","","","feedback_test"
"","","","","","psychophysics","25","125792","0.0-7.0-0.0-0.7","644","","f","","","","","","","","","","","","","key","f","16.66714953271023","853.3333333333334","529.3333333333334","f","true","img/S_ambi40.png","好人","prac_image_first",""
"","","","","","html-keyboard-response","26","126105","0.0-7.0-0.0-1.7","null","<span style='color:GreenYellow; font-size: 70px;'>正确! </span>","null","","","","","","","","","","","","","","","","","","","","","","","feedback_test"
"","","","","","psychophysics","27","128179","0.0-7.0-0.0-0.8","917","","j","","","","","","","","","","","","","key","j","16.666504065040737","853.3333333333334","529.3333333333334","j","true","img/C_ambi40.png","常人","prac_image_first",""
"","","","","","html-keyboard-response","28","128493","0.0-7.0-0.0-1.8","null","<span style='color:GreenYellow; font-size: 70px;'>正确! </span>","null","","","","","","","","","","","","","","","","","","","","","","","feedback_test"
"","","","","","psychophysics","29","130509","0.0-7.0-0.0-0.9","859","","j","","","","","","","","","","","","","key","j","16.66704166666653","853.3333333333334","529.3333333333334","f","false","img/C_ambi40.png","坏人","prac_image_first",""
"","","","","","html-keyboard-response","30","130816","0.0-7.0-0.0-1.9","null","<span style='color:red; font-size: 70px;'>错误! </span>","null","","","","","","","","","","","","","","","","","","","","","","","feedback_test"
"","","","","","psychophysics","31","132846","0.0-7.0-0.0-0.10","879","","f","","","","","","","","","","","","","key","f","16.544008333333476","853.3333333333334","529.3333333333334","f","true","img/S_ambi40.png","好人","prac_image_first",""
"","","","","","html-keyboard-response","32","133157","0.0-7.0-0.0-1.10","null","<span style='color:GreenYellow; font-size: 70px;'>正确! </span>","null","","","","","","","","","","","","","","","","","","","","","","","feedback_test"
"","","","","","psychophysics","33","134938","0.0-7.0-0.0-0.11","621","","j","","","","","","","","","","","","","key","j","16.666764150943358","853.3333333333334","529.3333333333334","j","true","img/S_ambi40.png","坏人","prac_image_first",""
"","","","","","html-keyboard-response","34","135253","0.0-7.0-0.0-1.11","null","<span style='color:GreenYellow; font-size: 70px;'>正确! </span>","null","","","","","","","","","","","","","","","","","","","","","","","feedback_test"
"","","","","","psychophysics","35","137175","0.0-7.0-0.0-0.12","763","","j","","","","","","","","","","","","","key","j","16.666692982456112","853.3333333333334","529.3333333333334","j","true","img/S_ambi40.png","坏人","prac_image_first",""
"","","","","","html-keyboard-response","36","137491","0.0-7.0-0.0-1.12","null","<span style='color:GreenYellow; font-size: 70px;'>正确! </span>","null","","","","","","","","","","","","","","","","","","","","","","","feedback_test"
"","","","","","psychophysics","37","139272","0.0-7.0-0.0-0.13","625","","j","","","","","","","","","","","","","key","j","16.66677358490552","853.3333333333334","529.3333333333334","j","true","img/T_ambi40.png","好人","prac_image_first",""
"","","","","","html-keyboard-response","38","139584","0.0-7.0-0.0-1.13","null","<span style='color:GreenYellow; font-size: 70px;'>正确! </span>","null","","","","","","","","","","","","","","","","","","","","","","","feedback_test"
"","","","","","psychophysics","39","141372","0.0-7.0-0.0-0.14","621","","f","","","","","","","","","","","","","key","f","16.66656603773601","853.3333333333334","529.3333333333334","f","true","img/S_ambi40.png","好人","prac_image_first",""
"","","","","","html-keyboard-response","40","141676","0.0-7.0-0.0-1.14","null","<span style='color:GreenYellow; font-size: 70px;'>正确! </span>","null","","","","","","","","","","","","","","","","","","","","","","","feedback_test"
"","","","","","psychophysics","41","143606","0.0-7.0-0.0-0.15","772","","f","","","","","","","","","","","","","key","f","16.66673913043468","853.3333333333334","529.3333333333334","f","true","img/C_ambi40.png","坏人","prac_image_first",""
"","","","","","html-keyboard-response","42","143921","0.0-7.0-0.0-1.15","null","<span style='color:GreenYellow; font-size: 70px;'>正确! </span>","null","","","","","","","","","","","","","","","","","","","","","","","feedback_test"
"","","","","","psychophysics","43","145758","0.0-7.0-0.0-0.16","674","","f","","","","","","","","","","","","","key","f","16.666577981651436","853.3333333333334","529.3333333333334","f","true","img/C_ambi40.png","坏人","prac_image_first",""
"","","","","","html-keyboard-response","44","146066","0.0-7.0-0.0-1.16","null","<span style='color:GreenYellow; font-size: 70px;'>正确! </span>","null","","","","","","","","","","","","","","","","","","","","","","","feedback_test"
"","","","","","psychophysics","45","147895","0.0-7.0-0.0-0.17","677","","f","","","","","","","","","","","","","key","f","16.53138888888902","853.3333333333334","529.3333333333334","f","true","img/T_ambi40.png","常人","prac_image_first",""
"","","","","","html-keyboard-response","46","148208","0.0-7.0-0.0-1.17","null","<span style='color:GreenYellow; font-size: 70px;'>正确! </span>","null","","","","","","","","","","","","","","","","","","","","","","","feedback_test"
"","","","","","psychophysics","47","149870","0.0-7.0-0.0-0.18","504","","f","","","","","","","","","","","","","key","f","16.66687878787887","853.3333333333334","529.3333333333334","j","false","img/C_ambi40.png","好人","prac_image_first",""
"","","","","","html-keyboard-response","48","150185","0.0-7.0-0.0-1.18","null","<span style='color:red; font-size: 70px;'>错误! </span>","null","","","","","","","","","","","","","","","","","","","","","","","feedback_test"
"","","","","","psychophysics","49","152038","0.0-7.0-0.0-0.19","687","","j","","","","","","","","","","","","","key","j","16.66675454545475","853.3333333333334","529.3333333333334","j","true","img/C_ambi40.png","常人","prac_image_first",""
"","","","","","html-keyboard-response","50","152352","0.0-7.0-0.0-1.19","null","<span style='color:GreenYellow; font-size: 70px;'>正确! </span>","null","","","","","","","","","","","","","","","","","","","","","","","feedback_test"
"","","","","","psychophysics","51","154237","0.0-7.0-0.0-0.20","726","","f","","","","","","","","","","","","","key","f","16.66666071428569","853.3333333333334","529.3333333333334","f","true","img/S_ambi40.png","好人","prac_image_first",""
"","","","","","html-keyboard-response","52","154547","0.0-7.0-0.0-1.20","null","<span style='color:GreenYellow; font-size: 70px;'>正确! </span>","null","","","","","","","","","","","","","","","","","","","","","","","feedback_test"
"","","","","","psychophysics","53","156293","0.0-7.0-0.0-0.21","590","","f","","","","","","","","","","","","","key","f","16.6668750000001","853.3333333333334","529.3333333333334","f","true","img/T_ambi40.png","常人","prac_image_first",""
"","","","","","html-keyboard-response","54","156610","0.0-7.0-0.0-1.21","null","<span style='color:GreenYellow; font-size: 70px;'>正确! </span>","null","","","","","","","","","","","","","","","","","","","","","","","feedback_test"
"","","","","","psychophysics","55","158399","0.0-7.0-0.0-0.22","631","","j","","","","","","","","","","","","","key","j","16.666650943396302","853.3333333333334","529.3333333333334","j","true","img/S_ambi40.png","常人","prac_image_first",""
"","","","","","html-keyboard-response","56","158711","0.0-7.0-0.0-1.22","null","<span style='color:GreenYellow; font-size: 70px;'>正确! </span>","null","","","","","","","","","","","","","","","","","","","","","","","feedback_test"
"","","","","","psychophysics","57","160596","0.0-7.0-0.0-0.23","729","","j","","","","","","","","","","","","","key","j","16.666258928571292","853.3333333333334","529.3333333333334","j","true","img/T_ambi40.png","坏人","prac_image_first",""
"","","","","","html-keyboard-response","58","160913","0.0-7.0-0.0-1.23","null","<span style='color:GreenYellow; font-size: 70px;'>正确! </span>","null","","","","","","","","","","","","","","","","","","","","","","","feedback_test"
"","","","","","html-keyboard-response","59","164462","0.0-8.0","3548","<style>.context{color:white; font-size: 35px; line-height:40px}</style>                              <div><p class='context'>您正确回答了88% 的试次。</p><p class='context'>您的平均反应时为708毫秒。</p><p class='context'>恭喜您完成这一阶段的练习。按任意键进入<span style='color: yellow;'>先文字后图形条件</span>的练习。</p></div>"," ","","","","","","","","","","","","","","","","","","","","","","",""
"","","","","","psychophysics","60","166632","0.0-9.0-0.0-0.0","1015","","f","","","","","","","","","","","","","key","f","16.66638759689928","853.3333333333334","529.3333333333334","f","true","img/S_ambi40.png","好人","prac_word_first",""
"","","","","","html-keyboard-response","61","166943","0.0-9.0-0.0-1.0","null","<span style='color:GreenYellow; font-size: 70px;'>正确! </span>","null","","","","","","","","","","","","","","","","","","","","","","","feedback_test"
"","","","","","psychophysics","62","168708","0.0-9.0-0.0-0.1","608","","j","","","","","","","","","","","","","key","j","16.66696190476179","853.3333333333334","529.3333333333334","f","false","img/C_ambi40.png","坏人","prac_word_first",""
"","","","","","html-keyboard-response","63","169021","0.0-9.0-0.0-1.1","null","<span style='color:red; font-size: 70px;'>错误! </span>","null","","","","","","","","","","","","","","","","","","","","","","","feedback_test"
"","","","","","psychophysics","64","170797","0.0-9.0-0.0-0.2","613","","f","","","","","","","","","","","","","key","f","16.666733333333173","853.3333333333334","529.3333333333334","f","true","img/T_ambi40.png","常人","prac_word_first",""
"","","","","","html-keyboard-response","65","171109","0.0-9.0-0.0-1.2","null","<span style='color:GreenYellow; font-size: 70px;'>正确! </span>","null","","","","","","","","","","","","","","","","","","","","","","","feedback_test"
"","","","","","psychophysics","66","172934","0.0-9.0-0.0-0.3","667","","j","","","","","","","","","","","","","key","j","16.666816513761642","853.3333333333334","529.3333333333334","j","true","img/C_ambi40.png","好人","prac_word_first",""
"","","","","","html-keyboard-response","67","173247","0.0-9.0-0.0-1.3","null","<span style='color:GreenYellow; font-size: 70px;'>正确! </span>","null","","","","","","","","","","","","","","","","","","","","","","","feedback_test"
"","","","","","psychophysics","68","175169","0.0-9.0-0.0-0.4","770","","f","","","","","","","","","","","","","key","f","16.666704347826105","853.3333333333334","529.3333333333334","j","false","img/S_ambi40.png","坏人","prac_word_first",""
"","","","","","html-keyboard-response","69","175490","0.0-9.0-0.0-1.4","null","<span style='color:red; font-size: 70px;'>错误! </span>","null","","","","","","","","","","","","","","","","","","","","","","","feedback_test"
"","","","","","psychophysics","70","177232","0.0-9.0-0.0-0.5","585","","j","","","","","","","","","","","","","key","j","16.66653398058272","853.3333333333334","529.3333333333334","j","true","img/T_ambi40.png","好人","prac_word_first",""
"","","","","","html-keyboard-response","71","177552","0.0-9.0-0.0-1.5","null","<span style='color:GreenYellow; font-size: 70px;'>正确! </span>","null","","","","","","","","","","","","","","","","","","","","","","","feedback_test"
"","","","","","psychophysics","72","179365","0.0-9.0-0.0-0.6","656","","j","","","","","","","","","","","","","key","j","16.666261682243068","853.3333333333334","529.3333333333334","j","true","img/T_ambi40.png","坏人","prac_word_first",""
"","","","","","html-keyboard-response","73","179678","0.0-9.0-0.0-1.6","null","<span style='color:GreenYellow; font-size: 70px;'>正确! </span>","null","","","","","","","","","","","","","","","","","","","","","","","feedback_test"
"","","","","","psychophysics","74","181456","0.0-9.0-0.0-0.7","622","","j","","","","","","","","","","","","","key","j","16.666622641509264","853.3333333333334","529.3333333333334","j","true","img/C_ambi40.png","常人","prac_word_first",""
"","","","","","html-keyboard-response","75","181763","0.0-9.0-0.0-1.7","null","<span style='color:GreenYellow; font-size: 70px;'>正确! </span>","null","","","","","","","","","","","","","","","","","","","","","","","feedback_test"
"","","","","","psychophysics","76","183635","0.0-9.0-0.0-0.8","719","","f","","","","","","","","","","","","","key","f","16.666330357142733","853.3333333333334","529.3333333333334","f","true","img/T_ambi40.png","常人","prac_word_first",""
"","","","","","html-keyboard-response","77","183954","0.0-9.0-0.0-1.8","null","<span style='color:GreenYellow; font-size: 70px;'>正确! </span>","null","","","","","","","","","","","","","","","","","","","","","","","feedback_test"
"","","","","","psychophysics","78","185884","0.0-9.0-0.0-0.9","768","","f","","","","","","","","","","","","","key","f","16.666226086956602","853.3333333333334","529.3333333333334","f","true","img/S_ambi40.png","好人","prac_word_first",""
"","","","","","html-keyboard-response","79","186198","0.0-9.0-0.0-1.9","null","<span style='color:GreenYellow; font-size: 70px;'>正确! </span>","null","","","","","","","","","","","","","","","","","","","","","","","feedback_test"
"","","","","","psychophysics","80","188068","0.0-9.0-0.0-0.10","718","","f","","","","","","","","","","","","","key","f","16.666339285714326","853.3333333333334","529.3333333333334","f","true","img/C_ambi40.png","坏人","prac_word_first",""
"","","","","","html-keyboard-response","81","188380","0.0-9.0-0.0-1.10","null","<span style='color:GreenYellow; font-size: 70px;'>正确! </span>","null","","","","","","","","","","","","","","","","","","","","","","","feedback_test"
"","","","","","psychophysics","82","190377","0.0-9.0-0.0-0.11","844","","j","","","","","","","","","","","","","key","j","16.666756302520863","853.3333333333334","529.3333333333334","j","true","img/S_ambi40.png","常人","prac_word_first",""
"","","","","","html-keyboard-response","83","190692","0.0-9.0-0.0-1.11","null","<span style='color:GreenYellow; font-size: 70px;'>正确! </span>","null","","","","","","","","","","","","","","","","","","","","","","","feedback_test"
"","","","","","psychophysics","84","192577","0.0-9.0-0.0-0.12","727","","f","","","","","","","","","","","","","key","f","16.66659821428584","853.3333333333334","529.3333333333334","f","true","img/S_ambi40.png","好人","prac_word_first",""
"","","","","","html-keyboard-response","85","192896","0.0-9.0-0.0-1.12","null","<span style='color:GreenYellow; font-size: 70px;'>正确! </span>","null","","","","","","","","","","","","","","","","","","","","","","","feedback_test"
"","","","","","psychophysics","86","194814","0.0-9.0-0.0-0.13","765","","f","","","","","","","","","","","","","key","f","16.666517543859715","853.3333333333334","529.3333333333334","f","true","img/C_ambi40.png","坏人","prac_word_first",""
"","","","","","html-keyboard-response","87","195126","0.0-9.0-0.0-1.13","null","<span style='color:GreenYellow; font-size: 70px;'>正确! </span>","null","","","","","","","","","","","","","","","","","","","","","","","feedback_test"
"","","","","","psychophysics","88","197167","0.0-9.0-0.0-0.14","884","","f","","","","","","","","","","","","","key","f","16.666606557377058","853.3333333333334","529.3333333333334","j","false","img/T_ambi40.png","好人","prac_word_first",""
"","","","","","html-keyboard-response","89","197479","0.0-9.0-0.0-1.14","null","<span style='color:red; font-size: 70px;'>错误! </span>","null","","","","","","","","","","","","","","","","","","","","","","","feedback_test"
"","","","","","psychophysics","90","199298","0.0-9.0-0.0-0.15","665","","j","","","","","","","","","","","","","key","j","16.666425925926077","853.3333333333334","529.3333333333334","j","true","img/S_ambi40.png","常人","prac_word_first",""
"","","","","","html-keyboard-response","91","199617","0.0-9.0-0.0-1.15","null","<span style='color:GreenYellow; font-size: 70px;'>正确! </span>","null","","","","","","","","","","","","","","","","","","","","","","","feedback_test"
"","","","","","psychophysics","92","201427","0.0-9.0-0.0-0.16","654","","f","","","","","","","","","","","","","key","f","16.666495327102826","853.3333333333334","529.3333333333334","f","true","img/S_ambi40.png","好人","prac_word_first",""
"","","","","","html-keyboard-response","93","201740","0.0-9.0-0.0-1.16","null","<span style='color:GreenYellow; font-size: 70px;'>正确! </span>","null","","","","","","","","","","","","","","","","","","","","","","","feedback_test"
"","","","","","psychophysics","94","203439","0.0-9.0-0.0-0.17","540","","f","","","","","","","","","","","","","key","f","16.666841584158366","853.3333333333334","529.3333333333334","f","true","img/C_ambi40.png","坏人","prac_word_first",""
"","","","","","html-keyboard-response","95","203757","0.0-9.0-0.0-1.17","null","<span style='color:GreenYellow; font-size: 70px;'>正确! </span>","null","","","","","","","","","","","","","","","","","","","","","","","feedback_test"
"","","","","","psychophysics","96","205516","0.0-9.0-0.0-0.18","600","","j","","","","","","","","","","","","","key","j","16.667067307692307","853.3333333333334","529.3333333333334","j","true","img/T_ambi40.png","坏人","prac_word_first",""
"","","","","","html-keyboard-response","97","205823","0.0-9.0-0.0-1.18","null","<span style='color:GreenYellow; font-size: 70px;'>正确! </span>","null","","","","","","","","","","","","","","","","","","","","","","","feedback_test"
"","","","","","psychophysics","98","207697","0.0-9.0-0.0-0.19","714","","f","","","","","","","","","","","","","key","f","16.666819819819754","853.3333333333334","529.3333333333334","f","true","img/T_ambi40.png","常人","prac_word_first",""
"","","","","","html-keyboard-response","99","208011","0.0-9.0-0.0-1.19","null","<span style='color:GreenYellow; font-size: 70px;'>正确! </span>","null","","","","","","","","","","","","","","","","","","","","","","","feedback_test"
"","","","","","psychophysics","100","209885","0.0-9.0-0.0-0.20","720","","f","","","","","","","","","","","","","key","f","16.666803571428577","853.3333333333334","529.3333333333334","f","true","img/T_ambi40.png","常人","prac_word_first",""
"","","","","","html-keyboard-response","101","210199","0.0-9.0-0.0-1.20","null","<span style='color:GreenYellow; font-size: 70px;'>正确! </span>","null","","","","","","","","","","","","","","","","","","","","","","","feedback_test"
"","","","","","psychophysics","102","211974","0.0-9.0-0.0-0.21","624","","j","","","","","","","","","","","","","key","j","16.526533333333266","853.3333333333334","529.3333333333334","j","true","img/S_ambi40.png","坏人","prac_word_first",""
"","","","","","html-keyboard-response","103","212283","0.0-9.0-0.0-1.21","null","<span style='color:GreenYellow; font-size: 70px;'>正确! </span>","null","","","","","","","","","","","","","","","","","","","","","","","feedback_test"
"","","","","","psychophysics","104","214255","0.0-9.0-0.0-0.22","813","","f","","","","","","","","","","","","","key","f","16.66623076923096","853.3333333333334","529.3333333333334","j","false","img/C_ambi40.png","常人","prac_word_first",""
"","","","","","html-keyboard-response","105","214578","0.0-9.0-0.0-1.22","null","<span style='color:red; font-size: 70px;'>错误! </span>","null","","","","","","","","","","","","","","","","","","","","","","","feedback_test"
"","","","","","psychophysics","106","216342","0.0-9.0-0.0-0.23","609","","j","","","","","","","","","","","","","key","j","16.666542857142797","853.3333333333334","529.3333333333334","j","true","img/C_ambi40.png","好人","prac_word_first",""
"","","","","","html-keyboard-response","107","216644","0.0-9.0-0.0-1.23","null","<span style='color:GreenYellow; font-size: 70px;'>正确! </span>","null","","","","","","","","","","","","","","","","","","","","","","","feedback_test"
"","","","","","html-keyboard-response","108","219273","0.0-10.0","2628","<style>.context{color:white; font-size: 35px; line-height:40px}</style>                              <div><p class='context'>您正确回答了83% 的试次。</p><p class='context'>您的平均反应时为691毫秒。</p><p class='context'>恭喜您完成练习。按任意键进入<span style='color: yellow;'>图形和文字同时呈现条件</span>的练习。</p></div>"," ","","","","","","","","","","","","","","","","","","","","","","",""
"","","","","","psychophysics","109","221108","0.0-11.0-0.0-0.0","825","","f","","","","","","","","","","","","","key","f","16.666807339449548","853.3333333333334","529.3333333333334","f","true","img/S_ambi40.png","好人","prac_simultaneous",""
"","","","","","html-keyboard-response","110","221426","0.0-11.0-0.0-1.0","null","<span style='color:GreenYellow; font-size: 70px;'>正确! </span>","null","","","","","","","","","","","","","","","","","","","","","","","feedback_test"
"","","","","","psychophysics","111","223382","0.0-11.0-0.0-0.1","950","","f","","","","","","","","","","","","","key","f","16.66690517241383","853.3333333333334","529.3333333333334","j","false","img/T_ambi40.png","坏人","prac_simultaneous",""
"","","","","","html-keyboard-response","112","223702","0.0-11.0-0.0-1.1","null","<span style='color:red; font-size: 70px;'>错误! </span>","null","","","","","","","","","","","","","","","","","","","","","","","feedback_test"
"","","","","","psychophysics","113","225692","0.0-11.0-0.0-0.2","976","","f","","","","","","","","","","","","","key","f","16.666389830508397","853.3333333333334","529.3333333333334","f","true","img/T_ambi40.png","常人","prac_simultaneous",""
"","","","","","html-keyboard-response","114","225996","0.0-11.0-0.0-1.2","null","<span style='color:GreenYellow; font-size: 70px;'>正确! </span>","null","","","","","","","","","","","","","","","","","","","","","","","feedback_test"
"","","","","","psychophysics","115","227984","0.0-11.0-0.0-0.3","984","","j","","","","","","","","","","","","","key","j","16.666756302521108","853.3333333333334","529.3333333333334","j","true","img/C_ambi40.png","好人","prac_simultaneous",""
"","","","","","html-keyboard-response","116","228298","0.0-11.0-0.0-1.3","null","<span style='color:GreenYellow; font-size: 70px;'>正确! </span>","null","","","","","","","","","","","","","","","","","","","","","","","feedback_test"
"","","","","","psychophysics","117","230180","0.0-11.0-0.0-0.4","881","","f","","","","","","","","","","","","","key","f","16.666517857142804","853.3333333333334","529.3333333333334","f","true","img/T_ambi40.png","常人","prac_simultaneous",""
"","","","","","html-keyboard-response","118","230497","0.0-11.0-0.0-1.4","null","<span style='color:GreenYellow; font-size: 70px;'>正确! </span>","null","","","","","","","","","","","","","","","","","","","","","","","feedback_test"
"","","","","","psychophysics","119","232309","0.0-11.0-0.0-0.5","810","","f","","","","","","","","","","","","","key","f","16.666685185185255","853.3333333333334","529.3333333333334","f","true","img/S_ambi40.png","好人","prac_simultaneous",""
"","","","","","html-keyboard-response","120","232612","0.0-11.0-0.0-1.5","null","<span style='color:GreenYellow; font-size: 70px;'>正确! </span>","null","","","","","","","","","","","","","","","","","","","","","","","feedback_test"
"","","","","","psychophysics","121","234642","0.0-11.0-0.0-0.6","1026","","j","","","","","","","","","","","","","key","j","16.666404958677763","853.3333333333334","529.3333333333334","j","true","img/S_ambi40.png","常人","prac_simultaneous",""
"","","","","","html-keyboard-response","122","234948","0.0-11.0-0.0-1.6","null","<span style='color:GreenYellow; font-size: 70px;'>正确! </span>","null","","","","","","","","","","","","","","","","","","","","","","","feedback_test"
"","","","","","psychophysics","123","236799","0.0-11.0-0.0-0.7","849","","j","","","","","","","","","","","","","key","j","16.534899082568842","853.3333333333334","529.3333333333334","j","true","img/S_ambi40.png","坏人","prac_simultaneous",""
"","","","","","html-keyboard-response","124","237118","0.0-11.0-0.0-1.7","null","<span style='color:GreenYellow; font-size: 70px;'>正确! </span>","null","","","","","","","","","","","","","","","","","","","","","","","feedback_test"
"","","","","","psychophysics","125","238977","0.0-11.0-0.0-0.8","844","","j","","","","","","","","","","","","","key","j","16.66650000000002","853.3333333333334","529.3333333333334","f","false","img/C_ambi40.png","坏人","prac_simultaneous",""
"","","","","","html-keyboard-response","126","239290","0.0-11.0-0.0-1.8","null","<span style='color:red; font-size: 70px;'>错误! </span>","null","","","","","","","","","","","","","","","","","","","","","","","feedback_test"
"","","","","","psychophysics","127","241117","0.0-11.0-0.0-0.9","818","","f","","","","","","","","","","","","","key","f","16.667743119266184","853.3333333333334","529.3333333333334","j","false","img/T_ambi40.png","好人","prac_simultaneous",""
"","","","","","html-keyboard-response","128","241421","0.0-11.0-0.0-1.9","null","<span style='color:red; font-size: 70px;'>错误! </span>","null","","","","","","","","","","","","","","","","","","","","","","","feedback_test"
"","","","","","psychophysics","129","243322","0.0-11.0-0.0-0.10","889","","f","","","","","","","","","","","","","key","f","16.666964601769898","853.3333333333334","529.3333333333334","f","true","img/C_ambi40.png","坏人","prac_simultaneous",""
"","","","","","html-keyboard-response","130","243631","0.0-11.0-0.0-1.10","null","<span style='color:GreenYellow; font-size: 70px;'>正确! </span>","null","","","","","","","","","","","","","","","","","","","","","","","feedback_test"
"","","","","","psychophysics","131","245377","0.0-11.0-0.0-0.11","745","","j","","","","","","","","","","","","","key","j","16.66646153846159","853.3333333333334","529.3333333333334","j","true","img/C_ambi40.png","常人","prac_simultaneous",""
"","","","","","html-keyboard-response","132","245685","0.0-11.0-0.0-1.11","null","<span style='color:GreenYellow; font-size: 70px;'>正确! </span>","null","","","","","","","","","","","","","","","","","","","","","","","feedback_test"
"","","","","","psychophysics","133","247642","0.0-11.0-0.0-0.12","943","","j","","","","","","","","","","","","","key","j","16.666620689655247","853.3333333333334","529.3333333333334","j","true","img/S_ambi40.png","坏人","prac_simultaneous",""
"","","","","","html-keyboard-response","134","247950","0.0-11.0-0.0-1.12","null","<span style='color:GreenYellow; font-size: 70px;'>正确! </span>","null","","","","","","","","","","","","","","","","","","","","","","","feedback_test"
"","","","","","psychophysics","135","249689","0.0-11.0-0.0-0.13","726","","f","","","","","","","","","","","","","key","f","16.666621359223125","853.3333333333334","529.3333333333334","f","true","img/S_ambi40.png","好人","prac_simultaneous",""
"","","","","","html-keyboard-response","136","250007","0.0-11.0-0.0-1.13","null","<span style='color:GreenYellow; font-size: 70px;'>正确! </span>","null","","","","","","","","","","","","","","","","","","","","","","","feedback_test"
"","","","","","psychophysics","137","251687","0.0-11.0-0.0-0.14","671","","f","","","","","","","","","","","","","key","f","16.66671000000002","853.3333333333334","529.3333333333334","f","true","img/C_ambi40.png","坏人","prac_simultaneous",""
"","","","","","html-keyboard-response","138","252007","0.0-11.0-0.0-1.14","null","<span style='color:GreenYellow; font-size: 70px;'>正确! </span>","null","","","","","","","","","","","","","","","","","","","","","","","feedback_test"
"","","","","","psychophysics","139","253777","0.0-11.0-0.0-0.15","762","","j","","","","","","","","","","","","","key","j","16.66660000000016","853.3333333333334","529.3333333333334","j","true","img/C_ambi40.png","好人","prac_simultaneous",""
"","","","","","html-keyboard-response","140","254089","0.0-11.0-0.0-1.15","null","<span style='color:GreenYellow; font-size: 70px;'>正确! </span>","null","","","","","","","","","","","","","","","","","","","","","","","feedback_test"
"","","","","","psychophysics","141","256010","0.0-11.0-0.0-0.16","916","","f","","","","","","","","","","","","","key","f","16.666456140350835","853.3333333333334","529.3333333333334","f","true","img/S_ambi40.png","好人","prac_simultaneous",""
"","","","","","html-keyboard-response","142","256327","0.0-11.0-0.0-1.16","null","<span style='color:GreenYellow; font-size: 70px;'>正确! </span>","null","","","","","","","","","","","","","","","","","","","","","","","feedback_test"
"","","","","","psychophysics","143","258132","0.0-11.0-0.0-0.17","800","","f","","","","","","","","","","","","","key","f","16.66688785046746","853.3333333333334","529.3333333333334","j","false","img/T_ambi40.png","坏人","prac_simultaneous",""
"","","","","","html-keyboard-response","144","258449","0.0-11.0-0.0-1.17","null","<span style='color:red; font-size: 70px;'>错误! </span>","null","","","","","","","","","","","","","","","","","","","","","","","feedback_test"
"","","","","","psychophysics","145","260220","0.0-11.0-0.0-0.18","771","","j","","","","","","","","","","","","","key","j","16.666933333333247","853.3333333333334","529.3333333333334","f","false","img/C_ambi40.png","坏人","prac_simultaneous",""
"","","","","","html-keyboard-response","146","260526","0.0-11.0-0.0-1.18","null","<span style='color:red; font-size: 70px;'>错误! </span>","null","","","","","","","","","","","","","","","","","","","","","","","feedback_test"
"","","","","","psychophysics","147","262293","0.0-11.0-0.0-0.19","761","","j","","","","","","","","","","","","","key","j","16.66643809523805","853.3333333333334","529.3333333333334","j","true","img/C_ambi40.png","常人","prac_simultaneous",""
"","","","","","html-keyboard-response","148","262602","0.0-11.0-0.0-1.19","null","<span style='color:GreenYellow; font-size: 70px;'>正确! </span>","null","","","","","","","","","","","","","","","","","","","","","","","feedback_test"
"","","","","","psychophysics","149","264326","0.0-11.0-0.0-0.20","710","","f","","","","","","","","","","","","","key","f","16.66670588235252","853.3333333333334","529.3333333333334","f","true","img/T_ambi40.png","常人","prac_simultaneous",""
"","","","","","html-keyboard-response","150","264635","0.0-11.0-0.0-1.20","null","<span style='color:GreenYellow; font-size: 70px;'>正确! </span>","null","","","","","","","","","","","","","","","","","","","","","","","feedback_test"
"","","","","","psychophysics","151","266458","0.0-11.0-0.0-0.21","809","","j","","","","","","","","","","","","","key","j","16.666305555555113","853.3333333333334","529.3333333333334","j","true","img/T_ambi40.png","好人","prac_simultaneous",""
"","","","","","html-keyboard-response","152","266777","0.0-11.0-0.0-1.21","null","<span style='color:GreenYellow; font-size: 70px;'>正确! </span>","null","","","","","","","","","","","","","","","","","","","","","","","feedback_test"
"","","","","","psychophysics","153","268607","0.0-11.0-0.0-0.22","825","","f","","","","","","","","","","","","","key","f","16.666385321100904","853.3333333333334","529.3333333333334","j","false","img/S_ambi40.png","常人","prac_simultaneous",""
"","","","","","html-keyboard-response","154","268923","0.0-11.0-0.0-1.22","null","<span style='color:red; font-size: 70px;'>错误! </span>","null","","","","","","","","","","","","","","","","","","","","","","","feedback_test"
"","","","","","psychophysics","155","270791","0.0-11.0-0.0-0.23","859","","f","","","","","","","","","","","","","key","f","16.666765765765753","853.3333333333334","529.3333333333334","f","true","img/T_ambi40.png","常人","prac_simultaneous",""
"","","","","","html-keyboard-response","156","271106","0.0-11.0-0.0-1.23","null","<span style='color:GreenYellow; font-size: 70px;'>正确! </span>","null","","","","","","","","","","","","","","","","","","","","","","","feedback_test"
"","","","","","html-keyboard-response","157","277233","0.0-12.0","6126","<style>.context{color:white; font-size: 35px; line-height:40px}</style>                              <div><p class='context'>您正确回答了75% 的试次。</p><p class='context'>您的平均反应时为841毫秒。</p><p class='context'>恭喜您完成练习。按任意键进入正式实验。</p><p class='footer' style='font-size: 35px; line-height:40px;'>请在进入正式实验实验之前将您的<span style='color: lightgreen;'>食指</span>放在电脑键盘的相应键位上进行按键。</p>"," ","","","","","","","","","","","","","","","","","","","","","","",""
"","","","","","html-keyboard-response","158","279282","0.0-13.0-1.0-0.0","2046","
      <p>请您将手指放在按键上，准备进入呈现顺序为<span style='color: yellow;'>先文字后图形条件</span>的正式匹配任务</p>
      <p> <div style = ""color: green""><按任意键进入下一阶段的匹配任务></div></p>
      "," ","","","","","","","","","","","","","","","","","","","","","","",""
"","","","","","psychophysics","159","281392","0.0-13.0-1.0-1.0-0.0-0.0","944","","j","","","","","","","","","","","","","key","j","16.66643200000003","853.3333333333334","529.3333333333334","f","false","img/C_ambi40.png","坏人","word_first",""
"","","","","","html-keyboard-response","160","281709","0.0-13.0-1.0-1.0-0.0-1.0","null","<span style='color:red; font-size: 70px;'>错误! </span>","null","","","","","","","","","","","","","","","","","","","","","","","feedback_test"
"","","","","","psychophysics","161","283523","0.0-13.0-1.0-1.0-0.0-0.1","657","","f","","","","","","","","","","","","","key","f","16.667416666666718","853.3333333333334","529.3333333333334","f","true","img/S_ambi40.png","好人","word_first",""
"","","","","","html-keyboard-response","162","283838","0.0-13.0-1.0-1.0-0.0-1.1","null","<span style='color:GreenYellow; font-size: 70px;'>正确! </span>","null","","","","","","","","","","","","","","","","","","","","","","","feedback_test"
"","","","","","psychophysics","163","285907","0.0-13.0-1.0-1.0-0.0-0.2","908","","f","","","","","","","","","","","","","key","f","16.666642276422554","853.3333333333334","529.3333333333334","f","true","img/T_ambi40.png","常人","word_first",""
"","","","","","html-keyboard-response","164","286216","0.0-13.0-1.0-1.0-0.0-1.2","null","<span style='color:GreenYellow; font-size: 70px;'>正确! </span>","null","","","","","","","","","","","","","","","","","","","","","","","feedback_test"
"","","","","","psychophysics","165","288126","0.0-13.0-1.0-1.0-0.0-0.3","744","","j","","","","","","","","","","","","","key","j","16.66639823008811","853.3333333333334","529.3333333333334","j","true","img/C_ambi40.png","好人","word_first",""
"","","","","","html-keyboard-response","166","288450","0.0-13.0-1.0-1.0-0.0-1.3","null","<span style='color:GreenYellow; font-size: 70px;'>正确! </span>","null","","","","","","","","","","","","","","","","","","","","","","","feedback_test"
"","","","","","psychophysics","167","290430","0.0-13.0-1.0-1.0-0.0-0.4","824","","f","","","","","","","","","","","","","key","f","16.666675213675124","853.3333333333334","529.3333333333334","f","true","img/C_ambi40.png","坏人","word_first",""
"","","","","","html-keyboard-response","168","290744","0.0-13.0-1.0-1.0-0.0-1.4","null","<span style='color:GreenYellow; font-size: 70px;'>正确! </span>","null","","","","","","","","","","","","","","","","","","","","","","","feedback_test"
"","","","","","psychophysics","169","292665","0.0-13.0-1.0-1.0-0.0-0.5","766","","j","","","","","","","","","","","","","key","j","16.666289473684166","853.3333333333334","529.3333333333334","j","true","img/T_ambi40.png","好人","word_first",""
"","","","","","html-keyboard-response","170","292976","0.0-13.0-1.0-1.0-0.0-1.5","null","<span style='color:GreenYellow; font-size: 70px;'>正确! </span>","null","","","","","","","","","","","","","","","","","","","","","","","feedback_test"
"","","","","","psychophysics","171","294705","0.0-13.0-1.0-1.0-0.0-0.6","573","","j","","","","","","","","","","","","","key","j","16.66662135922341","853.3333333333334","529.3333333333334","j","true","img/S_ambi40.png","常人","word_first",""
"","","","","","html-keyboard-response","172","295020","0.0-13.0-1.0-1.0-0.0-1.6","null","<span style='color:GreenYellow; font-size: 70px;'>正确! </span>","null","","","","","","","","","","","","","","","","","","","","","","","feedback_test"
"","","","","","psychophysics","173","296912","0.0-13.0-1.0-1.0-0.0-0.7","731","","j","","","","","","","","","","","","","key","j","16.66656250000025","853.3333333333334","529.3333333333334","j","true","img/T_ambi40.png","坏人","word_first",""
"","","","","","html-keyboard-response","174","297220","0.0-13.0-1.0-1.0-0.0-1.7","null","<span style='color:GreenYellow; font-size: 70px;'>正确! </span>","null","","","","","","","","","","","","","","","","","","","","","","","feedback_test"
"","","","","","psychophysics","175","299007","0.0-13.0-1.0-1.0-0.0-0.8","625","","j","","","","","","","","","","","","","key","j","16.666669811320904","853.3333333333334","529.3333333333334","j","true","img/C_ambi40.png","常人","word_first",""
"","","","","","html-keyboard-response","176","299325","0.0-13.0-1.0-1.0-0.0-1.8","null","<span style='color:GreenYellow; font-size: 70px;'>正确! </span>","null","","","","","","","","","","","","","","","","","","","","","","","feedback_test"
"","","","","","psychophysics","177","301184","0.0-13.0-1.0-1.0-0.0-0.9","703","","f","","","","","","","","","","","","","key","f","16.667009009009014","853.3333333333334","529.3333333333334","f","true","img/S_ambi40.png","好人","word_first",""
"","","","","","html-keyboard-response","178","301495","0.0-13.0-1.0-1.0-0.0-1.9","null","<span style='color:GreenYellow; font-size: 70px;'>正确! </span>","null","","","","","","","","","","","","","","","","","","","","","","","feedback_test"
"","","","","","psychophysics","179","303563","0.0-13.0-1.0-1.0-0.0-0.10","915","","f","","","","","","","","","","","","","key","f","16.66703252032507","853.3333333333334","529.3333333333334","f","true","img/T_ambi40.png","常人","word_first",""
"","","","","","html-keyboard-response","180","303878","0.0-13.0-1.0-1.0-0.0-1.10","null","<span style='color:GreenYellow; font-size: 70px;'>正确! </span>","null","","","","","","","","","","","","","","","","","","","","","","","feedback_test"
"","","","","","psychophysics","181","305751","0.0-13.0-1.0-1.0-0.0-0.11","719","","f","","","","","","","","","","","","","key","f","16.66669642857128","853.3333333333334","529.3333333333334","j","false","img/S_ambi40.png","坏人","word_first",""
"","","","","","html-keyboard-response","182","306064","0.0-13.0-1.0-1.0-0.0-1.11","null","<span style='color:red; font-size: 70px;'>错误! </span>","null","","","","","","","","","","","","","","","","","","","","","","","feedback_test"
"","","","","","psychophysics","183","307911","0.0-13.0-1.0-1.0-0.0-0.12","696","","f","","","","","","","","","","","","","key","f","16.547954128439958","853.3333333333334","529.3333333333334","f","true","img/C_ambi40.png","坏人","word_first",""
"","","","","","html-keyboard-response","184","308233","0.0-13.0-1.0-1.0-0.0-1.12","null","<span style='color:GreenYellow; font-size: 70px;'>正确! </span>","null","","","","","","","","","","","","","","","","","","","","","","","feedback_test"
"","","","","","psychophysics","185","309976","0.0-13.0-1.0-1.0-0.0-0.13","588","","j","","","","","","","","","","","","","key","j","16.666980582523923","853.3333333333334","529.3333333333334","j","true","img/C_ambi40.png","常人","word_first",""
"","","","","","html-keyboard-response","186","310282","0.0-13.0-1.0-1.0-0.0-1.13","null","<span style='color:GreenYellow; font-size: 70px;'>正确! </span>","null","","","","","","","","","","","","","","","","","","","","","","","feedback_test"
"","","","","","psychophysics","187","312212","0.0-13.0-1.0-1.0-0.0-0.14","778","","f","","","","","","","","","","","","","key","f","16.666631578947232","853.3333333333334","529.3333333333334","f","true","img/T_ambi40.png","常人","word_first",""
"","","","","","html-keyboard-response","188","312528","0.0-13.0-1.0-1.0-0.0-1.14","null","<span style='color:GreenYellow; font-size: 70px;'>正确! </span>","null","","","","","","","","","","","","","","","","","","","","","","","feedback_test"
"","","","","","psychophysics","189","314615","0.0-13.0-1.0-1.0-0.0-0.15","933","","j","","","","","","","","","","","","","key","j","16.666862903226207","853.3333333333334","529.3333333333334","j","true","img/S_ambi40.png","常人","word_first",""
"","","","","","html-keyboard-response","190","314929","0.0-13.0-1.0-1.0-0.0-1.15","null","<span style='color:GreenYellow; font-size: 70px;'>正确! </span>","null","","","","","","","","","","","","","","","","","","","","","","","feedback_test"
"","","","","","psychophysics","191","316913","0.0-13.0-1.0-1.0-0.0-0.16","832","","j","","","","","","","","","","","","","key","j","16.66651694915234","853.3333333333334","529.3333333333334","j","true","img/S_ambi40.png","坏人","word_first",""
"","","","","","html-keyboard-response","192","317234","0.0-13.0-1.0-1.0-0.0-1.16","null","<span style='color:GreenYellow; font-size: 70px;'>正确! </span>","null","","","","","","","","","","","","","","","","","","","","","","","feedback_test"
"","","","","","psychophysics","193","319014","0.0-13.0-1.0-1.0-0.0-0.17","620","","f","","","","","","","","","","","","","key","f","16.666580952380762","853.3333333333334","529.3333333333334","f","true","img/C_ambi40.png","坏人","word_first",""
"","","","","","html-keyboard-response","194","319333","0.0-13.0-1.0-1.0-0.0-1.17","null","<span style='color:GreenYellow; font-size: 70px;'>正确! </span>","null","","","","","","","","","","","","","","","","","","","","","","","feedback_test"
"","","","","","psychophysics","195","321188","0.0-13.0-1.0-1.0-0.0-0.18","690","","f","","","","","","","","","","","","","key","f","16.6666545454545","853.3333333333334","529.3333333333334","f","true","img/S_ambi40.png","好人","word_first",""
"","","","","","html-keyboard-response","196","321502","0.0-13.0-1.0-1.0-0.0-1.18","null","<span style='color:GreenYellow; font-size: 70px;'>正确! </span>","null","","","","","","","","","","","","","","","","","","","","","","","feedback_test"
"","","","","","psychophysics","197","323388","0.0-13.0-1.0-1.0-0.0-0.19","724","","f","","","","","","","","","","","","","key","f","16.666723214285803","853.3333333333334","529.3333333333334","f","true","img/T_ambi40.png","常人","word_first",""
"","","","","","html-keyboard-response","198","323694","0.0-13.0-1.0-1.0-0.0-1.19","null","<span style='color:GreenYellow; font-size: 70px;'>正确! </span>","null","","","","","","","","","","","","","","","","","","","","","","","feedback_test"
"","","","","","psychophysics","199","325769","0.0-13.0-1.0-1.0-0.0-0.20","921","","j","","","","","","","","","","","","","key","j","16.66708064516124","853.3333333333334","529.3333333333334","f","false","img/S_ambi40.png","好人","word_first",""
"","","","","","html-keyboard-response","200","326083","0.0-13.0-1.0-1.0-0.0-1.20","null","<span style='color:red; font-size: 70px;'>错误! </span>","null","","","","","","","","","","","","","","","","","","","","","","","feedback_test"
"","","","","","psychophysics","201","328353","0.0-13.0-1.0-1.0-0.0-0.21","1111","","f","","","","","","","","","","","","","key","f","16.666711111111066","853.3333333333334","529.3333333333334","j","false","img/T_ambi40.png","好人","word_first",""
"","","","","","html-keyboard-response","202","328665","0.0-13.0-1.0-1.0-0.0-1.21","null","<span style='color:red; font-size: 70px;'>错误! </span>","null","","","","","","","","","","","","","","","","","","","","","","","feedback_test"
"","","","","","psychophysics","203","330527","0.0-13.0-1.0-1.0-0.0-0.22","712","","j","","","","","","","","","","","","","key","j","16.666381818181517","853.3333333333334","529.3333333333334","j","true","img/T_ambi40.png","坏人","word_first",""
"","","","","","html-keyboard-response","204","330848","0.0-13.0-1.0-1.0-0.0-1.22","null","<span style='color:GreenYellow; font-size: 70px;'>正确! </span>","null","","","","","","","","","","","","","","","","","","","","","","","feedback_test"
"","","","","","psychophysics","205","332750","0.0-13.0-1.0-1.0-0.0-0.23","752","","j","","","","","","","","","","","","","key","j","16.666663716814018","853.3333333333334","529.3333333333334","j","true","img/C_ambi40.png","好人","word_first",""
"","","","","","html-keyboard-response","206","333062","0.0-13.0-1.0-1.0-0.0-1.23","null","<span style='color:GreenYellow; font-size: 70px;'>正确! </span>","null","","","","","","","","","","","","","","","","","","","","","","","feedback_test"
"","","","","","psychophysics","207","335132","0.0-13.0-1.0-1.0-0.0-0.24","917","","j","","","","","","","","","","","","","key","j","16.666403225806143","853.3333333333334","529.3333333333334","j","true","img/T_ambi40.png","坏人","word_first",""
"","","","","","html-keyboard-response","208","335450","0.0-13.0-1.0-1.0-0.0-1.24","null","<span style='color:GreenYellow; font-size: 70px;'>正确! </span>","null","","","","","","","","","","","","","","","","","","","","","","","feedback_test"
"","","","","","psychophysics","209","337318","0.0-13.0-1.0-1.0-0.0-0.25","710","","j","","","","","","","","","","","","","key","j","16.666837837837576","853.3333333333334","529.3333333333334","j","true","img/S_ambi40.png","坏人","word_first",""
"","","","","","html-keyboard-response","210","337640","0.0-13.0-1.0-1.0-0.0-1.25","null","<span style='color:GreenYellow; font-size: 70px;'>正确! </span>","null","","","","","","","","","","","","","","","","","","","","","","","feedback_test"
"","","","","","psychophysics","211","339445","0.0-13.0-1.0-1.0-0.0-0.26","647","","f","","","","","","","","","","","","","key","f","16.666757009345734","853.3333333333334","529.3333333333334","f","true","img/T_ambi40.png","常人","word_first",""
"","","","","","html-keyboard-response","212","339757","0.0-13.0-1.0-1.0-0.0-1.26","null","<span style='color:GreenYellow; font-size: 70px;'>正确! </span>","null","","","","","","","","","","","","","","","","","","","","","","","feedback_test"
"","","","","","psychophysics","213","341577","0.0-13.0-1.0-1.0-0.0-0.27","662","","f","","","","","","","","","","","","","key","f","16.666564814814826","853.3333333333334","529.3333333333334","j","false","img/C_ambi40.png","好人","word_first",""
"","","","","","html-keyboard-response","214","341897","0.0-13.0-1.0-1.0-0.0-1.27","null","<span style='color:red; font-size: 70px;'>错误! </span>","null","","","","","","","","","","","","","","","","","","","","","","","feedback_test"
"","","","","","psychophysics","215","343855","0.0-13.0-1.0-1.0-0.0-0.28","808","","f","","","","","","","","","","","","","key","f","16.55026724137936","853.3333333333334","529.3333333333334","f","true","img/S_ambi40.png","好人","word_first",""
"","","","","","html-keyboard-response","216","344173","0.0-13.0-1.0-1.0-0.0-1.28","null","<span style='color:GreenYellow; font-size: 70px;'>正确! </span>","null","","","","","","","","","","","","","","","","","","","","","","","feedback_test"
"","","","","","psychophysics","217","345878","0.0-13.0-1.0-1.0-0.0-0.29","547","","f","","","","","","","","","","","","","key","f","16.666752475247566","853.3333333333334","529.3333333333334","f","true","img/T_ambi40.png","常人","word_first",""
"","","","","","html-keyboard-response","218","346188","0.0-13.0-1.0-1.0-0.0-1.29","null","<span style='color:GreenYellow; font-size: 70px;'>正确! </span>","null","","","","","","","","","","","","","","","","","","","","","","","feedback_test"
"","","","","","psychophysics","219","348053","0.0-13.0-1.0-1.0-0.0-0.30","705","","f","","","","","","","","","","","","","key","f","16.666657657657755","853.3333333333334","529.3333333333334","f","true","img/S_ambi40.png","好人","word_first",""
"","","","","","html-keyboard-response","220","348362","0.0-13.0-1.0-1.0-0.0-1.30","null","<span style='color:GreenYellow; font-size: 70px;'>正确! </span>","null","","","","","","","","","","","","","","","","","","","","","","","feedback_test"
"","","","","","psychophysics","221","350072","0.0-13.0-1.0-1.0-0.0-0.31","558","","f","","","","","","","","","","","","","key","f","16.666666666666668","853.3333333333334","529.3333333333334","f","true","img/C_ambi40.png","坏人","word_first",""
"","","","","","html-keyboard-response","222","350375","0.0-13.0-1.0-1.0-0.0-1.31","null","<span style='color:GreenYellow; font-size: 70px;'>正确! </span>","null","","","","","","","","","","","","","","","","","","","","","","","feedback_test"
"","","","","","psychophysics","223","352460","0.0-13.0-1.0-1.0-0.0-0.32","929","","j","","","","","","","","","","","","","key","j","16.666532258064233","853.3333333333334","529.3333333333334","j","true","img/C_ambi40.png","常人","word_first",""
"","","","","","html-keyboard-response","224","352774","0.0-13.0-1.0-1.0-0.0-1.32","null","<span style='color:GreenYellow; font-size: 70px;'>正确! </span>","null","","","","","","","","","","","","","","","","","","","","","","","feedback_test"
"","","","","","psychophysics","225","354429","0.0-13.0-1.0-1.0-0.0-0.33","498","","f","","","","","","","","","","","","","key","f","16.66648979591828","853.3333333333334","529.3333333333334","f","true","img/C_ambi40.png","坏人","word_first",""
"","","","","","html-keyboard-response","226","354738","0.0-13.0-1.0-1.0-0.0-1.33","null","<span style='color:GreenYellow; font-size: 70px;'>正确! </span>","null","","","","","","","","","","","","","","","","","","","","","","","feedback_test"
"","","","","","psychophysics","227","356634","0.0-13.0-1.0-1.0-0.0-0.34","737","","j","","","","","","","","","","","","","key","j","16.665539823008384","853.3333333333334","529.3333333333334","j","true","img/T_ambi40.png","好人","word_first",""
"","","","","","html-keyboard-response","228","356950","0.0-13.0-1.0-1.0-0.0-1.34","null","<span style='color:GreenYellow; font-size: 70px;'>正确! </span>","null","","","","","","","","","","","","","","","","","","","","","","","feedback_test"
"","","","","","psychophysics","229","358831","0.0-13.0-1.0-1.0-0.0-0.35","722","","j","","","","","","","","","","","","","key","j","16.666696428571804","853.3333333333334","529.3333333333334","j","true","img/S_ambi40.png","常人","word_first",""
"","","","","","html-keyboard-response","230","359139","0.0-13.0-1.0-1.0-0.0-1.35","null","<span style='color:GreenYellow; font-size: 70px;'>正确! </span>","null","","","","","","","","","","","","","","","","","","","","","","","feedback_test"
"","","","","","psychophysics","231","361046","0.0-13.0-1.0-1.0-0.0-0.36","754","","f","","","","","","","","","","","","","key","f","16.667070796459797","853.3333333333334","529.3333333333334","f","true","img/T_ambi40.png","常人","word_first",""
"","","","","","html-keyboard-response","232","361368","0.0-13.0-1.0-1.0-0.0-1.36","null","<span style='color:GreenYellow; font-size: 70px;'>正确! </span>","null","","","","","","","","","","","","","","","","","","","","","","","feedback_test"
"","","","","","psychophysics","233","363297","0.0-13.0-1.0-1.0-0.0-0.37","774","","f","","","","","","","","","","","","","key","f","16.666280701754435","853.3333333333334","529.3333333333334","f","true","img/S_ambi40.png","好人","word_first",""
"","","","","","html-keyboard-response","234","363605","0.0-13.0-1.0-1.0-0.0-1.37","null","<span style='color:GreenYellow; font-size: 70px;'>正确! </span>","null","","","","","","","","","","","","","","","","","","","","","","","feedback_test"
"","","","","","psychophysics","235","365450","0.0-13.0-1.0-1.0-0.0-0.38","686","","j","","","","","","","","","","","","","key","j","16.66660000000001","853.3333333333334","529.3333333333334","j","true","img/C_ambi40.png","常人","word_first",""
"","","","","","html-keyboard-response","236","365768","0.0-13.0-1.0-1.0-0.0-1.38","null","<span style='color:GreenYellow; font-size: 70px;'>正确! </span>","null","","","","","","","","","","","","","","","","","","","","","","","feedback_test"
"","","","","","psychophysics","237","367795","0.0-13.0-1.0-1.0-0.0-0.39","864","","f","","","","","","","","","","","","","key","f","16.666683333333154","853.3333333333334","529.3333333333334","j","false","img/C_ambi40.png","好人","word_first",""
"","","","","","html-keyboard-response","238","368105","0.0-13.0-1.0-1.0-0.0-1.39","null","<span style='color:red; font-size: 70px;'>错误! </span>","null","","","","","","","","","","","","","","","","","","","","","","","feedback_test"
"","","","","","psychophysics","239","370093","0.0-13.0-1.0-1.0-0.0-0.40","832","","j","","","","","","","","","","","","","key","j","16.666559322034225","853.3333333333334","529.3333333333334","j","true","img/S_ambi40.png","坏人","word_first",""
"","","","","","html-keyboard-response","240","370400","0.0-13.0-1.0-1.0-0.0-1.40","null","<span style='color:GreenYellow; font-size: 70px;'>正确! </span>","null","","","","","","","","","","","","","","","","","","","","","","","feedback_test"
"","","","","","psychophysics","241","372172","0.0-13.0-1.0-1.0-0.0-0.41","617","","j","","","","","","","","","","","","","key","j","16.666647619047822","853.3333333333334","529.3333333333334","j","true","img/S_ambi40.png","常人","word_first",""
"","","","","","html-keyboard-response","242","372489","0.0-13.0-1.0-1.0-0.0-1.41","null","<span style='color:GreenYellow; font-size: 70px;'>正确! </span>","null","","","","","","","","","","","","","","","","","","","","","","","feedback_test"
"","","","","","psychophysics","243","374326","0.0-13.0-1.0-1.0-0.0-0.42","682","","f","","","","","","","","","","","","","key","f","16.666788990825623","853.3333333333334","529.3333333333334","f","true","img/S_ambi40.png","好人","word_first",""
"","","","","","html-keyboard-response","244","374640","0.0-13.0-1.0-1.0-0.0-1.42","null","<span style='color:GreenYellow; font-size: 70px;'>正确! </span>","null","","","","","","","","","","","","","","","","","","","","","","","feedback_test"
"","","","","","psychophysics","245","376380","0.0-13.0-1.0-1.0-0.0-0.43","583","","f","","","","","","","","","","","","","key","f","16.66749514563086","853.3333333333334","529.3333333333334","f","true","img/C_ambi40.png","坏人","word_first",""
"","","","","","html-keyboard-response","246","376693","0.0-13.0-1.0-1.0-0.0-1.43","null","<span style='color:GreenYellow; font-size: 70px;'>正确! </span>","null","","","","","","","","","","","","","","","","","","","","","","","feedback_test"
"","","","","","psychophysics","247","378722","0.0-13.0-1.0-1.0-0.0-0.44","875","","j","","","","","","","","","","","","","key","j","16.66643801652913","853.3333333333334","529.3333333333334","j","true","img/T_ambi40.png","坏人","word_first",""
"","","","","","html-keyboard-response","248","379038","0.0-13.0-1.0-1.0-0.0-1.44","null","<span style='color:GreenYellow; font-size: 70px;'>正确! </span>","null","","","","","","","","","","","","","","","","","","","","","","","feedback_test"
"","","","","","psychophysics","249","381169","0.0-13.0-1.0-1.0-0.0-0.45","972","","j","","","","","","","","","","","","","key","j","16.66670078740182","853.3333333333334","529.3333333333334","f","false","img/C_ambi40.png","坏人","word_first",""
"","","","","","html-keyboard-response","250","381477","0.0-13.0-1.0-1.0-0.0-1.45","null","<span style='color:red; font-size: 70px;'>错误! </span>","null","","","","","","","","","","","","","","","","","","","","","","","feedback_test"
"","","","","","psychophysics","251","383263","0.0-13.0-1.0-1.0-0.0-0.46","633","","f","","","","","","","","","","","","","key","f","16.66652830188681","853.3333333333334","529.3333333333334","f","true","img/T_ambi40.png","常人","word_first",""
"","","","","","html-keyboard-response","252","383582","0.0-13.0-1.0-1.0-0.0-1.46","null","<span style='color:GreenYellow; font-size: 70px;'>正确! </span>","null","","","","","","","","","","","","","","","","","","","","","","","feedback_test"
"","","","","","psychophysics","253","385598","0.0-13.0-1.0-1.0-0.0-0.47","850","","j","","","","","","","","","","","","","key","j","16.666716666666616","853.3333333333334","529.3333333333334","j","true","img/T_ambi40.png","好人","word_first",""
"","","","","","html-keyboard-response","254","385918","0.0-13.0-1.0-1.0-0.0-1.47","null","<span style='color:GreenYellow; font-size: 70px;'>正确! </span>","null","","","","","","","","","","","","","","","","","","","","","","","feedback_test"
"","","","","","psychophysics","255","387774","0.0-13.0-1.0-1.0-0.0-0.48","694","","f","","","","","","","","","","","","","key","f","16.66689999999997","853.3333333333334","529.3333333333334","f","true","img/C_ambi40.png","坏人","word_first",""
"","","","","","html-keyboard-response","256","388091","0.0-13.0-1.0-1.0-0.0-1.48","null","<span style='color:GreenYellow; font-size: 70px;'>正确! </span>","null","","","","","","","","","","","","","","","","","","","","","","","feedback_test"
"","","","","","psychophysics","257","390094","0.0-13.0-1.0-1.0-0.0-0.49","847","","f","","","","","","","","","","","","","key","f","16.666352941176733","853.3333333333334","529.3333333333334","f","true","img/T_ambi40.png","常人","word_first",""
"","","","","","html-keyboard-response","258","390415","0.0-13.0-1.0-1.0-0.0-1.49","null","<span style='color:GreenYellow; font-size: 70px;'>正确! </span>","null","","","","","","","","","","","","","","","","","","","","","","","feedback_test"
"","","","","","psychophysics","259","392352","0.0-13.0-1.0-1.0-0.0-0.50","780","","f","","","","","","","","","","","","","key","f","16.666460869565565","853.3333333333334","529.3333333333334","j","false","img/T_ambi40.png","好人","word_first",""
"","","","","","html-keyboard-response","260","392666","0.0-13.0-1.0-1.0-0.0-1.50","null","<span style='color:red; font-size: 70px;'>错误! </span>","null","","","","","","","","","","","","","","","","","","","","","","","feedback_test"
"","","","","","psychophysics","261","394669","0.0-13.0-1.0-1.0-0.0-0.51","841","","j","","","","","","","","","","","","","key","j","16.66634453781499","853.3333333333334","529.3333333333334","j","true","img/C_ambi40.png","好人","word_first",""
"","","","","","html-keyboard-response","262","394971","0.0-13.0-1.0-1.0-0.0-1.51","null","<span style='color:GreenYellow; font-size: 70px;'>正确! </span>","null","","","","","","","","","","","","","","","","","","","","","","","feedback_test"
"","","","","","psychophysics","263","396815","0.0-13.0-1.0-1.0-0.0-0.52","687","","j","","","","","","","","","","","","","key","j","16.666836363636488","853.3333333333334","529.3333333333334","j","true","img/T_ambi40.png","坏人","word_first",""
"","","","","","html-keyboard-response","264","397130","0.0-13.0-1.0-1.0-0.0-1.52","null","<span style='color:GreenYellow; font-size: 70px;'>正确! </span>","null","","","","","","","","","","","","","","","","","","","","","","","feedback_test"
"","","","","","psychophysics","265","399080","0.0-13.0-1.0-1.0-0.0-0.53","799","","f","","","","","","","","","","","","","key","f","16.537704347826175","853.3333333333334","529.3333333333334","f","true","img/T_ambi40.png","常人","word_first",""
"","","","","","html-keyboard-response","266","399388","0.0-13.0-1.0-1.0-0.0-1.53","null","<span style='color:GreenYellow; font-size: 70px;'>正确! </span>","null","","","","","","","","","","","","","","","","","","","","","","","feedback_test"
"","","","","","psychophysics","267","401272","0.0-13.0-1.0-1.0-0.0-0.54","725","","f","","","","","","","","","","","","","key","f","16.66690178571402","853.3333333333334","529.3333333333334","f","true","img/S_ambi40.png","好人","word_first",""
"","","","","","html-keyboard-response","268","401588","0.0-13.0-1.0-1.0-0.0-1.54","null","<span style='color:GreenYellow; font-size: 70px;'>正确! </span>","null","","","","","","","","","","","","","","","","","","","","","","","feedback_test"
"","","","","","psychophysics","269","403515","0.0-13.0-1.0-1.0-0.0-0.55","768","","f","","","","","","","","","","","","","key","f","16.666904347825735","853.3333333333334","529.3333333333334","f","true","img/C_ambi40.png","坏人","word_first",""
"","","","","","html-keyboard-response","270","403833","0.0-13.0-1.0-1.0-0.0-1.55","null","<span style='color:GreenYellow; font-size: 70px;'>正确! </span>","null","","","","","","","","","","","","","","","","","","","","","","","feedback_test"
"","","","","","psychophysics","271","405625","0.0-13.0-1.0-1.0-0.0-0.56","639","","j","","","","","","","","","","","","","key","j","16.66690566037718","853.3333333333334","529.3333333333334","j","true","img/S_ambi40.png","常人","word_first",""
"","","","","","html-keyboard-response","272","405936","0.0-13.0-1.0-1.0-0.0-1.56","null","<span style='color:GreenYellow; font-size: 70px;'>正确! </span>","null","","","","","","","","","","","","","","","","","","","","","","","feedback_test"
"","","","","","psychophysics","273","408333","0.0-13.0-1.0-1.0-0.0-0.57","1236","","j","","","","","","","","","","","","","key","j","16.666307692307736","853.3333333333334","529.3333333333334","j","true","img/C_ambi40.png","常人","word_first",""
"","","","","","html-keyboard-response","274","408643","0.0-13.0-1.0-1.0-0.0-1.57","null","<span style='color:GreenYellow; font-size: 70px;'>正确! </span>","null","","","","","","","","","","","","","","","","","","","","","","","feedback_test"
"","","","","","psychophysics","275","410444","0.0-13.0-1.0-1.0-0.0-0.58","647","","f","","","","","","","","","","","","","key","f","16.666757009345734","853.3333333333334","529.3333333333334","f","true","img/S_ambi40.png","好人","word_first",""
"","","","","","html-keyboard-response","276","410751","0.0-13.0-1.0-1.0-0.0-1.58","null","<span style='color:GreenYellow; font-size: 70px;'>正确! </span>","null","","","","","","","","","","","","","","","","","","","","","","","feedback_test"
"","","","","","psychophysics","277","412940","0.0-13.0-1.0-1.0-0.0-0.59","1034","","j","","","","","","","","","","","","","key","j","16.666515384615362","853.3333333333334","529.3333333333334","j","true","img/S_ambi40.png","坏人","word_first",""
"","","","","","html-keyboard-response","278","413250","0.0-13.0-1.0-1.0-0.0-1.59","null","<span style='color:GreenYellow; font-size: 70px;'>正确! </span>","null","","","","","","","","","","","","","","","","","","","","","","","feedback_test"
"","","","","","html-keyboard-response","279","415541","0.0-13.0-1.0-1.0-1.0","2290","<style>.context{color:white; font-size: 35px; line-height:40px}</style>                              <div><p class='context'>您正确回答了87% 的试次。</p><p class='context'>您的平均反应时为745毫秒。</p><p class='context'>请按任意键进入休息</p></div>"," ","","","","","","","","","","","","","","","","","","","","","","",""
"","","","","","html-button-response","280","428609","0.0-13.0-1.0-1.0-2.0","13066","
                      <p>您当前还剩余3组实验</p>
                      <p>现在是休息时间，当您结束休息后，您可以点击 结束休息 按钮 继续</p>
                      <p>建议休息时间还剩余<span id=""iii"">60</span>秒</p>","0","","","","","","","","","","","","","","","","","","","","","","",""
"","","","","","psychophysics","281","430819","0.0-13.0-1.0-1.0-0.1-0.60","1055","","j","","","","","","","","","","","","","key","j","16.66653030303","853.3333333333334","529.3333333333334","j","true","img/S_ambi40.png","常人","word_first",""
"","","","","","html-keyboard-response","282","431132","0.0-13.0-1.0-1.0-0.1-1.60","null","<span style='color:GreenYellow; font-size: 70px;'>正确! </span>","null","","","","","","","","","","","","","","","","","","","","","","","feedback_test"
"","","","","","psychophysics","283","433065","0.0-13.0-1.0-1.0-0.1-0.61","768","","j","","","","","","","","","","","","","key","j","16.666391304347908","853.3333333333334","529.3333333333334","j","true","img/C_ambi40.png","常人","word_first",""
"","","","","","html-keyboard-response","284","433379","0.0-13.0-1.0-1.0-0.1-1.61","null","<span style='color:GreenYellow; font-size: 70px;'>正确! </span>","null","","","","","","","","","","","","","","","","","","","","","","","feedback_test"
"","","","","","psychophysics","285","435531","0.0-13.0-1.0-1.0-0.1-0.62","1000","","f","","","","","","","","","","","","","key","f","16.667054687499785","853.3333333333334","529.3333333333334","f","true","img/C_ambi40.png","坏人","word_first",""
"","","","","","html-keyboard-response","286","435850","0.0-13.0-1.0-1.0-0.1-1.62","null","<span style='color:GreenYellow; font-size: 70px;'>正确! </span>","null","","","","","","","","","","","","","","","","","","","","","","","feedback_test"
"","","","","","psychophysics","287","437962","0.0-13.0-1.0-1.0-0.1-0.63","959","","j","","","","","","","","","","","","","key","j","16.66671200000029","853.3333333333334","529.3333333333334","j","true","img/T_ambi40.png","坏人","word_first",""
"","","","","","html-keyboard-response","288","438265","0.0-13.0-1.0-1.0-0.1-1.63","null","<span style='color:GreenYellow; font-size: 70px;'>正确! </span>","null","","","","","","","","","","","","","","","","","","","","","","","feedback_test"
"","","","","","psychophysics","289","440235","0.0-13.0-1.0-1.0-0.1-0.64","804","","f","","","","","","","","","","","","","key","f","16.666666666666668","853.3333333333334","529.3333333333334","j","false","img/C_ambi40.png","好人","word_first",""
"","","","","","html-keyboard-response","290","440548","0.0-13.0-1.0-1.0-0.1-1.64","null","<span style='color:red; font-size: 70px;'>错误! </span>","null","","","","","","","","","","","","","","","","","","","","","","","feedback_test"
"","","","","","psychophysics","291","442600","0.0-13.0-1.0-1.0-0.1-0.65","886","","f","","","","","","","","","","","","","key","f","16.666262295081847","853.3333333333334","529.3333333333334","f","true","img/C_ambi40.png","坏人","word_first",""
"","","","","","html-keyboard-response","292","442916","0.0-13.0-1.0-1.0-0.1-1.65","null","<span style='color:GreenYellow; font-size: 70px;'>正确! </span>","null","","","","","","","","","","","","","","","","","","","","","","","feedback_test"
"","","","","","psychophysics","293","444805","0.0-13.0-1.0-1.0-0.1-0.66","732","","f","","","","","","","","","","","","","key","f","16.66637500000018","853.3333333333334","529.3333333333334","f","true","img/S_ambi40.png","好人","word_first",""
"","","","","","html-keyboard-response","294","445120","0.0-13.0-1.0-1.0-0.1-1.66","null","<span style='color:GreenYellow; font-size: 70px;'>正确! </span>","null","","","","","","","","","","","","","","","","","","","","","","","feedback_test"
"","","","","","psychophysics","295","446997","0.0-13.0-1.0-1.0-0.1-0.67","716","","j","","","","","","","","","","","","","key","j","16.66673873873849","853.3333333333334","529.3333333333334","j","true","img/S_ambi40.png","坏人","word_first",""
"","","","","","html-keyboard-response","296","447308","0.0-13.0-1.0-1.0-0.1-1.67","null","<span style='color:GreenYellow; font-size: 70px;'>正确! </span>","null","","","","","","","","","","","","","","","","","","","","","","","feedback_test"
"","","","","","psychophysics","297","449072","0.0-13.0-1.0-1.0-0.1-0.68","612","","f","","","","","","","","","","","","","key","f","16.66719047619041","853.3333333333334","529.3333333333334","f","true","img/T_ambi40.png","常人","word_first",""
"","","","","","html-keyboard-response","298","449391","0.0-13.0-1.0-1.0-0.1-1.68","null","<span style='color:GreenYellow; font-size: 70px;'>正确! </span>","null","","","","","","","","","","","","","","","","","","","","","","","feedback_test"
"","","","","","psychophysics","299","451203","0.0-13.0-1.0-1.0-0.1-0.69","655","","f","","","","","","","","","","","","","key","f","16.666768518518506","853.3333333333334","529.3333333333334","f","true","img/T_ambi40.png","常人","word_first",""
"","","","","","html-keyboard-response","300","451508","0.0-13.0-1.0-1.0-0.1-1.69","null","<span style='color:GreenYellow; font-size: 70px;'>正确! </span>","null","","","","","","","","","","","","","","","","","","","","","","","feedback_test"
"","","","","","psychophysics","301","453554","0.0-13.0-1.0-1.0-0.1-0.70","890","","f","","","","","","","","","","","","","key","f","16.66658196721291","853.3333333333334","529.3333333333334","f","true","img/S_ambi40.png","好人","word_first",""
"","","","","","html-keyboard-response","302","453863","0.0-13.0-1.0-1.0-0.1-1.70","null","<span style='color:GreenYellow; font-size: 70px;'>正确! </span>","null","","","","","","","","","","","","","","","","","","","","","","","feedback_test"
"","","","","","psychophysics","303","456097","0.0-13.0-1.0-1.0-0.1-0.71","1083","","f","","","","","","","","","","","","","key","f","16.57556060606051","853.3333333333334","529.3333333333334","j","false","img/T_ambi40.png","好人","word_first",""
"","","","","","html-keyboard-response","304","456403","0.0-13.0-1.0-1.0-0.1-1.71","null","<span style='color:red; font-size: 70px;'>错误! </span>","null","","","","","","","","","","","","","","","","","","","","","","","feedback_test"
"","","","","","psychophysics","305","458541","0.0-13.0-1.0-1.0-0.1-0.72","980","","j","","","","","","","","","","","","","key","j","16.66671653543315","853.3333333333334","529.3333333333334","j","true","img/S_ambi40.png","常人","word_first",""
"","","","","","html-keyboard-response","306","458845","0.0-13.0-1.0-1.0-0.1-1.72","null","<span style='color:GreenYellow; font-size: 70px;'>正确! </span>","null","","","","","","","","","","","","","","","","","","","","","","","feedback_test"
"","","","","","psychophysics","307","460655","0.0-13.0-1.0-1.0-0.1-0.73","658","","f","","","","","","","","","","","","","key","f","16.666444444444668","853.3333333333334","529.3333333333334","f","true","img/S_ambi40.png","好人","word_first",""
"","","","","","html-keyboard-response","308","460964","0.0-13.0-1.0-1.0-0.1-1.73","null","<span style='color:GreenYellow; font-size: 70px;'>正确! </span>","null","","","","","","","","","","","","","","","","","","","","","","","feedback_test"
"","","","","","psychophysics","309","462885","0.0-13.0-1.0-1.0-0.1-0.74","771","","j","","","","","","","","","","","","","key","j","16.66646491228031","853.3333333333334","529.3333333333334","j","true","img/T_ambi40.png","好人","word_first",""
"","","","","","html-keyboard-response","310","463189","0.0-13.0-1.0-1.0-0.1-1.74","null","<span style='color:GreenYellow; font-size: 70px;'>正确! </span>","null","","","","","","","","","","","","","","","","","","","","","","","feedback_test"
"","","","","","psychophysics","311","465107","0.0-13.0-1.0-1.0-0.1-0.75","760","","f","","","","","","","","","","","","","key","f","16.666614035087772","853.3333333333334","529.3333333333334","f","true","img/T_ambi40.png","常人","word_first",""
"","","","","","html-keyboard-response","312","465414","0.0-13.0-1.0-1.0-0.1-1.75","null","<span style='color:GreenYellow; font-size: 70px;'>正确! </span>","null","","","","","","","","","","","","","","","","","","","","","","","feedback_test"
"","","","","","psychophysics","313","467233","0.0-13.0-1.0-1.0-0.1-0.76","653","","f","","","","","","","","","","","","","key","f","16.66641666666665","853.3333333333334","529.3333333333334","f","true","img/T_ambi40.png","常人","word_first",""
"","","","","","html-keyboard-response","314","467551","0.0-13.0-1.0-1.0-0.1-1.76","null","<span style='color:GreenYellow; font-size: 70px;'>正确! </span>","null","","","","","","","","","","","","","","","","","","","","","","","feedback_test"
"","","","","","psychophysics","315","469379","0.0-13.0-1.0-1.0-0.1-0.77","671","","f","","","","","","","","","","","","","key","f","16.666675925925826","853.3333333333334","529.3333333333334","f","true","img/C_ambi40.png","坏人","word_first",""
"","","","","","html-keyboard-response","316","469687","0.0-13.0-1.0-1.0-0.1-1.77","null","<span style='color:GreenYellow; font-size: 70px;'>正确! </span>","null","","","","","","","","","","","","","","","","","","","","","","","feedback_test"
"","","","","","psychophysics","317","471552","0.0-13.0-1.0-1.0-0.1-0.78","705","","j","","","","","","","","","","","","","key","j","16.666846846847015","853.3333333333334","529.3333333333334","j","true","img/C_ambi40.png","好人","word_first",""
"","","","","","html-keyboard-response","318","471864","0.0-13.0-1.0-1.0-0.1-1.78","null","<span style='color:GreenYellow; font-size: 70px;'>正确! </span>","null","","","","","","","","","","","","","","","","","","","","","","","feedback_test"
"","","","","","psychophysics","319","473656","0.0-13.0-1.0-1.0-0.1-0.79","642","","j","","","","","","","","","","","","","key","j","16.667179245283204","853.3333333333334","529.3333333333334","j","true","img/T_ambi40.png","坏人","word_first",""
"","","","","","html-keyboard-response","320","473971","0.0-13.0-1.0-1.0-0.1-1.79","null","<span style='color:GreenYellow; font-size: 70px;'>正确! </span>","null","","","","","","","","","","","","","","","","","","","","","","","feedback_test"
"","","","","","psychophysics","321","476050","0.0-13.0-1.0-1.0-0.1-0.80","927","","j","","","","","","","","","","","","","key","j","16.666532258064702","853.3333333333334","529.3333333333334","j","true","img/C_ambi40.png","常人","word_first",""
"","","","","","html-keyboard-response","322","476368","0.0-13.0-1.0-1.0-0.1-1.80","null","<span style='color:GreenYellow; font-size: 70px;'>正确! </span>","null","","","","","","","","","","","","","","","","","","","","","","","feedback_test"
"","","","","","psychophysics","323","478182","0.0-13.0-1.0-1.0-0.1-0.81","652","","f","","","","","","","","","","","","","key","f","16.666657407407506","853.3333333333334","529.3333333333334","f","true","img/S_ambi40.png","好人","word_first",""
"","","","","","html-keyboard-response","324","478504","0.0-13.0-1.0-1.0-0.1-1.81","null","<span style='color:GreenYellow; font-size: 70px;'>正确! </span>","null","","","","","","","","","","","","","","","","","","","","","","","feedback_test"
"","","","","","psychophysics","325","480335","0.0-13.0-1.0-1.0-0.1-0.82","674","","f","","","","","","","","","","","","","key","f","16.666715596330462","853.3333333333334","529.3333333333334","f","true","img/C_ambi40.png","坏人","word_first",""
"","","","","","html-keyboard-response","326","480649","0.0-13.0-1.0-1.0-0.1-1.82","null","<span style='color:GreenYellow; font-size: 70px;'>正确! </span>","null","","","","","","","","","","","","","","","","","","","","","","","feedback_test"
"","","","","","psychophysics","327","482479","0.0-13.0-1.0-1.0-0.1-0.83","670","","j","","","","","","","","","","","","","key","j","16.666666666666668","853.3333333333334","529.3333333333334","j","true","img/S_ambi40.png","坏人","word_first",""
"","","","","","html-keyboard-response","328","482792","0.0-13.0-1.0-1.0-0.1-1.83","null","<span style='color:GreenYellow; font-size: 70px;'>正确! </span>","null","","","","","","","","","","","","","","","","","","","","","","","feedback_test"
"","","","","","psychophysics","329","484609","0.0-13.0-1.0-1.0-0.1-0.84","662","","j","","","","","","","","","","","","","key","j","16.66656481481429","853.3333333333334","529.3333333333334","j","true","img/T_ambi40.png","好人","word_first",""
"","","","","","html-keyboard-response","330","484919","0.0-13.0-1.0-1.0-0.1-1.84","null","<span style='color:GreenYellow; font-size: 70px;'>正确! </span>","null","","","","","","","","","","","","","","","","","","","","","","","feedback_test"
"","","","","","psychophysics","331","486789","0.0-13.0-1.0-1.0-0.1-0.85","709","","j","","","","","","","","","","","","","key","j","16.666486486486843","853.3333333333334","529.3333333333334","f","false","img/C_ambi40.png","坏人","word_first",""
"","","","","","html-keyboard-response","332","487104","0.0-13.0-1.0-1.0-0.1-1.85","null","<span style='color:red; font-size: 70px;'>错误! </span>","null","","","","","","","","","","","","","","","","","","","","","","","feedback_test"
"","","","","","psychophysics","333","488863","0.0-13.0-1.0-1.0-0.1-0.86","599","","f","","","","","","","","","","","","","key","f","16.66658653846109","853.3333333333334","529.3333333333334","f","true","img/S_ambi40.png","好人","word_first",""
"","","","","","html-keyboard-response","334","489175","0.0-13.0-1.0-1.0-0.1-1.86","null","<span style='color:GreenYellow; font-size: 70px;'>正确! </span>","null","","","","","","","","","","","","","","","","","","","","","","","feedback_test"
"","","","","","psychophysics","335","490968","0.0-13.0-1.0-1.0-0.1-0.87","638","","f","","","","","","","","","","","","","key","f","16.666813084112032","853.3333333333334","529.3333333333334","f","true","img/T_ambi40.png","常人","word_first",""
"","","","","","html-keyboard-response","336","491279","0.0-13.0-1.0-1.0-0.1-1.87","null","<span style='color:GreenYellow; font-size: 70px;'>正确! </span>","null","","","","","","","","","","","","","","","","","","","","","","","feedback_test"
"","","","","","psychophysics","337","493170","0.0-13.0-1.0-1.0-0.1-0.88","740","","j","","","","","","","","","","","","","key","j","16.538562500000157","853.3333333333334","529.3333333333334","j","true","img/S_ambi40.png","常人","word_first",""
"","","","","","html-keyboard-response","338","493477","0.0-13.0-1.0-1.0-0.1-1.88","null","<span style='color:GreenYellow; font-size: 70px;'>正确! </span>","null","","","","","","","","","","","","","","","","","","","","","","","feedback_test"
"","","","","","psychophysics","339","495536","0.0-13.0-1.0-1.0-0.1-0.89","906","","f","","","","","","","","","","","","","key","f","16.666040650406583","853.3333333333334","529.3333333333334","f","true","img/T_ambi40.png","常人","word_first",""
"","","","","","html-keyboard-response","340","495849","0.0-13.0-1.0-1.0-0.1-1.89","null","<span style='color:GreenYellow; font-size: 70px;'>正确! </span>","null","","","","","","","","","","","","","","","","","","","","","","","feedback_test"
"","","","","","psychophysics","341","498178","0.0-13.0-1.0-1.0-0.1-0.90","1164","","f","","","","","","","","","","","","","key","f","16.66650724637683","853.3333333333334","529.3333333333334","j","false","img/C_ambi40.png","好人","word_first",""
"","","","","","html-keyboard-response","342","498496","0.0-13.0-1.0-1.0-0.1-1.90","null","<span style='color:red; font-size: 70px;'>错误! </span>","null","","","","","","","","","","","","","","","","","","","","","","","feedback_test"
"","","","","","psychophysics","343","500454","0.0-13.0-1.0-1.0-0.1-0.91","806","","j","","","","","","","","","","","","","key","j","16.553732758620754","853.3333333333334","529.3333333333334","j","true","img/T_ambi40.png","坏人","word_first",""
"","","","","","html-keyboard-response","344","500764","0.0-13.0-1.0-1.0-0.1-1.91","null","<span style='color:GreenYellow; font-size: 70px;'>正确! </span>","null","","","","","","","","","","","","","","","","","","","","","","","feedback_test"
"","","","","","psychophysics","345","502816","0.0-13.0-1.0-1.0-0.1-0.92","886","","f","","","","","","","","","","","","","key","f","16.666319672131365","853.3333333333334","529.3333333333334","f","true","img/C_ambi40.png","坏人","word_first",""
"","","","","","html-keyboard-response","346","503126","0.0-13.0-1.0-1.0-0.1-1.92","null","<span style='color:GreenYellow; font-size: 70px;'>正确! </span>","null","","","","","","","","","","","","","","","","","","","","","","","feedback_test"
"","","","","","psychophysics","347","504981","0.0-13.0-1.0-1.0-0.1-0.93","700","","j","","","","","","","","","","","","","key","j","16.66662162162158","853.3333333333334","529.3333333333334","j","true","img/S_ambi40.png","坏人","word_first",""
"","","","","","html-keyboard-response","348","505297","0.0-13.0-1.0-1.0-0.1-1.93","null","<span style='color:GreenYellow; font-size: 70px;'>正确! </span>","null","","","","","","","","","","","","","","","","","","","","","","","feedback_test"
"","","","","","psychophysics","349","507338","0.0-13.0-1.0-1.0-0.1-0.94","885","","j","","","","","","","","","","","","","key","j","16.666586776859557","853.3333333333334","529.3333333333334","j","true","img/C_ambi40.png","常人","word_first",""
"","","","","","html-keyboard-response","350","507654","0.0-13.0-1.0-1.0-0.1-1.94","null","<span style='color:GreenYellow; font-size: 70px;'>正确! </span>","null","","","","","","","","","","","","","","","","","","","","","","","feedback_test"
"","","","","","psychophysics","351","509920","0.0-13.0-1.0-1.0-0.1-0.95","1107","","j","","","","","","","","","","","","","key","j","16.666540740740796","853.3333333333334","529.3333333333334","f","false","img/S_ambi40.png","好人","word_first",""
"","","","","","html-keyboard-response","352","510229","0.0-13.0-1.0-1.0-0.1-1.95","null","<span style='color:red; font-size: 70px;'>错误! </span>","null","","","","","","","","","","","","","","","","","","","","","","","feedback_test"
"","","","","","psychophysics","353","512019","0.0-13.0-1.0-1.0-0.1-0.96","639","","j","","","","","","","","","","","","","key","j","16.54447169811355","853.3333333333334","529.3333333333334","j","true","img/S_ambi40.png","常人","word_first",""
"","","","","","html-keyboard-response","354","512333","0.0-13.0-1.0-1.0-0.1-1.96","null","<span style='color:GreenYellow; font-size: 70px;'>正确! </span>","null","","","","","","","","","","","","","","","","","","","","","","","feedback_test"
"","","","","","psychophysics","355","514140","0.0-13.0-1.0-1.0-0.1-0.97","643","","f","","","","","","","","","","","","","key","f","16.66665420560743","853.3333333333334","529.3333333333334","f","true","img/S_ambi40.png","好人","word_first",""
"","","","","","html-keyboard-response","356","514449","0.0-13.0-1.0-1.0-0.1-1.97","null","<span style='color:GreenYellow; font-size: 70px;'>正确! </span>","null","","","","","","","","","","","","","","","","","","","","","","","feedback_test"
"","","","","","psychophysics","357","516244","0.0-13.0-1.0-1.0-0.1-0.98","641","","j","","","","","","","","","","","","","key","j","16.666160377358604","853.3333333333334","529.3333333333334","j","true","img/S_ambi40.png","坏人","word_first",""
"","","","","","html-keyboard-response","358","516555","0.0-13.0-1.0-1.0-0.1-1.98","null","<span style='color:GreenYellow; font-size: 70px;'>正确! </span>","null","","","","","","","","","","","","","","","","","","","","","","","feedback_test"
"","","","","","psychophysics","359","518497","0.0-13.0-1.0-1.0-0.1-0.99","784","","j","","","","","","","","","","","","","key","j","16.66661206896543","853.3333333333334","529.3333333333334","f","false","img/C_ambi40.png","坏人","word_first",""
"","","","","","html-keyboard-response","360","518814","0.0-13.0-1.0-1.0-0.1-1.99","null","<span style='color:red; font-size: 70px;'>错误! </span>","null","","","","","","","","","","","","","","","","","","","","","","","feedback_test"
"","","","","","psychophysics","361","520669","0.0-13.0-1.0-1.0-0.1-0.100","690","","f","","","","","","","","","","","","","key","f","16.664654545454752","853.3333333333334","529.3333333333334","f","true","img/T_ambi40.png","常人","word_first",""
"","","","","","html-keyboard-response","362","520978","0.0-13.0-1.0-1.0-0.1-1.100","null","<span style='color:GreenYellow; font-size: 70px;'>正确! </span>","null","","","","","","","","","","","","","","","","","","","","","","","feedback_test"
"","","","","","psychophysics","363","522809","0.0-13.0-1.0-1.0-0.1-0.101","679","","j","","","","","","","","","","","","","key","j","16.666449541284237","853.3333333333334","529.3333333333334","j","true","img/C_ambi40.png","好人","word_first",""
"","","","","","html-keyboard-response","364","523123","0.0-13.0-1.0-1.0-0.1-1.101","null","<span style='color:GreenYellow; font-size: 70px;'>正确! </span>","null","","","","","","","","","","","","","","","","","","","","","","","feedback_test"
"","","","","","psychophysics","365","525211","0.0-13.0-1.0-1.0-0.1-0.102","932","","f","","","","","","","","","","","","","key","f","16.66654032258028","853.3333333333334","529.3333333333334","j","false","img/T_ambi40.png","好人","word_first",""
"","","","","","html-keyboard-response","366","525521","0.0-13.0-1.0-1.0-0.1-1.102","null","<span style='color:red; font-size: 70px;'>错误! </span>","null","","","","","","","","","","","","","","","","","","","","","","","feedback_test"
"","","","","","psychophysics","367","527241","0.0-13.0-1.0-1.0-0.1-0.103","563","","f","","","","","","","","","","","","","key","f","16.666970588234893","853.3333333333334","529.3333333333334","f","true","img/T_ambi40.png","常人","word_first",""
"","","","","","html-keyboard-response","368","527558","0.0-13.0-1.0-1.0-0.1-1.103","null","<span style='color:GreenYellow; font-size: 70px;'>正确! </span>","null","","","","","","","","","","","","","","","","","","","","","","","feedback_test"
"","","","","","psychophysics","369","529568","0.0-13.0-1.0-1.0-0.1-0.104","855","","j","","","","","","","","","","","","","key","j","16.666466666666867","853.3333333333334","529.3333333333334","j","true","img/C_ambi40.png","常人","word_first",""
"","","","","","html-keyboard-response","370","529887","0.0-13.0-1.0-1.0-0.1-1.104","null","<span style='color:GreenYellow; font-size: 70px;'>正确! </span>","null","","","","","","","","","","","","","","","","","","","","","","","feedback_test"
"","","","","","psychophysics","371","531602","0.0-13.0-1.0-1.0-0.1-0.105","556","","j","","","","","","","","","","","","","key","j","16.666764705882443","853.3333333333334","529.3333333333334","j","true","img/T_ambi40.png","坏人","word_first",""
"","","","","","html-keyboard-response","372","531919","0.0-13.0-1.0-1.0-0.1-1.105","null","<span style='color:GreenYellow; font-size: 70px;'>正确! </span>","null","","","","","","","","","","","","","","","","","","","","","","","feedback_test"
"","","","","","psychophysics","373","533739","0.0-13.0-1.0-1.0-0.1-0.106","659","","f","","","","","","","","","","","","","key","f","16.666490740741008","853.3333333333334","529.3333333333334","f","true","img/C_ambi40.png","坏人","word_first",""
"","","","","","html-keyboard-response","374","534043","0.0-13.0-1.0-1.0-0.1-1.106","null","<span style='color:GreenYellow; font-size: 70px;'>正确! </span>","null","","","","","","","","","","","","","","","","","","","","","","","feedback_test"
"","","","","","psychophysics","375","535858","0.0-13.0-1.0-1.0-0.1-0.107","662","","f","","","","","","","","","","","","","key","f","16.666768518517966","853.3333333333334","529.3333333333334","f","true","img/S_ambi40.png","好人","word_first",""
"","","","","","html-keyboard-response","376","536168","0.0-13.0-1.0-1.0-0.1-1.107","null","<span style='color:GreenYellow; font-size: 70px;'>正确! </span>","null","","","","","","","","","","","","","","","","","","","","","","","feedback_test"
"","","","","","psychophysics","377","537890","0.0-13.0-1.0-1.0-0.1-0.108","562","","j","","","","","","","","","","","","","key","j","16.666598039215852","853.3333333333334","529.3333333333334","f","false","img/T_ambi40.png","常人","word_first",""
"","","","","","html-keyboard-response","378","538202","0.0-13.0-1.0-1.0-0.1-1.108","null","<span style='color:red; font-size: 70px;'>错误! </span>","null","","","","","","","","","","","","","","","","","","","","","","","feedback_test"
"","","","","","psychophysics","379","540020","0.0-13.0-1.0-1.0-0.1-0.109","664","","j","","","","","","","","","","","","","key","j","16.66701851851906","853.3333333333334","529.3333333333334","f","false","img/T_ambi40.png","常人","word_first",""
"","","","","","html-keyboard-response","380","540329","0.0-13.0-1.0-1.0-0.1-1.109","null","<span style='color:red; font-size: 70px;'>错误! </span>","null","","","","","","","","","","","","","","","","","","","","","","","feedback_test"
"","","","","","psychophysics","381","542119","0.0-13.0-1.0-1.0-0.1-0.110","639","","j","","","","","","","","","","","","","key","j","16.53449056603735","853.3333333333334","529.3333333333334","j","true","img/T_ambi40.png","好人","word_first",""
"","","","","","html-keyboard-response","382","542440","0.0-13.0-1.0-1.0-0.1-1.110","null","<span style='color:GreenYellow; font-size: 70px;'>正确! </span>","null","","","","","","","","","","","","","","","","","","","","","","","feedback_test"
"","","","","","psychophysics","383","544225","0.0-13.0-1.0-1.0-0.1-0.111","628","","f","","","","","","","","","","","","","key","f","16.666462264151118","853.3333333333334","529.3333333333334","f","true","img/S_ambi40.png","好人","word_first",""
"","","","","","html-keyboard-response","384","544534","0.0-13.0-1.0-1.0-0.1-1.111","null","<span style='color:GreenYellow; font-size: 70px;'>正确! </span>","null","","","","","","","","","","","","","","","","","","","","","","","feedback_test"
"","","","","","psychophysics","385","546335","0.0-13.0-1.0-1.0-0.1-0.112","638","","j","","","","","","","","","","","","","key","j","16.666710280373728","853.3333333333334","529.3333333333334","j","true","img/T_ambi40.png","坏人","word_first",""
"","","","","","html-keyboard-response","386","546658","0.0-13.0-1.0-1.0-0.1-1.112","null","<span style='color:GreenYellow; font-size: 70px;'>正确! </span>","null","","","","","","","","","","","","","","","","","","","","","","","feedback_test"
"","","","","","psychophysics","387","548555","0.0-13.0-1.0-1.0-0.1-0.113","742","","f","","","","","","","","","","","","","key","f","16.666389380531196","853.3333333333334","529.3333333333334","f","true","img/S_ambi40.png","好人","word_first",""
"","","","","","html-keyboard-response","388","548872","0.0-13.0-1.0-1.0-0.1-1.113","null","<span style='color:GreenYellow; font-size: 70px;'>正确! </span>","null","","","","","","","","","","","","","","","","","","","","","","","feedback_test"
"","","","","","psychophysics","389","550583","0.0-13.0-1.0-1.0-0.1-0.114","553","","j","","","","","","","","","","","","","key","j","16.666637254901705","853.3333333333334","529.3333333333334","j","true","img/S_ambi40.png","坏人","word_first",""
"","","","","","html-keyboard-response","390","550906","0.0-13.0-1.0-1.0-0.1-1.114","null","<span style='color:GreenYellow; font-size: 70px;'>正确! </span>","null","","","","","","","","","","","","","","","","","","","","","","","feedback_test"
"","","","","","psychophysics","391","552727","0.0-13.0-1.0-1.0-0.1-0.115","667","","f","","","","","","","","","","","","","key","f","16.66622222222159","853.3333333333334","529.3333333333334","f","true","img/C_ambi40.png","坏人","word_first",""
"","","","","","html-keyboard-response","392","553045","0.0-13.0-1.0-1.0-0.1-1.115","null","<span style='color:GreenYellow; font-size: 70px;'>正确! </span>","null","","","","","","","","","","","","","","","","","","","","","","","feedback_test"
"","","","","","psychophysics","393","555309","0.0-13.0-1.0-1.0-0.1-0.116","1113","","j","","","","","","","","","","","","","key","j","16.572470149253807","853.3333333333334","529.3333333333334","j","true","img/S_ambi40.png","常人","word_first",""
"","","","","","html-keyboard-response","394","555619","0.0-13.0-1.0-1.0-0.1-1.116","null","<span style='color:GreenYellow; font-size: 70px;'>正确! </span>","null","","","","","","","","","","","","","","","","","","","","","","","feedback_test"
"","","","","","psychophysics","395","557374","0.0-13.0-1.0-1.0-0.1-0.117","599","","f","","","","","","","","","","","","","key","f","16.666509615384992","853.3333333333334","529.3333333333334","j","false","img/C_ambi40.png","好人","word_first",""
"","","","","","html-keyboard-response","396","557698","0.0-13.0-1.0-1.0-0.1-1.117","null","<span style='color:red; font-size: 70px;'>错误! </span>","null","","","","","","","","","","","","","","","","","","","","","","","feedback_test"
"","","","","","psychophysics","397","560363","0.0-13.0-1.0-1.0-0.1-0.118","null","","null","","","","","","","","","","","","","key","null","16.666493670885963","853.3333333333334","529.3333333333334","f","false","img/C_ambi40.png","坏人","word_first",""
"","","","","","html-keyboard-response","398","560674","0.0-13.0-1.0-1.0-0.1-1.118","null","<span class='add_' style='color:yellow; font-size: 70px;'> 太慢! </span>","null","","","","","","","","","","","","","","","","","","","","","","","feedback_test"
"","","","","","psychophysics","399","562566","0.0-13.0-1.0-1.0-0.1-0.119","737","","f","","","","","","","","","","","","","key","f","16.666495575221354","853.3333333333334","529.3333333333334","j","false","img/C_ambi40.png","常人","word_first",""
"","","","","","html-keyboard-response","400","562875","0.0-13.0-1.0-1.0-0.1-1.119","null","<span style='color:red; font-size: 70px;'>错误! </span>","null","","","","","","","","","","","","","","","","","","","","","","","feedback_test"
"","","","","","html-keyboard-response","401","571871","0.0-13.0-1.0-1.0-1.1","8994","<style>.context{color:white; font-size: 35px; line-height:40px}</style>                              <div><p class='context'>您正确回答了80% 的试次。</p><p class='context'>您的平均反应时为738毫秒。</p><p class='context'>请按任意键进入休息</p></div>"," ","","","","","","","","","","","","","","","","","","","","","","",""
"","","","","","html-button-response","402","591000","0.0-13.0-1.0-1.0-2.1","19127","
                      <p>您当前还剩余2组实验</p>
                      <p>现在是休息时间，当您结束休息后，您可以点击 结束休息 按钮 继续</p>
                      <p>建议休息时间还剩余<span id=""iii"">60</span>秒</p>","0","","","","","","","","","","","","","","","","","","","","","","",""
"","","","","","psychophysics","403","592924","0.0-13.0-1.0-1.0-0.2-0.120","768","","j","","","","","","","","","","","","","key","j","16.66656140350888","853.3333333333334","529.3333333333334","f","false","img/T_ambi40.png","常人","word_first",""
"","","","","","html-keyboard-response","404","593241","0.0-13.0-1.0-1.0-0.2-1.120","null","<span style='color:red; font-size: 70px;'>错误! </span>","null","","","","","","","","","","","","","","","","","","","","","","","feedback_test"
"","","","","","psychophysics","405","595190","0.0-13.0-1.0-1.0-0.2-0.121","794","","f","","","","","","","","","","","","","key","f","16.666232758621156","853.3333333333334","529.3333333333334","f","true","img/S_ambi40.png","好人","word_first",""
"","","","","","html-keyboard-response","406","595510","0.0-13.0-1.0-1.0-0.2-1.121","null","<span style='color:GreenYellow; font-size: 70px;'>正确! </span>","null","","","","","","","","","","","","","","","","","","","","","","","feedback_test"
"","","","","","psychophysics","407","597410","0.0-13.0-1.0-1.0-0.2-0.122","747","","j","","","","","","","","","","","","","key","j","16.66629203539795","853.3333333333334","529.3333333333334","j","true","img/S_ambi40.png","常人","word_first",""
"","","","","","html-keyboard-response","408","597726","0.0-13.0-1.0-1.0-0.2-1.122","null","<span style='color:GreenYellow; font-size: 70px;'>正确! </span>","null","","","","","","","","","","","","","","","","","","","","","","","feedback_test"
"","","","","","psychophysics","409","599547","0.0-13.0-1.0-1.0-0.2-0.123","668","","f","","","","","","","","","","","","","key","f","16.66653211009176","853.3333333333334","529.3333333333334","j","false","img/T_ambi40.png","好人","word_first",""
