"success","timeout","failed_images","failed_audio","failed_video","trial_type","trial_index","time_elapsed","internal_node_id","rt","stimulus","response","value","item_width_mm","item_height_mm","item_width_px","px2mm","view_dist_mm","item_width_deg","px2deg","scale_factor","win_width_deg","win_height_deg","view_history","response_type","key_press","avg_frame_time","center_x","center_y","correct_response","correct","Image","word","condition","screen_id"
"true","false","[]","[]","[]","preload","0","917","0.0-0.0","","","","","","","","","","","","","","","","","","","","","","","","","",""
"","","","","","html-keyboard-response","1","48033","0.0-1.0","47115","
     <p>您好，欢迎参加本次实验。</p>
     <p>为充分保障您的权利，请确保您已经知晓并同意《参与实验同意书》以及《数据公开知情同意书》。</p>
     <p>如果您未见过上述内容，请咨询实验员。</p>
     <p>如果您选择继续实验，则表示您已经清楚两份知情同意书的内容并同意。</p>
     <p> <div style = ""color: green""><按任意键至下页></div> </p>
     "," ","","","","","","","","","","","","","","","","","","","","","","",""
"","","","","","html-keyboard-response","2","49297","0.0-2.0","1263","
     <p>本实验首先需要您填写一些基本个人信息。</p>
     <p> <div style = ""color: green""><按任意键至下页></div></p>
     "," ","","","","","","","","","","","","","","","","","","","","","","",""
"","","","","","call-function","3","49298","0.0-3.0-0.0","","","","","","","","","","","","","","","","","","","","","","","","","",""
"","","","","","survey-html-form","4","53544","0.0-3.0-1.0","4245","","{""Q0"":""13""}","","","","","","","","","","","","","","","","","","","","","","",""
"","","","","","html-button-response","5","54472","0.0-3.0-2.0","927","<p style = 'color : white'>您的性别</p>","1","","","","","","","","","","","","","","","","","","","","","","",""
"","","","","","survey-html-form","6","58289","0.0-3.0-3.0","3815","","{""Q0"":""2002""}","","","","","","","","","","","","","","","","","","","","","","",""
"","","","","","survey-html-form","7","60497","0.0-3.0-4.0","2207","","{""Q0"":""5""}","","","","","","","","","","","","","","","","","","","","","","",""
"","","","","","virtual-chinrest","8","101945","0.0-4.0","41447","","","","85.6","53.98","489.72706070210586","5.722354241899606","499.52","9.794541214042118","50","0.7514389739305202","30.64","14.88","","","","","","","","","","","",""
"true","","","","","fullscreen","9","104547","0.0-5.0","","","","","","","","","","","","","","","","","","","","","","","","","",""
"","","","","","instructions","10","143001","0.0-6.0","38455","","","","","","","","","","","","","","[{""page_index"":0,""viewing_time"":3037},{""page_index"":1,""viewing_time"":16740},{""page_index"":2,""viewing_time"":6636},{""page_index"":3,""viewing_time"":12042}]","","","","","","","","","","",""
"","","","","","psychophysics","11","145621","0.0-7.0-0.0-0.0","1465","","f","","","","","","","","","","","","","key","f","11.359293859649098","768.8","428.8","j","false","img/C_ambi40.png","好人","prac_image_first",""
"","","","","","html-keyboard-response","12","145924","0.0-7.0-0.0-1.0","null","<span style='color:red; font-size: 70px;'>错误! </span>","null","","","","","","","","","","","","","","","","","","","","","","","feedback_test"
"","","","","","psychophysics","13","148214","0.0-7.0-0.0-0.1","1139","","f","","","","","","","","","","","","","key","f","11.055810679611666","768.8","428.8","f","true","img/S_ambi40.png","常人","prac_image_first",""
"","","","","","html-keyboard-response","14","148517","0.0-7.0-0.0-1.1","null","<span style='color:GreenYellow; font-size: 70px;'>正确! </span>","null","","","","","","","","","","","","","","","","","","","","","","","feedback_test"
"","","","","","psychophysics","15","150439","0.0-7.0-0.0-0.2","770","","f","","","","","","","","","","","","","key","f","10.911417142857266","768.8","428.8","f","true","img/C_ambi40.png","常人","prac_image_first",""
"","","","","","html-keyboard-response","16","150742","0.0-7.0-0.0-1.2","null","<span style='color:GreenYellow; font-size: 70px;'>正确! </span>","null","","","","","","","","","","","","","","","","","","","","","","","feedback_test"
"","","","","","psychophysics","17","152633","0.0-7.0-0.0-0.3","738","","j","","","","","","","","","","","","","key","j","10.940005813953555","768.8","428.8","j","true","img/S_ambi40.png","坏人","prac_image_first",""
"","","","","","html-keyboard-response","18","152935","0.0-7.0-0.0-1.3","null","<span style='color:GreenYellow; font-size: 70px;'>正确! </span>","null","","","","","","","","","","","","","","","","","","","","","","","feedback_test"
"","","","","","psychophysics","19","154940","0.0-7.0-0.0-0.4","853","","f","","","","","","","","","","","","","key","f","11.133072625698201","768.8","428.8","f","true","img/T_ambi40.png","好人","prac_image_first",""
"","","","","","html-keyboard-response","20","155242","0.0-7.0-0.0-1.4","null","<span style='color:GreenYellow; font-size: 70px;'>正确! </span>","null","","","","","","","","","","","","","","","","","","","","","","","feedback_test"
"","","","","","psychophysics","21","157005","0.0-7.0-0.0-0.5","611","","f","","","","","","","","","","","","","key","f","10.956424050632853","768.8","428.8","f","true","img/C_ambi40.png","坏人","prac_image_first",""
"","","","","","html-keyboard-response","22","157306","0.0-7.0-0.0-1.5","null","<span style='color:GreenYellow; font-size: 70px;'>正确! </span>","null","","","","","","","","","","","","","","","","","","","","","","","feedback_test"
"","","","","","psychophysics","23","159235","0.0-7.0-0.0-0.6","777","","j","","","","","","","","","","","","","key","j","10.921028571428531","768.8","428.8","j","true","img/T_ambi40.png","常人","prac_image_first",""
"","","","","","html-keyboard-response","24","159536","0.0-7.0-0.0-1.6","null","<span style='color:GreenYellow; font-size: 70px;'>正确! </span>","null","","","","","","","","","","","","","","","","","","","","","","","feedback_test"
"","","","","","psychophysics","25","161467","0.0-7.0-0.0-0.7","779","","j","","","","","","","","","","","","","key","j","11.358970414201169","768.8","428.8","j","true","img/C_ambi40.png","好人","prac_image_first",""
"","","","","","html-keyboard-response","26","161769","0.0-7.0-0.0-1.7","null","<span style='color:GreenYellow; font-size: 70px;'>正确! </span>","null","","","","","","","","","","","","","","","","","","","","","","","feedback_test"
"","","","","","psychophysics","27","163779","0.0-7.0-0.0-0.8","859","","f","","","","","","","","","","","","","key","f","10.805832432432421","768.8","428.8","j","false","img/S_ambi40.png","坏人","prac_image_first",""
"","","","","","html-keyboard-response","28","164082","0.0-7.0-0.0-1.8","null","<span style='color:red; font-size: 70px;'>错误! </span>","null","","","","","","","","","","","","","","","","","","","","","","","feedback_test"
"","","","","","psychophysics","29","166011","0.0-7.0-0.0-0.9","777","","j","","","","","","","","","","","","","key","j","11.05625287356322","768.8","428.8","j","true","img/T_ambi40.png","常人","prac_image_first",""
"","","","","","html-keyboard-response","30","166313","0.0-7.0-0.0-1.9","null","<span style='color:GreenYellow; font-size: 70px;'>正确! </span>","null","","","","","","","","","","","","","","","","","","","","","","","feedback_test"
"","","","","","psychophysics","31","168505","0.0-7.0-0.0-0.10","1041","","j","","","","","","","","","","","","","key","j","11.202159793814495","768.8","428.8","f","false","img/S_ambi40.png","好人","prac_image_first",""
"","","","","","html-keyboard-response","32","168807","0.0-7.0-0.0-1.10","null","<span style='color:red; font-size: 70px;'>错误! </span>","null","","","","","","","","","","","","","","","","","","","","","","","feedback_test"
"","","","","","psychophysics","33","171257","0.0-7.0-0.0-0.11","1299","","f","","","","","","","","","","","","","key","f","11.25098148148148","768.8","428.8","f","true","img/T_ambi40.png","坏人","prac_image_first",""
"","","","","","html-keyboard-response","34","171559","0.0-7.0-0.0-1.11","null","<span style='color:GreenYellow; font-size: 70px;'>正确! </span>","null","","","","","","","","","","","","","","","","","","","","","","","feedback_test"
"","","","","","psychophysics","35","173280","0.0-7.0-0.0-0.12","570","","j","","","","","","","","","","","","","key","j","11.136935064935182","768.8","428.8","j","true","img/T_ambi40.png","常人","prac_image_first",""
"","","","","","html-keyboard-response","36","173582","0.0-7.0-0.0-1.12","null","<span style='color:GreenYellow; font-size: 70px;'>正确! </span>","null","","","","","","","","","","","","","","","","","","","","","","","feedback_test"
"","","","","","psychophysics","37","175955","0.0-7.0-0.0-0.13","1223","","j","","","","","","","","","","","","","key","j","10.77995890410953","768.8","428.8","j","true","img/C_ambi40.png","好人","prac_image_first",""
"","","","","","html-keyboard-response","38","176257","0.0-7.0-0.0-1.13","null","<span style='color:GreenYellow; font-size: 70px;'>正确! </span>","null","","","","","","","","","","","","","","","","","","","","","","","feedback_test"
"","","","","","psychophysics","39","178477","0.0-7.0-0.0-0.14","1068","","f","","","","","","","","","","","","","key","f","11.005610000000015","768.8","428.8","f","true","img/C_ambi40.png","常人","prac_image_first",""
"","","","","","html-keyboard-response","40","178778","0.0-7.0-0.0-1.14","null","<span style='color:GreenYellow; font-size: 70px;'>正确! </span>","null","","","","","","","","","","","","","","","","","","","","","","","feedback_test"
"","","","","","psychophysics","41","180839","0.0-7.0-0.0-0.15","909","","j","","","","","","","","","","","","","key","j","11.072021621621586","768.8","428.8","j","true","img/S_ambi40.png","坏人","prac_image_first",""
"","","","","","html-keyboard-response","42","181140","0.0-7.0-0.0-1.15","null","<span style='color:GreenYellow; font-size: 70px;'>正确! </span>","null","","","","","","","","","","","","","","","","","","","","","","","feedback_test"
"","","","","","psychophysics","43","182874","0.0-7.0-0.0-0.16","582","","j","","","","","","","","","","","","","key","j","10.96829936305724","768.8","428.8","j","true","img/S_ambi40.png","坏人","prac_image_first",""
"","","","","","html-keyboard-response","44","183175","0.0-7.0-0.0-1.16","null","<span style='color:GreenYellow; font-size: 70px;'>正确! </span>","null","","","","","","","","","","","","","","","","","","","","","","","feedback_test"
"","","","","","psychophysics","45","185075","0.0-7.0-0.0-0.17","748","","f","","","","","","","","","","","","","key","f","10.899843023255736","768.8","428.8","f","true","img/S_ambi40.png","好人","prac_image_first",""
"","","","","","html-keyboard-response","46","185376","0.0-7.0-0.0-1.17","null","<span style='color:GreenYellow; font-size: 70px;'>正确! </span>","null","","","","","","","","","","","","","","","","","","","","","","","feedback_test"
"","","","","","psychophysics","47","187534","0.0-7.0-0.0-0.18","1006","","f","","","","","","","","","","","","","key","f","11.138708333333247","768.8","428.8","f","true","img/T_ambi40.png","好人","prac_image_first",""
"","","","","","html-keyboard-response","48","187836","0.0-7.0-0.0-1.18","null","<span style='color:GreenYellow; font-size: 70px;'>正确! </span>","null","","","","","","","","","","","","","","","","","","","","","","","feedback_test"
"","","","","","psychophysics","49","189490","0.0-7.0-0.0-0.19","502","","j","","","","","","","","","","","","","key","j","10.898046357615964","768.8","428.8","j","true","img/C_ambi40.png","好人","prac_image_first",""
"","","","","","html-keyboard-response","50","189791","0.0-7.0-0.0-1.19","null","<span style='color:GreenYellow; font-size: 70px;'>正确! </span>","null","","","","","","","","","","","","","","","","","","","","","","","feedback_test"
"","","","","","psychophysics","51","191522","0.0-7.0-0.0-0.20","579","","j","","","","","","","","","","","","","key","j","11.136863636363573","768.8","428.8","j","true","img/T_ambi40.png","常人","prac_image_first",""
"","","","","","html-keyboard-response","52","191823","0.0-7.0-0.0-1.20","null","<span style='color:GreenYellow; font-size: 70px;'>正确! </span>","null","","","","","","","","","","","","","","","","","","","","","","","feedback_test"
"","","","","","psychophysics","53","193588","0.0-7.0-0.0-0.21","613","","j","","","","","","","","","","","","","key","j","11.074702531645661","768.8","428.8","f","false","img/T_ambi40.png","坏人","prac_image_first",""
"","","","","","html-keyboard-response","54","193889","0.0-7.0-0.0-1.21","null","<span style='color:red; font-size: 70px;'>错误! </span>","null","","","","","","","","","","","","","","","","","","","","","","","feedback_test"
"","","","","","psychophysics","55","195764","0.0-7.0-0.0-0.22","724","","f","","","","","","","","","","","","","key","f","11.14304790419159","768.8","428.8","f","true","img/S_ambi40.png","常人","prac_image_first",""
"","","","","","html-keyboard-response","56","196066","0.0-7.0-0.0-1.22","null","<span style='color:GreenYellow; font-size: 70px;'>正确! </span>","null","","","","","","","","","","","","","","","","","","","","","","","feedback_test"
"","","","","","psychophysics","57","198234","0.0-7.0-0.0-0.23","1017","","f","","","","","","","","","","","","","key","f","10.926238578680262","768.8","428.8","f","true","img/C_ambi40.png","坏人","prac_image_first",""
"","","","","","html-keyboard-response","58","198536","0.0-7.0-0.0-1.23","null","<span style='color:GreenYellow; font-size: 70px;'>正确! </span>","null","","","","","","","","","","","","","","","","","","","","","","","feedback_test"
"","","","","","html-keyboard-response","59","206005","0.0-8.0","7466","<style>.context{color:white; font-size: 35px; line-height:40px}</style>                              <div><p class='context'>您正确回答了83% 的试次。</p><p class='context'>您的平均反应时为834毫秒。</p><p class='context'>恭喜您完成这一阶段的练习。按任意键进入<span style='color: yellow;'>先文字后图形条件</span>的练习。</p></div>","j","","","","","","","","","","","","","","","","","","","","","","",""
"","","","","","psychophysics","60","208110","0.0-9.0-0.0-0.0","950","","j","","","","","","","","","","","","","key","j","11.024005291005196","768.8","428.8","j","true","img/T_ambi40.png","常人","prac_word_first",""
"","","","","","html-keyboard-response","61","208412","0.0-9.0-0.0-1.0","null","<span style='color:GreenYellow; font-size: 70px;'>正确! </span>","null","","","","","","","","","","","","","","","","","","","","","","","feedback_test"
"","","","","","psychophysics","62","210347","0.0-9.0-0.0-0.1","783","","j","","","","","","","","","","","","","key","j","11.074218390804706","768.8","428.8","j","true","img/S_ambi40.png","坏人","prac_word_first",""
"","","","","","html-keyboard-response","63","210648","0.0-9.0-0.0-1.1","null","<span style='color:GreenYellow; font-size: 70px;'>正确! </span>","null","","","","","","","","","","","","","","","","","","","","","","","feedback_test"
"","","","","","psychophysics","64","212427","0.0-9.0-0.0-0.2","626","","f","","","","","","","","","","","","","key","f","11.175531645569599","768.8","428.8","f","true","img/S_ambi40.png","常人","prac_word_first",""
"","","","","","html-keyboard-response","65","212729","0.0-9.0-0.0-1.2","null","<span style='color:GreenYellow; font-size: 70px;'>正确! </span>","null","","","","","","","","","","","","","","","","","","","","","","","feedback_test"
"","","","","","psychophysics","66","214695","0.0-9.0-0.0-0.3","815","","j","","","","","","","","","","","","","key","j","11.21091379310341","768.8","428.8","j","true","img/S_ambi40.png","坏人","prac_word_first",""
"","","","","","html-keyboard-response","67","214996","0.0-9.0-0.0-1.3","null","<span style='color:GreenYellow; font-size: 70px;'>正确! </span>","null","","","","","","","","","","","","","","","","","","","","","","","feedback_test"
"","","","","","psychophysics","68","216679","0.0-9.0-0.0-0.4","532","","f","","","","","","","","","","","","","key","f","11.230744966442913","768.8","428.8","f","true","img/T_ambi40.png","好人","prac_word_first",""
"","","","","","html-keyboard-response","69","216982","0.0-9.0-0.0-1.4","null","<span style='color:GreenYellow; font-size: 70px;'>正确! </span>","null","","","","","","","","","","","","","","","","","","","","","","","feedback_test"
"","","","","","psychophysics","70","219038","0.0-9.0-0.0-0.5","904","","f","","","","","","","","","","","","","key","f","11.2792486187845","768.8","428.8","f","true","img/T_ambi40.png","坏人","prac_word_first",""
"","","","","","html-keyboard-response","71","219340","0.0-9.0-0.0-1.5","null","<span style='color:GreenYellow; font-size: 70px;'>正确! </span>","null","","","","","","","","","","","","","","","","","","","","","","","feedback_test"
"","","","","","psychophysics","72","221019","0.0-9.0-0.0-0.6","527","","j","","","","","","","","","","","","","key","j","11.60541258741254","768.8","428.8","j","true","img/C_ambi40.png","好人","prac_word_first",""
"","","","","","html-keyboard-response","73","221321","0.0-9.0-0.0-1.6","null","<span style='color:GreenYellow; font-size: 70px;'>正确! </span>","null","","","","","","","","","","","","","","","","","","","","","","","feedback_test"
"","","","","","psychophysics","74","222924","0.0-9.0-0.0-0.7","451","","f","","","","","","","","","","","","","key","f","10.966179310344762","768.8","428.8","j","false","img/T_ambi40.png","常人","prac_word_first",""
"","","","","","html-keyboard-response","75","223225","0.0-9.0-0.0-1.7","null","<span style='color:red; font-size: 70px;'>错误! </span>","null","","","","","","","","","","","","","","","","","","","","","","","feedback_test"
"","","","","","psychophysics","76","224939","0.0-9.0-0.0-0.8","563","","f","","","","","","","","","","","","","key","f","10.93065806451599","768.8","428.8","f","true","img/S_ambi40.png","好人","prac_word_first",""
"","","","","","html-keyboard-response","77","225240","0.0-9.0-0.0-1.8","null","<span style='color:GreenYellow; font-size: 70px;'>正确! </span>","null","","","","","","","","","","","","","","","","","","","","","","","feedback_test"
"","","","","","psychophysics","78","227088","0.0-9.0-0.0-0.9","696","","f","","","","","","","","","","","","","key","f","11.109812121212158","768.8","428.8","f","true","img/C_ambi40.png","常人","prac_word_first",""
"","","","","","html-keyboard-response","79","227390","0.0-9.0-0.0-1.9","null","<span style='color:GreenYellow; font-size: 70px;'>正确! </span>","null","","","","","","","","","","","","","","","","","","","","","","","feedback_test"
"","","","","","psychophysics","80","229486","0.0-9.0-0.0-0.10","945","","j","","","","","","","","","","","","","key","j","11.10238502673801","768.8","428.8","j","true","img/C_ambi40.png","好人","prac_word_first",""
"","","","","","html-keyboard-response","81","229788","0.0-9.0-0.0-1.10","null","<span style='color:GreenYellow; font-size: 70px;'>正确! </span>","null","","","","","","","","","","","","","","","","","","","","","","","feedback_test"
"","","","","","psychophysics","82","231561","0.0-9.0-0.0-0.11","622","","f","","","","","","","","","","","","","key","f","10.911372670807452","768.8","428.8","f","true","img/C_ambi40.png","坏人","prac_word_first",""
"","","","","","html-keyboard-response","83","231863","0.0-9.0-0.0-1.11","null","<span style='color:GreenYellow; font-size: 70px;'>正确! </span>","null","","","","","","","","","","","","","","","","","","","","","","","feedback_test"
"","","","","","psychophysics","84","233733","0.0-9.0-0.0-0.12","718","","f","","","","","","","","","","","","","key","f","10.778773255813915","768.8","428.8","f","true","img/C_ambi40.png","常人","prac_word_first",""
"","","","","","html-keyboard-response","85","234035","0.0-9.0-0.0-1.12","null","<span style='color:GreenYellow; font-size: 70px;'>正确! </span>","null","","","","","","","","","","","","","","","","","","","","","","","feedback_test"
"","","","","","psychophysics","86","236489","0.0-9.0-0.0-0.13","1303","","f","","","","","","","","","","","","","key","f","11.009657657657659","768.8","428.8","f","true","img/S_ambi40.png","常人","prac_word_first",""
"","","","","","html-keyboard-response","87","236791","0.0-9.0-0.0-1.13","null","<span style='color:GreenYellow; font-size: 70px;'>正确! </span>","null","","","","","","","","","","","","","","","","","","","","","","","feedback_test"
"","","","","","psychophysics","88","238904","0.0-9.0-0.0-0.14","961","","f","","","","","","","","","","","","","key","f","11.036626315789487","768.8","428.8","j","false","img/S_ambi40.png","坏人","prac_word_first",""
"","","","","","html-keyboard-response","89","239205","0.0-9.0-0.0-1.14","null","<span style='color:red; font-size: 70px;'>错误! </span>","null","","","","","","","","","","","","","","","","","","","","","","","feedback_test"
"","","","","","psychophysics","90","240990","0.0-9.0-0.0-0.15","633","","j","","","","","","","","","","","","","key","j","11.136119496855414","768.8","428.8","j","true","img/S_ambi40.png","坏人","prac_word_first",""
"","","","","","html-keyboard-response","91","241291","0.0-9.0-0.0-1.15","null","<span style='color:GreenYellow; font-size: 70px;'>正确! </span>","null","","","","","","","","","","","","","","","","","","","","","","","feedback_test"
"","","","","","psychophysics","92","243064","0.0-9.0-0.0-0.16","620","","j","","","","","","","","","","","","","key","j","11.118265822784911","768.8","428.8","j","true","img/T_ambi40.png","常人","prac_word_first",""
"","","","","","html-keyboard-response","93","243366","0.0-9.0-0.0-1.16","null","<span style='color:GreenYellow; font-size: 70px;'>正确! </span>","null","","","","","","","","","","","","","","","","","","","","","","","feedback_test"
"","","","","","psychophysics","94","245316","0.0-9.0-0.0-0.17","799","","j","","","","","","","","","","","","","key","j","10.822759776536177","768.8","428.8","j","true","img/C_ambi40.png","好人","prac_word_first",""
"","","","","","html-keyboard-response","95","245620","0.0-9.0-0.0-1.17","null","<span style='color:GreenYellow; font-size: 70px;'>正确! </span>","null","","","","","","","","","","","","","","","","","","","","","","","feedback_test"
"","","","","","psychophysics","96","247393","0.0-9.0-0.0-0.18","621","","f","","","","","","","","","","","","","key","f","11.233394904458669","768.8","428.8","f","true","img/C_ambi40.png","坏人","prac_word_first",""
"","","","","","html-keyboard-response","97","247694","0.0-9.0-0.0-1.18","null","<span style='color:GreenYellow; font-size: 70px;'>正确! </span>","null","","","","","","","","","","","","","","","","","","","","","","","feedback_test"
"","","","","","psychophysics","98","249447","0.0-9.0-0.0-0.19","601","","j","","","","","","","","","","","","","key","j","10.892825000000084","768.8","428.8","j","true","img/C_ambi40.png","好人","prac_word_first",""
"","","","","","html-keyboard-response","99","249748","0.0-9.0-0.0-1.19","null","<span style='color:GreenYellow; font-size: 70px;'>正确! </span>","null","","","","","","","","","","","","","","","","","","","","","","","feedback_test"
"","","","","","psychophysics","100","251859","0.0-9.0-0.0-0.20","960","","j","","","","","","","","","","","","","key","j","10.97892146596852","768.8","428.8","j","true","img/T_ambi40.png","常人","prac_word_first",""
"","","","","","html-keyboard-response","101","252161","0.0-9.0-0.0-1.20","null","<span style='color:GreenYellow; font-size: 70px;'>正确! </span>","null","","","","","","","","","","","","","","","","","","","","","","","feedback_test"
"","","","","","psychophysics","102","253904","0.0-9.0-0.0-0.21","591","","f","","","","","","","","","","","","","key","f","10.738608695652157","768.8","428.8","f","true","img/T_ambi40.png","好人","prac_word_first",""
"","","","","","html-keyboard-response","103","254205","0.0-9.0-0.0-1.21","null","<span style='color:GreenYellow; font-size: 70px;'>正确! </span>","null","","","","","","","","","","","","","","","","","","","","","","","feedback_test"
"","","","","","psychophysics","104","256121","0.0-9.0-0.0-0.22","764","","j","","","","","","","","","","","","","key","j","11.46178915662637","768.8","428.8","f","false","img/S_ambi40.png","好人","prac_word_first",""
"","","","","","html-keyboard-response","105","256423","0.0-9.0-0.0-1.22","null","<span style='color:red; font-size: 70px;'>错误! </span>","null","","","","","","","","","","","","","","","","","","","","","","","feedback_test"
"","","","","","psychophysics","106","258463","0.0-9.0-0.0-0.23","889","","j","","","","","","","","","","","","","key","j","11.167368131868189","768.8","428.8","f","false","img/T_ambi40.png","坏人","prac_word_first",""
"","","","","","html-keyboard-response","107","258764","0.0-9.0-0.0-1.23","null","<span style='color:red; font-size: 70px;'>错误! </span>","null","","","","","","","","","","","","","","","","","","","","","","","feedback_test"
"","","","","","html-keyboard-response","108","266506","0.0-10.0","7740","<style>.context{color:white; font-size: 35px; line-height:40px}</style>                              <div><p class='context'>您正确回答了83% 的试次。</p><p class='context'>您的平均反应时为740毫秒。</p><p class='context'>恭喜您完成练习。按任意键进入<span style='color: yellow;'>图形和文字同时呈现条件</span>的练习。</p></div>","j","","","","","","","","","","","","","","","","","","","","","","",""
"","","","","","psychophysics","109","268492","0.0-11.0-0.0-0.0","979","","j","","","","","","","","","","","","","key","j","10.19481865284962","768.8","428.8","j","true","img/S_ambi40.png","坏人","prac_simultaneous",""
"","","","","","html-keyboard-response","110","268793","0.0-11.0-0.0-1.0","null","<span style='color:GreenYellow; font-size: 70px;'>正确! </span>","null","","","","","","","","","","","","","","","","","","","","","","","feedback_test"
"","","","","","psychophysics","111","270557","0.0-11.0-0.0-0.1","762","","j","","","","","","","","","","","","","key","j","9.885598870056437","768.8","428.8","j","true","img/T_ambi40.png","常人","prac_simultaneous",""
"","","","","","html-keyboard-response","112","270858","0.0-11.0-0.0-1.1","null","<span style='color:GreenYellow; font-size: 70px;'>正确! </span>","null","","","","","","","","","","","","","","","","","","","","","","","feedback_test"
"","","","","","psychophysics","113","272455","0.0-11.0-0.0-0.2","596","","f","","","","","","","","","","","","","key","f","10.000484276729498","768.8","428.8","f","true","img/S_ambi40.png","常人","prac_simultaneous",""
"","","","","","html-keyboard-response","114","272757","0.0-11.0-0.0-1.2","null","<span style='color:GreenYellow; font-size: 70px;'>正确! </span>","null","","","","","","","","","","","","","","","","","","","","","","","feedback_test"
"","","","","","psychophysics","115","274724","0.0-11.0-0.0-0.3","965","","f","","","","","","","","","","","","","key","f","9.91923979591823","768.8","428.8","f","true","img/S_ambi40.png","好人","prac_simultaneous",""
"","","","","","html-keyboard-response","116","275025","0.0-11.0-0.0-1.3","null","<span style='color:GreenYellow; font-size: 70px;'>正确! </span>","null","","","","","","","","","","","","","","","","","","","","","","","feedback_test"
"","","","","","psychophysics","117","276456","0.0-11.0-0.0-0.4","428","","j","","","","","","","","","","","","","key","j","10.16755714285703","768.8","428.8","j","true","img/C_ambi40.png","好人","prac_simultaneous",""
"","","","","","html-keyboard-response","118","276758","0.0-11.0-0.0-1.4","null","<span style='color:GreenYellow; font-size: 70px;'>正确! </span>","null","","","","","","","","","","","","","","","","","","","","","","","feedback_test"
"","","","","","psychophysics","119","278296","0.0-11.0-0.0-0.5","537","","j","","","","","","","","","","","","","key","j","9.919512987012865","768.8","428.8","j","true","img/C_ambi40.png","好人","prac_simultaneous",""
"","","","","","html-keyboard-response","120","278598","0.0-11.0-0.0-1.5","null","<span style='color:GreenYellow; font-size: 70px;'>正确! </span>","null","","","","","","","","","","","","","","","","","","","","","","","feedback_test"
"","","","","","psychophysics","121","280362","0.0-11.0-0.0-0.6","761","","f","","","","","","","","","","","","","key","f","9.61429670329684","768.8","428.8","j","false","img/T_ambi40.png","常人","prac_simultaneous",""
"","","","","","html-keyboard-response","122","280663","0.0-11.0-0.0-1.6","null","<span style='color:red; font-size: 70px;'>错误! </span>","null","","","","","","","","","","","","","","","","","","","","","","","feedback_test"
"","","","","","psychophysics","123","282412","0.0-11.0-0.0-0.7","747","","f","","","","","","","","","","","","","key","f","9.791297752808799","768.8","428.8","f","true","img/T_ambi40.png","坏人","prac_simultaneous",""
"","","","","","html-keyboard-response","124","282713","0.0-11.0-0.0-1.7","null","<span style='color:GreenYellow; font-size: 70px;'>正确! </span>","null","","","","","","","","","","","","","","","","","","","","","","","feedback_test"
"","","","","","psychophysics","125","284250","0.0-11.0-0.0-0.8","535","","j","","","","","","","","","","","","","key","j","9.893568627451078","768.8","428.8","j","true","img/S_ambi40.png","坏人","prac_simultaneous",""
"","","","","","html-keyboard-response","126","284552","0.0-11.0-0.0-1.8","null","<span style='color:GreenYellow; font-size: 70px;'>正确! </span>","null","","","","","","","","","","","","","","","","","","","","","","","feedback_test"
"","","","","","psychophysics","127","286153","0.0-11.0-0.0-0.9","600","","f","","","","","","","","","","","","","key","f","11.277276595744407","768.8","428.8","f","true","img/T_ambi40.png","好人","prac_simultaneous",""
"","","","","","html-keyboard-response","128","286454","0.0-11.0-0.0-1.9","null","<span style='color:GreenYellow; font-size: 70px;'>正确! </span>","null","","","","","","","","","","","","","","","","","","","","","","","feedback_test"
"","","","","","psychophysics","129","287982","0.0-11.0-0.0-0.10","526","","j","","","","","","","","","","","","","key","j","11.130389705882408","768.8","428.8","f","false","img/C_ambi40.png","常人","prac_simultaneous",""
"","","","","","html-keyboard-response","130","288284","0.0-11.0-0.0-1.10","null","<span style='color:red; font-size: 70px;'>错误! </span>","null","","","","","","","","","","","","","","","","","","","","","","","feedback_test"
"","","","","","psychophysics","131","289936","0.0-11.0-0.0-0.11","651","","f","","","","","","","","","","","","","key","f","10.951409395973217","768.8","428.8","f","true","img/C_ambi40.png","坏人","prac_simultaneous",""
"","","","","","html-keyboard-response","132","290239","0.0-11.0-0.0-1.11","null","<span style='color:GreenYellow; font-size: 70px;'>正确! </span>","null","","","","","","","","","","","","","","","","","","","","","","","feedback_test"
"","","","","","psychophysics","133","292460","0.0-11.0-0.0-0.12","1218","","j","","","","","","","","","","","","","key","j","10.930985148514893","768.8","428.8","j","true","img/S_ambi40.png","坏人","prac_simultaneous",""
"","","","","","html-keyboard-response","134","292761","0.0-11.0-0.0-1.12","null","<span style='color:GreenYellow; font-size: 70px;'>正确! </span>","null","","","","","","","","","","","","","","","","","","","","","","","feedback_test"
"","","","","","psychophysics","135","294560","0.0-11.0-0.0-0.13","798","","f","","","","","","","","","","","","","key","f","10.750084337349547","768.8","428.8","f","true","img/C_ambi40.png","坏人","prac_simultaneous",""
"","","","","","html-keyboard-response","136","294861","0.0-11.0-0.0-1.13","null","<span style='color:GreenYellow; font-size: 70px;'>正确! </span>","null","","","","","","","","","","","","","","","","","","","","","","","feedback_test"
"","","","","","psychophysics","137","296516","0.0-11.0-0.0-0.14","653","","j","","","","","","","","","","","","","key","j","11.30078620689656","768.8","428.8","j","true","img/T_ambi40.png","常人","prac_simultaneous",""
"","","","","","html-keyboard-response","138","296817","0.0-11.0-0.0-1.14","null","<span style='color:GreenYellow; font-size: 70px;'>正确! </span>","null","","","","","","","","","","","","","","","","","","","","","","","feedback_test"
"","","","","","psychophysics","139","298524","0.0-11.0-0.0-0.15","706","","f","","","","","","","","","","","","","key","f","11.100460526315912","768.8","428.8","f","true","img/C_ambi40.png","常人","prac_simultaneous",""
"","","","","","html-keyboard-response","140","298825","0.0-11.0-0.0-1.15","null","<span style='color:GreenYellow; font-size: 70px;'>正确! </span>","null","","","","","","","","","","","","","","","","","","","","","","","feedback_test"
"","","","","","psychophysics","141","300409","0.0-11.0-0.0-0.16","581","","j","","","","","","","","","","","","","key","j","11.209049999999946","768.8","428.8","j","true","img/C_ambi40.png","好人","prac_simultaneous",""
"","","","","","html-keyboard-response","142","300710","0.0-11.0-0.0-1.16","null","<span style='color:GreenYellow; font-size: 70px;'>正确! </span>","null","","","","","","","","","","","","","","","","","","","","","","","feedback_test"
"","","","","","psychophysics","143","302715","0.0-11.0-0.0-0.17","1004","","j","","","","","","","","","","","","","key","j","11.010038674033366","768.8","428.8","j","true","img/S_ambi40.png","坏人","prac_simultaneous",""
"","","","","","html-keyboard-response","144","303016","0.0-11.0-0.0-1.17","null","<span style='color:GreenYellow; font-size: 70px;'>正确! </span>","null","","","","","","","","","","","","","","","","","","","","","","","feedback_test"
"","","","","","psychophysics","145","304700","0.0-11.0-0.0-0.18","682","","f","","","","","","","","","","","","","key","f","10.80777272727271","768.8","428.8","f","true","img/T_ambi40.png","坏人","prac_simultaneous",""
"","","","","","html-keyboard-response","146","305002","0.0-11.0-0.0-1.18","null","<span style='color:GreenYellow; font-size: 70px;'>正确! </span>","null","","","","","","","","","","","","","","","","","","","","","","","feedback_test"
"","","","","","psychophysics","147","306660","0.0-11.0-0.0-0.19","656","","j","","","","","","","","","","","","","key","j","11.302315068493392","768.8","428.8","f","false","img/T_ambi40.png","好人","prac_simultaneous",""
"","","","","","html-keyboard-response","148","306961","0.0-11.0-0.0-1.19","null","<span style='color:red; font-size: 70px;'>错误! </span>","null","","","","","","","","","","","","","","","","","","","","","","","feedback_test"
"","","","","","psychophysics","149","308704","0.0-11.0-0.0-0.20","741","","j","","","","","","","","","","","","","key","j","11.343414473683975","768.8","428.8","f","false","img/S_ambi40.png","常人","prac_simultaneous",""
"","","","","","html-keyboard-response","150","309005","0.0-11.0-0.0-1.20","null","<span style='color:red; font-size: 70px;'>错误! </span>","null","","","","","","","","","","","","","","","","","","","","","","","feedback_test"
"","","","","","psychophysics","151","310719","0.0-11.0-0.0-0.21","712","","j","","","","","","","","","","","","","key","j","11.027150326797639","768.8","428.8","j","true","img/T_ambi40.png","常人","prac_simultaneous",""
"","","","","","html-keyboard-response","152","311021","0.0-11.0-0.0-1.21","null","<span style='color:GreenYellow; font-size: 70px;'>正确! </span>","null","","","","","","","","","","","","","","","","","","","","","","","feedback_test"
"","","","","","psychophysics","153","313081","0.0-11.0-0.0-0.22","1059","","f","","","","","","","","","","","","","key","f","10.837656084656292","768.8","428.8","f","true","img/S_ambi40.png","好人","prac_simultaneous",""
"","","","","","html-keyboard-response","154","313382","0.0-11.0-0.0-1.22","null","<span style='color:GreenYellow; font-size: 70px;'>正确! </span>","null","","","","","","","","","","","","","","","","","","","","","","","feedback_test"
"","","","","","psychophysics","155","314966","0.0-11.0-0.0-0.23","581","","j","","","","","","","","","","","","","key","j","10.85016666666666","768.8","428.8","j","true","img/C_ambi40.png","好人","prac_simultaneous",""
"","","","","","html-keyboard-response","156","315268","0.0-11.0-0.0-1.23","null","<span style='color:GreenYellow; font-size: 70px;'>正确! </span>","null","","","","","","","","","","","","","","","","","","","","","","","feedback_test"
"","","","","","html-keyboard-response","157","322872","0.0-12.0","7602","<style>.context{color:white; font-size: 35px; line-height:40px}</style>                              <div><p class='context'>您正确回答了83% 的试次。</p><p class='context'>您的平均反应时为740毫秒。</p><p class='context'>恭喜您完成练习。按任意键进入正式实验。</p><p class='footer' style='font-size: 35px; line-height:40px;'>请在进入正式实验实验之前将您的<span style='color: lightgreen;'>食指</span>放在电脑键盘的相应键位上进行按键。</p>"," ","","","","","","","","","","","","","","","","","","","","","","",""
"","","","","","html-keyboard-response","158","329590","0.0-13.0-0.0-0.0","6713","
      <p>请您将手指放在按键上，准备进入呈现顺序为<span style='color: yellow;'>先图形后文字条件</span>的正式匹配任务</p>
      <p> <div style = ""color: green""><按任意键进入下一阶段的匹配任务></div></p>
      "," ","","","","","","","","","","","","","","","","","","","","","","",""
"","","","","","psychophysics","159","331463","0.0-13.0-0.0-1.0-0.0-0.0","721","","j","","","","","","","","","","","","","key","j","11.01904733727835","768.8","428.8","j","true","img/S_ambi40.png","坏人","image_first",""
"","","","","","html-keyboard-response","160","331764","0.0-13.0-0.0-1.0-0.0-1.0","null","<span style='color:GreenYellow; font-size: 70px;'>正确! </span>","null","","","","","","","","","","","","","","","","","","","","","","","feedback_test"
"","","","","","psychophysics","161","333415","0.0-13.0-0.0-1.0-0.0-0.1","499","","j","","","","","","","","","","","","","key","j","10.595551948051737","768.8","428.8","j","true","img/C_ambi40.png","好人","image_first",""
"","","","","","html-keyboard-response","162","333717","0.0-13.0-0.0-1.0-0.0-1.1","null","<span style='color:GreenYellow; font-size: 70px;'>正确! </span>","null","","","","","","","","","","","","","","","","","","","","","","","feedback_test"
"","","","","","psychophysics","163","335608","0.0-13.0-0.0-1.0-0.0-0.2","737","","f","","","","","","","","","","","","","key","f","10.899901162790673","768.8","428.8","f","true","img/S_ambi40.png","常人","image_first",""
"","","","","","html-keyboard-response","164","335909","0.0-13.0-0.0-1.0-0.0-1.2","null","<span style='color:GreenYellow; font-size: 70px;'>正确! </span>","null","","","","","","","","","","","","","","","","","","","","","","","feedback_test"
"","","","","","psychophysics","165","337703","0.0-13.0-0.0-1.0-0.0-0.3","642","","f","","","","","","","","","","","","","key","f","11.2233396226415","768.8","428.8","f","true","img/C_ambi40.png","常人","image_first",""
"","","","","","html-keyboard-response","166","338004","0.0-13.0-0.0-1.0-0.0-1.3","null","<span style='color:GreenYellow; font-size: 70px;'>正确! </span>","null","","","","","","","","","","","","","","","","","","","","","","","feedback_test"
"","","","","","psychophysics","167","340147","0.0-13.0-0.0-1.0-0.0-0.4","990","","f","","","","","","","","","","","","","key","f","10.89590769230794","768.8","428.8","f","true","img/T_ambi40.png","好人","image_first",""
"","","","","","html-keyboard-response","168","340451","0.0-13.0-0.0-1.0-0.0-1.4","null","<span style='color:GreenYellow; font-size: 70px;'>正确! </span>","null","","","","","","","","","","","","","","","","","","","","","","","feedback_test"
"","","","","","psychophysics","169","342141","0.0-13.0-0.0-1.0-0.0-0.5","538","","j","","","","","","","","","","","","","key","j","11.128264900661977","768.8","428.8","j","true","img/S_ambi40.png","坏人","image_first",""
"","","","","","html-keyboard-response","170","342442","0.0-13.0-0.0-1.0-0.0-1.5","null","<span style='color:GreenYellow; font-size: 70px;'>正确! </span>","null","","","","","","","","","","","","","","","","","","","","","","","feedback_test"
"","","","","","psychophysics","171","344194","0.0-13.0-0.0-1.0-0.0-0.6","600","","f","","","","","","","","","","","","","key","f","11.300437908496379","768.8","428.8","f","true","img/S_ambi40.png","好人","image_first",""
"","","","","","html-keyboard-response","172","344495","0.0-13.0-0.0-1.0-0.0-1.6","null","<span style='color:GreenYellow; font-size: 70px;'>正确! </span>","null","","","","","","","","","","","","","","","","","","","","","","","feedback_test"
"","","","","","psychophysics","173","346318","0.0-13.0-0.0-1.0-0.0-0.7","671","","j","","","","","","","","","","","","","key","j","11.144154320987312","768.8","428.8","j","true","img/T_ambi40.png","常人","image_first",""
"","","","","","html-keyboard-response","174","346619","0.0-13.0-0.0-1.0-0.0-1.7","null","<span style='color:GreenYellow; font-size: 70px;'>正确! </span>","null","","","","","","","","","","","","","","","","","","","","","","","feedback_test"
"","","","","","psychophysics","175","348202","0.0-13.0-0.0-1.0-0.0-0.8","432","","j","","","","","","","","","","","","","key","j","10.74840410958899","768.8","428.8","j","true","img/C_ambi40.png","好人","image_first",""
"","","","","","html-keyboard-response","176","348504","0.0-13.0-0.0-1.0-0.0-1.8","null","<span style='color:GreenYellow; font-size: 70px;'>正确! </span>","null","","","","","","","","","","","","","","","","","","","","","","","feedback_test"
"","","","","","psychophysics","177","350181","0.0-13.0-0.0-1.0-0.0-0.9","526","","f","","","","","","","","","","","","","key","f","11.289401360544325","768.8","428.8","f","true","img/T_ambi40.png","坏人","image_first",""
"","","","","","html-keyboard-response","178","350483","0.0-13.0-0.0-1.0-0.0-1.9","null","<span style='color:GreenYellow; font-size: 70px;'>正确! </span>","null","","","","","","","","","","","","","","","","","","","","","","","feedback_test"
"","","","","","psychophysics","179","352264","0.0-13.0-0.0-1.0-0.0-0.10","629","","f","","","","","","","","","","","","","key","f","11.135968553459158","768.8","428.8","f","true","img/C_ambi40.png","坏人","image_first",""
"","","","","","html-keyboard-response","180","352565","0.0-13.0-0.0-1.0-0.0-1.10","null","<span style='color:GreenYellow; font-size: 70px;'>正确! </span>","null","","","","","","","","","","","","","","","","","","","","","","","feedback_test"
"","","","","","psychophysics","181","354342","0.0-13.0-0.0-1.0-0.0-0.11","626","","j","","","","","","","","","","","","","key","j","11.118563291139287","768.8","428.8","j","true","img/T_ambi40.png","常人","image_first",""
"","","","","","html-keyboard-response","182","354644","0.0-13.0-0.0-1.0-0.0-1.11","null","<span style='color:GreenYellow; font-size: 70px;'>正确! </span>","null","","","","","","","","","","","","","","","","","","","","","","","feedback_test"
"","","","","","psychophysics","183","356291","0.0-13.0-0.0-1.0-0.0-0.12","495","","j","","","","","","","","","","","","","key","j","11.062414965986315","768.8","428.8","j","true","img/T_ambi40.png","常人","image_first",""
"","","","","","html-keyboard-response","184","356592","0.0-13.0-0.0-1.0-0.0-1.12","null","<span style='color:GreenYellow; font-size: 70px;'>正确! </span>","null","","","","","","","","","","","","","","","","","","","","","","","feedback_test"
"","","","","","psychophysics","185","358346","0.0-13.0-0.0-1.0-0.0-0.13","602","","f","","","","","","","","","","","","","key","f","10.795074534161387","768.8","428.8","f","true","img/C_ambi40.png","常人","image_first",""
"","","","","","html-keyboard-response","186","358647","0.0-13.0-0.0-1.0-0.0-1.13","null","<span style='color:GreenYellow; font-size: 70px;'>正确! </span>","null","","","","","","","","","","","","","","","","","","","","","","","feedback_test"
"","","","","","psychophysics","187","360745","0.0-13.0-0.0-1.0-0.0-0.14","947","","f","","","","","","","","","","","","","key","f","11.072494680851145","768.8","428.8","f","true","img/S_ambi40.png","常人","image_first",""
"","","","","","html-keyboard-response","188","361047","0.0-13.0-0.0-1.0-0.0-1.14","null","<span style='color:GreenYellow; font-size: 70px;'>正确! </span>","null","","","","","","","","","","","","","","","","","","","","","","","feedback_test"
"","","","","","psychophysics","189","362795","0.0-13.0-0.0-1.0-0.0-0.15","597","","j","","","","","","","","","","","","","key","j","11.242180645161293","768.8","428.8","j","true","img/S_ambi40.png","坏人","image_first",""
"","","","","","html-keyboard-response","190","363097","0.0-13.0-0.0-1.0-0.0-1.15","null","<span style='color:GreenYellow; font-size: 70px;'>正确! </span>","null","","","","","","","","","","","","","","","","","","","","","","","feedback_test"
"","","","","","psychophysics","191","364769","0.0-13.0-0.0-1.0-0.0-0.16","520","","f","","","","","","","","","","","","","key","f","11.063333333333333","768.8","428.8","f","true","img/S_ambi40.png","好人","image_first",""
"","","","","","html-keyboard-response","192","365071","0.0-13.0-0.0-1.0-0.0-1.16","null","<span style='color:GreenYellow; font-size: 70px;'>正确! </span>","null","","","","","","","","","","","","","","","","","","","","","","","feedback_test"
"","","","","","psychophysics","193","366951","0.0-13.0-0.0-1.0-0.0-0.17","728","","f","","","","","","","","","","","","","key","f","11.70399371069181","768.8","428.8","f","true","img/C_ambi40.png","坏人","image_first",""
"","","","","","html-keyboard-response","194","367253","0.0-13.0-0.0-1.0-0.0-1.17","null","<span style='color:GreenYellow; font-size: 70px;'>正确! </span>","null","","","","","","","","","","","","","","","","","","","","","","","feedback_test"
"","","","","","psychophysics","195","368889","0.0-13.0-0.0-1.0-0.0-0.18","484","","j","","","","","","","","","","","","","key","j","11.081253424657218","768.8","428.8","j","true","img/C_ambi40.png","好人","image_first",""
"","","","","","html-keyboard-response","196","369190","0.0-13.0-0.0-1.0-0.0-1.18","null","<span style='color:GreenYellow; font-size: 70px;'>正确! </span>","null","","","","","","","","","","","","","","","","","","","","","","","feedback_test"
"","","","","","psychophysics","197","370905","0.0-13.0-0.0-1.0-0.0-0.19","563","","f","","","","","","","","","","","","","key","f","10.811012658227936","768.8","428.8","j","false","img/T_ambi40.png","常人","image_first",""
"","","","","","html-keyboard-response","198","371207","0.0-13.0-0.0-1.0-0.0-1.19","null","<span style='color:red; font-size: 70px;'>错误! </span>","null","","","","","","","","","","","","","","","","","","","","","","","feedback_test"
"","","","","","psychophysics","199","372894","0.0-13.0-0.0-1.0-0.0-0.20","535","","f","","","","","","","","","","","","","key","f","11.230973154362275","768.8","428.8","f","true","img/T_ambi40.png","坏人","image_first",""
"","","","","","html-keyboard-response","200","373195","0.0-13.0-0.0-1.0-0.0-1.20","null","<span style='color:GreenYellow; font-size: 70px;'>正确! </span>","null","","","","","","","","","","","","","","","","","","","","","","","feedback_test"
"","","","","","psychophysics","201","374919","0.0-13.0-0.0-1.0-0.0-0.21","573","","j","","","","","","","","","","","","","key","j","10.99413461538475","768.8","428.8","j","true","img/C_ambi40.png","好人","image_first",""
"","","","","","html-keyboard-response","202","375220","0.0-13.0-0.0-1.0-0.0-1.21","null","<span style='color:GreenYellow; font-size: 70px;'>正确! </span>","null","","","","","","","","","","","","","","","","","","","","","","","feedback_test"
"","","","","","psychophysics","203","376996","0.0-13.0-0.0-1.0-0.0-0.22","624","","j","","","","","","","","","","","","","key","j","10.954577639751767","768.8","428.8","j","true","img/S_ambi40.png","坏人","image_first",""
"","","","","","html-keyboard-response","204","377299","0.0-13.0-0.0-1.0-0.0-1.22","null","<span style='color:GreenYellow; font-size: 70px;'>正确! </span>","null","","","","","","","","","","","","","","","","","","","","","","","feedback_test"
"","","","","","psychophysics","205","379317","0.0-13.0-0.0-1.0-0.0-0.23","865","","j","","","","","","","","","","","","","key","j","11.086685082872942","768.8","428.8","f","false","img/T_ambi40.png","好人","image_first",""
"","","","","","html-keyboard-response","206","379618","0.0-13.0-0.0-1.0-0.0-1.23","null","<span style='color:red; font-size: 70px;'>错误! </span>","null","","","","","","","","","","","","","","","","","","","","","","","feedback_test"
"","","","","","psychophysics","207","381166","0.0-13.0-0.0-1.0-0.0-0.24","396","","j","","","","","","","","","","","","","key","j","11.538022556391201","768.8","428.8","j","true","img/C_ambi40.png","好人","image_first",""
"","","","","","html-keyboard-response","208","381468","0.0-13.0-0.0-1.0-0.0-1.24","null","<span style='color:GreenYellow; font-size: 70px;'>正确! </span>","null","","","","","","","","","","","","","","","","","","","","","","","feedback_test"
"","","","","","psychophysics","209","383077","0.0-13.0-0.0-1.0-0.0-0.25","458","","f","","","","","","","","","","","","","key","f","10.817034013605388","768.8","428.8","j","false","img/T_ambi40.png","常人","image_first",""
"","","","","","html-keyboard-response","210","383380","0.0-13.0-0.0-1.0-0.0-1.25","null","<span style='color:red; font-size: 70px;'>错误! </span>","null","","","","","","","","","","","","","","","","","","","","","","","feedback_test"
"","","","","","psychophysics","211","385325","0.0-13.0-0.0-1.0-0.0-0.26","794","","f","","","","","","","","","","","","","key","f","10.90580225988728","768.8","428.8","f","true","img/S_ambi40.png","常人","image_first",""
"","","","","","html-keyboard-response","212","385627","0.0-13.0-0.0-1.0-0.0-1.26","null","<span style='color:GreenYellow; font-size: 70px;'>正确! </span>","null","","","","","","","","","","","","","","","","","","","","","","","feedback_test"
"","","","","","psychophysics","213","387485","0.0-13.0-0.0-1.0-0.0-0.27","706","","j","","","","","","","","","","","","","key","j","10.905582352940966","768.8","428.8","j","true","img/T_ambi40.png","常人","image_first",""
"","","","","","html-keyboard-response","214","387787","0.0-13.0-0.0-1.0-0.0-1.27","null","<span style='color:GreenYellow; font-size: 70px;'>正确! </span>","null","","","","","","","","","","","","","","","","","","","","","","","feedback_test"
"","","","","","psychophysics","215","389419","0.0-13.0-0.0-1.0-0.0-0.28","481","","f","","","","","","","","","","","","","key","f","10.598210526315885","768.8","428.8","j","false","img/S_ambi40.png","坏人","image_first",""
"","","","","","html-keyboard-response","216","389721","0.0-13.0-0.0-1.0-0.0-1.28","null","<span style='color:red; font-size: 70px;'>错误! </span>","null","","","","","","","","","","","","","","","","","","","","","","","feedback_test"
"","","","","","psychophysics","217","391485","0.0-13.0-0.0-1.0-0.0-0.29","611","","f","","","","","","","","","","","","","key","f","11.074702531645661","768.8","428.8","f","true","img/S_ambi40.png","好人","image_first",""
"","","","","","html-keyboard-response","218","391787","0.0-13.0-0.0-1.0-0.0-1.29","null","<span style='color:GreenYellow; font-size: 70px;'>正确! </span>","null","","","","","","","","","","","","","","","","","","","","","","","feedback_test"
"","","","","","psychophysics","219","393609","0.0-13.0-0.0-1.0-0.0-0.30","670","","f","","","","","","","","","","","","","key","f","10.941442424242357","768.8","428.8","f","true","img/C_ambi40.png","坏人","image_first",""
"","","","","","html-keyboard-response","220","393910","0.0-13.0-0.0-1.0-0.0-1.30","null","<span style='color:GreenYellow; font-size: 70px;'>正确! </span>","null","","","","","","","","","","","","","","","","","","","","","","","feedback_test"
"","","","","","psychophysics","221","395506","0.0-13.0-0.0-1.0-0.0-0.31","444","","j","","","","","","","","","","","","","key","j","10.84329452054784","768.8","428.8","j","true","img/C_ambi40.png","好人","image_first",""
"","","","","","html-keyboard-response","222","395807","0.0-13.0-0.0-1.0-0.0-1.31","null","<span style='color:GreenYellow; font-size: 70px;'>正确! </span>","null","","","","","","","","","","","","","","","","","","","","","","","feedback_test"
"","","","","","psychophysics","223","397597","0.0-13.0-0.0-1.0-0.0-0.32","638","","f","","","","","","","","","","","","","key","f","11.136000000000067","768.8","428.8","f","true","img/T_ambi40.png","好人","image_first",""
"","","","","","html-keyboard-response","224","397899","0.0-13.0-0.0-1.0-0.0-1.32","null","<span style='color:GreenYellow; font-size: 70px;'>正确! </span>","null","","","","","","","","","","","","","","","","","","","","","","","feedback_test"
"","","","","","psychophysics","225","399455","0.0-13.0-0.0-1.0-0.0-0.33","404","","j","","","","","","","","","","","","","key","j","11.119934782608956","768.8","428.8","f","false","img/C_ambi40.png","常人","image_first",""
"","","","","","html-keyboard-response","226","399758","0.0-13.0-0.0-1.0-0.0-1.33","null","<span style='color:red; font-size: 70px;'>错误! </span>","null","","","","","","","","","","","","","","","","","","","","","","","feedback_test"
"","","","","","psychophysics","227","401314","0.0-13.0-0.0-1.0-0.0-0.34","405","","f","","","","","","","","","","","","","key","f","10.582855172413963","768.8","428.8","f","true","img/T_ambi40.png","坏人","image_first",""
"","","","","","html-keyboard-response","228","401616","0.0-13.0-0.0-1.0-0.0-1.34","null","<span style='color:GreenYellow; font-size: 70px;'>正确! </span>","null","","","","","","","","","","","","","","","","","","","","","","","feedback_test"
"","","","","","psychophysics","229","403238","0.0-13.0-0.0-1.0-0.0-0.35","470","","f","","","","","","","","","","","","","key","f","11.183444444444628","768.8","428.8","j","false","img/S_ambi40.png","坏人","image_first",""
"","","","","","html-keyboard-response","230","403540","0.0-13.0-0.0-1.0-0.0-1.35","null","<span style='color:red; font-size: 70px;'>错误! </span>","null","","","","","","","","","","","","","","","","","","","","","","","feedback_test"
"","","","","","psychophysics","231","405234","0.0-13.0-0.0-1.0-0.0-0.36","543","","j","","","","","","","","","","","","","key","j","11.138072847682421","768.8","428.8","j","true","img/S_ambi40.png","坏人","image_first",""
"","","","","","html-keyboard-response","232","405536","0.0-13.0-0.0-1.0-0.0-1.36","null","<span style='color:GreenYellow; font-size: 70px;'>正确! </span>","null","","","","","","","","","","","","","","","","","","","","","","","feedback_test"
"","","","","","psychophysics","233","407227","0.0-13.0-0.0-1.0-0.0-0.37","539","","f","","","","","","","","","","","","","key","f","11.14629139072826","768.8","428.8","f","true","img/T_ambi40.png","好人","image_first",""
"","","","","","html-keyboard-response","234","407528","0.0-13.0-0.0-1.0-0.0-1.37","null","<span style='color:GreenYellow; font-size: 70px;'>正确! </span>","null","","","","","","","","","","","","","","","","","","","","","","","feedback_test"
"","","","","","psychophysics","235","409343","0.0-13.0-0.0-1.0-0.0-0.38","665","","f","","","","","","","","","","","","","key","f","11.239775000000009","768.8","428.8","f","true","img/T_ambi40.png","坏人","image_first",""
"","","","","","html-keyboard-response","236","409645","0.0-13.0-0.0-1.0-0.0-1.38","null","<span style='color:GreenYellow; font-size: 70px;'>正确! </span>","null","","","","","","","","","","","","","","","","","","","","","","","feedback_test"
"","","","","","psychophysics","237","411246","0.0-13.0-0.0-1.0-0.0-0.39","450","","j","","","","","","","","","","","","","key","j","10.993930555555481","768.8","428.8","j","true","img/C_ambi40.png","好人","image_first",""
"","","","","","html-keyboard-response","238","411548","0.0-13.0-0.0-1.0-0.0-1.39","null","<span style='color:GreenYellow; font-size: 70px;'>正确! </span>","null","","","","","","","","","","","","","","","","","","","","","","","feedback_test"
"","","","","","psychophysics","239","413287","0.0-13.0-0.0-1.0-0.0-0.40","587","","f","","","","","","","","","","","","","key","f","10.695546583850978","768.8","428.8","f","true","img/S_ambi40.png","常人","image_first",""
"","","","","","html-keyboard-response","240","413590","0.0-13.0-0.0-1.0-0.0-1.40","null","<span style='color:GreenYellow; font-size: 70px;'>正确! </span>","null","","","","","","","","","","","","","","","","","","","","","","","feedback_test"
"","","","","","psychophysics","241","415322","0.0-13.0-0.0-1.0-0.0-0.41","580","","f","","","","","","","","","","","","","key","f","11.237763157894445","768.8","428.8","j","false","img/S_ambi40.png","坏人","image_first",""
"","","","","","html-keyboard-response","242","415624","0.0-13.0-0.0-1.0-0.0-1.41","null","<span style='color:red; font-size: 70px;'>错误! </span>","null","","","","","","","","","","","","","","","","","","","","","","","feedback_test"
"","","","","","psychophysics","243","417412","0.0-13.0-0.0-1.0-0.0-0.42","636","","f","","","","","","","","","","","","","key","f","10.862742331288212","768.8","428.8","j","false","img/T_ambi40.png","常人","image_first",""
"","","","","","html-keyboard-response","244","417713","0.0-13.0-0.0-1.0-0.0-1.42","null","<span style='color:red; font-size: 70px;'>错误! </span>","null","","","","","","","","","","","","","","","","","","","","","","","feedback_test"
"","","","","","psychophysics","245","419456","0.0-13.0-0.0-1.0-0.0-0.43","592","","f","","","","","","","","","","","","","key","f","10.806062499999825","768.8","428.8","f","true","img/C_ambi40.png","坏人","image_first",""
"","","","","","html-keyboard-response","246","419758","0.0-13.0-0.0-1.0-0.0-1.43","null","<span style='color:GreenYellow; font-size: 70px;'>正确! </span>","null","","","","","","","","","","","","","","","","","","","","","","","feedback_test"
"","","","","","psychophysics","247","421377","0.0-13.0-0.0-1.0-0.0-0.44","466","","j","","","","","","","","","","","","","key","j","11.168125874125986","768.8","428.8","f","false","img/C_ambi40.png","常人","image_first",""
"","","","","","html-keyboard-response","248","421679","0.0-13.0-0.0-1.0-0.0-1.44","null","<span style='color:red; font-size: 70px;'>错误! </span>","null","","","","","","","","","","","","","","","","","","","","","","","feedback_test"
"","","","","","psychophysics","249","423522","0.0-13.0-0.0-1.0-0.0-0.45","690","","f","","","","","","","","","","","","","key","f","11.485377358490492","768.8","428.8","f","true","img/S_ambi40.png","好人","image_first",""
"","","","","","html-keyboard-response","250","423824","0.0-13.0-0.0-1.0-0.0-1.45","null","<span style='color:GreenYellow; font-size: 70px;'>正确! </span>","null","","","","","","","","","","","","","","","","","","","","","","","feedback_test"
"","","","","","psychophysics","251","425931","0.0-13.0-0.0-1.0-0.0-0.46","957","","j","","","","","","","","","","","","","key","j","10.84467010309268","768.8","428.8","j","true","img/T_ambi40.png","常人","image_first",""
"","","","","","html-keyboard-response","252","426233","0.0-13.0-0.0-1.0-0.0-1.46","null","<span style='color:GreenYellow; font-size: 70px;'>正确! </span>","null","","","","","","","","","","","","","","","","","","","","","","","feedback_test"
"","","","","","psychophysics","253","428174","0.0-13.0-0.0-1.0-0.0-0.47","789","","j","","","","","","","","","","","","","key","j","11.339899408283847","768.8","428.8","j","true","img/C_ambi40.png","好人","image_first",""
"","","","","","html-keyboard-response","254","428476","0.0-13.0-0.0-1.0-0.0-1.47","null","<span style='color:GreenYellow; font-size: 70px;'>正确! </span>","null","","","","","","","","","","","","","","","","","","","","","","","feedback_test"
"","","","","","psychophysics","255","430279","0.0-13.0-0.0-1.0-0.0-0.48","650","","f","","","","","","","","","","","","","key","f","11.196593750000101","768.8","428.8","f","true","img/C_ambi40.png","坏人","image_first",""
"","","","","","html-keyboard-response","256","430580","0.0-13.0-0.0-1.0-0.0-1.48","null","<span style='color:GreenYellow; font-size: 70px;'>正确! </span>","null","","","","","","","","","","","","","","","","","","","","","","","feedback_test"
"","","","","","psychophysics","257","432340","0.0-13.0-0.0-1.0-0.0-0.49","608","","j","","","","","","","","","","","","","key","j","10.781807453416054","768.8","428.8","j","true","img/T_ambi40.png","常人","image_first",""
"","","","","","html-keyboard-response","258","432642","0.0-13.0-0.0-1.0-0.0-1.49","null","<span style='color:GreenYellow; font-size: 70px;'>正确! </span>","null","","","","","","","","","","","","","","","","","","","","","","","feedback_test"
"","","","","","psychophysics","259","434555","0.0-13.0-0.0-1.0-0.0-0.50","761","","j","","","","","","","","","","","","","key","j","10.871759999999776","768.8","428.8","j","true","img/C_ambi40.png","好人","image_first",""
"","","","","","html-keyboard-response","260","434856","0.0-13.0-0.0-1.0-0.0-1.50","null","<span style='color:GreenYellow; font-size: 70px;'>正确! </span>","null","","","","","","","","","","","","","","","","","","","","","","","feedback_test"
"","","","","","psychophysics","261","436672","0.0-13.0-0.0-1.0-0.0-0.51","665","","f","","","","","","","","","","","","","key","f","11.213304347826114","768.8","428.8","j","false","img/T_ambi40.png","常人","image_first",""
"","","","","","html-keyboard-response","262","436973","0.0-13.0-0.0-1.0-0.0-1.51","null","<span style='color:red; font-size: 70px;'>错误! </span>","null","","","","","","","","","","","","","","","","","","","","","","","feedback_test"
"","","","","","psychophysics","263","438566","0.0-13.0-0.0-1.0-0.0-0.52","442","","j","","","","","","","","","","","","","key","j","11.307857142857392","768.8","428.8","j","true","img/C_ambi40.png","好人","image_first",""
"","","","","","html-keyboard-response","264","438868","0.0-13.0-0.0-1.0-0.0-1.52","null","<span style='color:GreenYellow; font-size: 70px;'>正确! </span>","null","","","","","","","","","","","","","","","","","","","","","","","feedback_test"
"","","","","","psychophysics","265","440584","0.0-13.0-0.0-1.0-0.0-0.53","564","","f","","","","","","","","","","","","","key","f","11.417449664429608","768.8","428.8","f","true","img/T_ambi40.png","坏人","image_first",""
"","","","","","html-keyboard-response","266","440886","0.0-13.0-0.0-1.0-0.0-1.53","null","<span style='color:GreenYellow; font-size: 70px;'>正确! </span>","null","","","","","","","","","","","","","","","","","","","","","","","feedback_test"
"","","","","","psychophysics","267","442695","0.0-13.0-0.0-1.0-0.0-0.54","659","","j","","","","","","","","","","","","","key","j","11.033165644171527","768.8","428.8","f","false","img/T_ambi40.png","好人","image_first",""
"","","","","","html-keyboard-response","268","442997","0.0-13.0-0.0-1.0-0.0-1.54","null","<span style='color:red; font-size: 70px;'>错误! </span>","null","","","","","","","","","","","","","","","","","","","","","","","feedback_test"
"","","","","","psychophysics","269","444984","0.0-13.0-0.0-1.0-0.0-0.55","835","","f","","","","","","","","","","","","","key","f","11.078522471910189","768.8","428.8","f","true","img/C_ambi40.png","常人","image_first",""
"","","","","","html-keyboard-response","270","445285","0.0-13.0-0.0-1.0-0.0-1.55","null","<span style='color:GreenYellow; font-size: 70px;'>正确! </span>","null","","","","","","","","","","","","","","","","","","","","","","","feedback_test"
"","","","","","psychophysics","271","447482","0.0-13.0-0.0-1.0-0.0-0.56","1046","","j","","","","","","","","","","","","","key","j","11.04642424242444","768.8","428.8","j","true","img/S_ambi40.png","坏人","image_first",""
"","","","","","html-keyboard-response","272","447784","0.0-13.0-0.0-1.0-0.0-1.56","null","<span style='color:GreenYellow; font-size: 70px;'>正确! </span>","null","","","","","","","","","","","","","","","","","","","","","","","feedback_test"
"","","","","","psychophysics","273","450361","0.0-13.0-0.0-1.0-0.0-0.57","1425","","f","","","","","","","","","","","","","key","f","10.856711864406815","768.8","428.8","f","true","img/S_ambi40.png","常人","image_first",""
"","","","","","html-keyboard-response","274","450662","0.0-13.0-0.0-1.0-0.0-1.57","null","<span style='color:GreenYellow; font-size: 70px;'>正确! </span>","null","","","","","","","","","","","","","","","","","","","","","","","feedback_test"
"","","","","","psychophysics","275","452658","0.0-13.0-0.0-1.0-0.0-0.58","844","","f","","","","","","","","","","","","","key","f","10.85155191256816","768.8","428.8","f","true","img/S_ambi40.png","好人","image_first",""
"","","","","","html-keyboard-response","276","452959","0.0-13.0-0.0-1.0-0.0-1.58","null","<span style='color:GreenYellow; font-size: 70px;'>正确! </span>","null","","","","","","","","","","","","","","","","","","","","","","","feedback_test"
"","","","","","psychophysics","277","454684","0.0-13.0-0.0-1.0-0.0-0.59","573","","j","","","","","","","","","","","","","key","j","10.942230769230846","768.8","428.8","j","true","img/S_ambi40.png","坏人","image_first",""
"","","","","","html-keyboard-response","278","454986","0.0-13.0-0.0-1.0-0.0-1.59","null","<span style='color:GreenYellow; font-size: 70px;'>正确! </span>","null","","","","","","","","","","","","","","","","","","","","","","","feedback_test"
"","","","","","html-keyboard-response","279","457228","0.0-13.0-0.0-1.0-1.0","2241","<style>.context{color:white; font-size: 35px; line-height:40px}</style>                              <div><p class='context'>您正确回答了82% 的试次。</p><p class='context'>您的平均反应时为652毫秒。</p><p class='context'>请按任意键进入休息</p></div>"," ","","","","","","","","","","","","","","","","","","","","","","",""
"","","","","","html-button-response","280","489935","0.0-13.0-0.0-1.0-2.0","32702","
                      <p>您当前还剩余3组实验</p>
                      <p>现在是休息时间，当您结束休息后，您可以点击 结束休息 按钮 继续</p>
                      <p>建议休息时间还剩余<span id=""iii"">60</span>秒</p>","0","","","","","","","","","","","","","","","","","","","","","","",""
"","","","","","psychophysics","281","491851","0.0-13.0-0.0-1.0-0.1-0.60","764","","j","","","","","","","","","","","","","key","j","11.32487500000016","768.8","428.8","j","true","img/S_ambi40.png","坏人","image_first",""
"","","","","","html-keyboard-response","282","492153","0.0-13.0-0.0-1.0-0.1-1.60","null","<span style='color:GreenYellow; font-size: 70px;'>正确! </span>","null","","","","","","","","","","","","","","","","","","","","","","","feedback_test"
"","","","","","psychophysics","283","493729","0.0-13.0-0.0-1.0-0.1-0.61","425","","j","","","","","","","","","","","","","key","j","11.159214285714135","768.8","428.8","j","true","img/C_ambi40.png","好人","image_first",""
"","","","","","html-keyboard-response","284","494030","0.0-13.0-0.0-1.0-0.1-1.61","null","<span style='color:GreenYellow; font-size: 70px;'>正确! </span>","null","","","","","","","","","","","","","","","","","","","","","","","feedback_test"
"","","","","","psychophysics","285","495582","0.0-13.0-0.0-1.0-0.1-0.62","399","","f","","","","","","","","","","","","","key","f","10.93256737588672","768.8","428.8","j","false","img/S_ambi40.png","坏人","image_first",""
"","","","","","html-keyboard-response","286","495883","0.0-13.0-0.0-1.0-0.1-1.62","null","<span style='color:red; font-size: 70px;'>错误! </span>","null","","","","","","","","","","","","","","","","","","","","","","","feedback_test"
"","","","","","psychophysics","287","497567","0.0-13.0-0.0-1.0-0.1-0.63","531","","j","","","","","","","","","","","","","key","j","10.963664473684299","768.8","428.8","j","true","img/T_ambi40.png","常人","image_first",""
"","","","","","html-keyboard-response","288","497870","0.0-13.0-0.0-1.0-0.1-1.63","null","<span style='color:GreenYellow; font-size: 70px;'>正确! </span>","null","","","","","","","","","","","","","","","","","","","","","","","feedback_test"
"","","","","","psychophysics","289","499794","0.0-13.0-0.0-1.0-0.1-0.64","773","","f","","","","","","","","","","","","","key","f","11.366041666666986","768.8","428.8","f","true","img/S_ambi40.png","常人","image_first",""
"","","","","","html-keyboard-response","290","500096","0.0-13.0-0.0-1.0-0.1-1.64","null","<span style='color:GreenYellow; font-size: 70px;'>正确! </span>","null","","","","","","","","","","","","","","","","","","","","","","","feedback_test"
"","","","","","psychophysics","291","501736","0.0-13.0-0.0-1.0-0.1-0.65","489","","j","","","","","","","","","","","","","key","j","11.125760273972434","768.8","428.8","j","true","img/C_ambi40.png","好人","image_first",""
"","","","","","html-keyboard-response","292","502038","0.0-13.0-0.0-1.0-0.1-1.65","null","<span style='color:GreenYellow; font-size: 70px;'>正确! </span>","null","","","","","","","","","","","","","","","","","","","","","","","feedback_test"
"","","","","","psychophysics","293","503852","0.0-13.0-0.0-1.0-0.1-0.66","663","","f","","","","","","","","","","","","","key","f","10.835228915662569","768.8","428.8","f","true","img/S_ambi40.png","好人","image_first",""
"","","","","","html-keyboard-response","294","504155","0.0-13.0-0.0-1.0-0.1-1.66","null","<span style='color:GreenYellow; font-size: 70px;'>正确! </span>","null","","","","","","","","","","","","","","","","","","","","","","","feedback_test"
"","","","","","psychophysics","295","506379","0.0-13.0-0.0-1.0-0.1-0.67","1073","","f","","","","","","","","","","","","","key","f","11.242898477157189","768.8","428.8","f","true","img/T_ambi40.png","坏人","image_first",""
"","","","","","html-keyboard-response","296","506681","0.0-13.0-0.0-1.0-0.1-1.67","null","<span style='color:GreenYellow; font-size: 70px;'>正确! </span>","null","","","","","","","","","","","","","","","","","","","","","","","feedback_test"
"","","","","","psychophysics","297","508380","0.0-13.0-0.0-1.0-0.1-0.68","546","","j","","","","","","","","","","","","","key","j","11.099947368420928","768.8","428.8","j","true","img/T_ambi40.png","常人","image_first",""
"","","","","","html-keyboard-response","298","508682","0.0-13.0-0.0-1.0-0.1-1.68","null","<span style='color:GreenYellow; font-size: 70px;'>正确! </span>","null","","","","","","","","","","","","","","","","","","","","","","","feedback_test"
"","","","","","psychophysics","299","510388","0.0-13.0-0.0-1.0-0.1-0.69","553","","j","","","","","","","","","","","","","key","j","10.953623376623424","768.8","428.8","f","false","img/C_ambi40.png","坏人","image_first",""
"","","","","","html-keyboard-response","300","510689","0.0-13.0-0.0-1.0-0.1-1.69","null","<span style='color:red; font-size: 70px;'>错误! </span>","null","","","","","","","","","","","","","","","","","","","","","","","feedback_test"
"","","","","","psychophysics","301","512657","0.0-13.0-0.0-1.0-0.1-0.70","815","","f","","","","","","","","","","","","","key","f","11.125596590909316","768.8","428.8","f","true","img/T_ambi40.png","好人","image_first",""
"","","","","","html-keyboard-response","302","512958","0.0-13.0-0.0-1.0-0.1-1.70","null","<span style='color:GreenYellow; font-size: 70px;'>正确! </span>","null","","","","","","","","","","","","","","","","","","","","","","","feedback_test"
"","","","","","psychophysics","303","514743","0.0-13.0-0.0-1.0-0.1-0.71","634","","f","","","","","","","","","","","","","key","f","11.092578616352391","768.8","428.8","f","true","img/C_ambi40.png","常人","image_first",""
"","","","","","html-keyboard-response","304","515046","0.0-13.0-0.0-1.0-0.1-1.71","null","<span style='color:GreenYellow; font-size: 70px;'>正确! </span>","null","","","","","","","","","","","","","","","","","","","","","","","feedback_test"
"","","","","","psychophysics","305","517515","0.0-13.0-0.0-1.0-0.1-0.72","1316","","f","","","","","","","","","","","","","key","f","11.421000000000191","768.8","428.8","f","true","img/C_ambi40.png","常人","image_first",""
"","","","","","html-keyboard-response","306","517817","0.0-13.0-0.0-1.0-0.1-1.72","null","<span style='color:GreenYellow; font-size: 70px;'>正确! </span>","null","","","","","","","","","","","","","","","","","","","","","","","feedback_test"
"","","","","","psychophysics","307","520282","0.0-13.0-0.0-1.0-0.1-0.73","1313","","f","","","","","","","","","","","","","key","f","10.893542222222313","768.8","428.8","f","true","img/S_ambi40.png","常人","image_first",""
"","","","","","html-keyboard-response","308","520583","0.0-13.0-0.0-1.0-0.1-1.73","null","<span style='color:GreenYellow; font-size: 70px;'>正确! </span>","null","","","","","","","","","","","","","","","","","","","","","","","feedback_test"
"","","","","","psychophysics","309","522820","0.0-13.0-0.0-1.0-0.1-0.74","1085","","j","","","","","","","","","","","","","key","j","10.73405797101483","768.8","428.8","j","true","img/T_ambi40.png","常人","image_first",""
"","","","","","html-keyboard-response","310","523121","0.0-13.0-0.0-1.0-0.1-1.74","null","<span style='color:GreenYellow; font-size: 70px;'>正确! </span>","null","","","","","","","","","","","","","","","","","","","","","","","feedback_test"
"","","","","","psychophysics","311","524735","0.0-13.0-0.0-1.0-0.1-0.75","462","","j","","","","","","","","","","","","","key","j","10.743891891892025","768.8","428.8","j","true","img/C_ambi40.png","好人","image_first",""
"","","","","","html-keyboard-response","312","525037","0.0-13.0-0.0-1.0-0.1-1.75","null","<span style='color:GreenYellow; font-size: 70px;'>正确! </span>","null","","","","","","","","","","","","","","","","","","","","","","","feedback_test"
"","","","","","psychophysics","313","526649","0.0-13.0-0.0-1.0-0.1-0.76","461","","f","","","","","","","","","","","","","key","f","10.552565789473624","768.8","428.8","f","true","img/C_ambi40.png","坏人","image_first",""
"","","","","","html-keyboard-response","314","526950","0.0-13.0-0.0-1.0-0.1-1.76","null","<span style='color:GreenYellow; font-size: 70px;'>正确! </span>","null","","","","","","","","","","","","","","","","","","","","","","","feedback_test"
"","","","","","psychophysics","315","528704","0.0-13.0-0.0-1.0-0.1-0.77","602","","f","","","","","","","","","","","","","key","f","11.100987261146377","768.8","428.8","f","true","img/T_ambi40.png","好人","image_first",""
"","","","","","html-keyboard-response","316","529006","0.0-13.0-0.0-1.0-0.1-1.77","null","<span style='color:GreenYellow; font-size: 70px;'>正确! </span>","null","","","","","","","","","","","","","","","","","","","","","","","feedback_test"
"","","","","","psychophysics","317","530791","0.0-13.0-0.0-1.0-0.1-0.78","633","","f","","","","","","","","","","","","","key","f","11.13601257861665","768.8","428.8","f","true","img/S_ambi40.png","好人","image_first",""
"","","","","","html-keyboard-response","318","531092","0.0-13.0-0.0-1.0-0.1-1.78","null","<span style='color:GreenYellow; font-size: 70px;'>正确! </span>","null","","","","","","","","","","","","","","","","","","","","","","","feedback_test"
"","","","","","psychophysics","319","532730","0.0-13.0-0.0-1.0-0.1-0.79","487","","j","","","","","","","","","","","","","key","j","11.100401360543957","768.8","428.8","j","true","img/S_ambi40.png","坏人","image_first",""
"","","","","","html-keyboard-response","320","533032","0.0-13.0-0.0-1.0-0.1-1.79","null","<span style='color:GreenYellow; font-size: 70px;'>正确! </span>","null","","","","","","","","","","","","","","","","","","","","","","","feedback_test"
"","","","","","psychophysics","321","534645","0.0-13.0-0.0-1.0-0.1-0.80","461","","j","","","","","","","","","","","","","key","j","11.407435714285489","768.8","428.8","j","true","img/C_ambi40.png","好人","image_first",""
"","","","","","html-keyboard-response","322","534946","0.0-13.0-0.0-1.0-0.1-1.80","null","<span style='color:GreenYellow; font-size: 70px;'>正确! </span>","null","","","","","","","","","","","","","","","","","","","","","","","feedback_test"
"","","","","","psychophysics","323","536877","0.0-13.0-0.0-1.0-0.1-0.81","779","","j","","","","","","","","","","","","","key","j","10.950885714285208","768.8","428.8","f","false","img/T_ambi40.png","坏人","image_first",""
"","","","","","html-keyboard-response","324","537178","0.0-13.0-0.0-1.0-0.1-1.81","null","<span style='color:red; font-size: 70px;'>错误! </span>","null","","","","","","","","","","","","","","","","","","","","","","","feedback_test"
"","","","","","psychophysics","325","538882","0.0-13.0-0.0-1.0-0.1-0.82","552","","f","","","","","","","","","","","","","key","f","10.885541935483625","768.8","428.8","j","false","img/T_ambi40.png","常人","image_first",""
"","","","","","html-keyboard-response","326","539183","0.0-13.0-0.0-1.0-0.1-1.82","null","<span style='color:red; font-size: 70px;'>错误! </span>","null","","","","","","","","","","","","","","","","","","","","","","","feedback_test"
"","","","","","psychophysics","327","541070","0.0-13.0-0.0-1.0-0.1-0.83","736","","j","","","","","","","","","","","","","key","j","10.774580459770126","768.8","428.8","j","true","img/S_ambi40.png","坏人","image_first",""
"","","","","","html-keyboard-response","328","541372","0.0-13.0-0.0-1.0-0.1-1.83","null","<span style='color:GreenYellow; font-size: 70px;'>正确! </span>","null","","","","","","","","","","","","","","","","","","","","","","","feedback_test"
"","","","","","psychophysics","329","543049","0.0-13.0-0.0-1.0-0.1-0.84","525","","j","","","","","","","","","","","","","key","j","11.26000000000066","768.8","428.8","j","true","img/T_ambi40.png","常人","image_first",""
"","","","","","html-keyboard-response","330","543351","0.0-13.0-0.0-1.0-0.1-1.84","null","<span style='color:GreenYellow; font-size: 70px;'>正确! </span>","null","","","","","","","","","","","","","","","","","","","","","","","feedback_test"
"","","","","","psychophysics","331","545374","0.0-13.0-0.0-1.0-0.1-0.85","871","","j","","","","","","","","","","","","","key","j","11.125104972375532","768.8","428.8","f","false","img/C_ambi40.png","常人","image_first",""
"","","","","","html-keyboard-response","332","545676","0.0-13.0-0.0-1.0-0.1-1.85","null","<span style='color:red; font-size: 70px;'>错误! </span>","null","","","","","","","","","","","","","","","","","","","","","","","feedback_test"
"","","","","","psychophysics","333","547262","0.0-13.0-0.0-1.0-0.1-0.86","435","","j","","","","","","","","","","","","","key","j","11.129609929077354","768.8","428.8","j","true","img/C_ambi40.png","好人","image_first",""
"","","","","","html-keyboard-response","334","547563","0.0-13.0-0.0-1.0-0.1-1.86","null","<span style='color:GreenYellow; font-size: 70px;'>正确! </span>","null","","","","","","","","","","","","","","","","","","","","","","","feedback_test"
"","","","","","psychophysics","335","549408","0.0-13.0-0.0-1.0-0.1-0.87","694","","f","","","","","","","","","","","","","key","f","11.000783132529447","768.8","428.8","f","true","img/C_ambi40.png","坏人","image_first",""
"","","","","","html-keyboard-response","336","549709","0.0-13.0-0.0-1.0-0.1-1.87","null","<span style='color:GreenYellow; font-size: 70px;'>正确! </span>","null","","","","","","","","","","","","","","","","","","","","","","","feedback_test"
"","","","","","psychophysics","337","551337","0.0-13.0-0.0-1.0-0.1-0.88","477","","j","","","","","","","","","","","","","key","j","10.929391891892207","768.8","428.8","j","true","img/C_ambi40.png","好人","image_first",""
"","","","","","html-keyboard-response","338","551638","0.0-13.0-0.0-1.0-0.1-1.88","null","<span style='color:GreenYellow; font-size: 70px;'>正确! </span>","null","","","","","","","","","","","","","","","","","","","","","","","feedback_test"
"","","","","","psychophysics","339","553519","0.0-13.0-0.0-1.0-0.1-0.89","730","","f","","","","","","","","","","","","","key","f","11.071059171597406","768.8","428.8","f","true","img/S_ambi40.png","好人","image_first",""
"","","","","","html-keyboard-response","340","553821","0.0-13.0-0.0-1.0-0.1-1.89","null","<span style='color:GreenYellow; font-size: 70px;'>正确! </span>","null","","","","","","","","","","","","","","","","","","","","","","","feedback_test"
"","","","","","psychophysics","341","555464","0.0-13.0-0.0-1.0-0.1-0.90","491","","j","","","","","","","","","","","","","key","j","11.194493150684586","768.8","428.8","j","true","img/S_ambi40.png","坏人","image_first",""
"","","","","","html-keyboard-response","342","555765","0.0-13.0-0.0-1.0-0.1-1.90","null","<span style='color:GreenYellow; font-size: 70px;'>正确! </span>","null","","","","","","","","","","","","","","","","","","","","","","","feedback_test"
"","","","","","psychophysics","343","557517","0.0-13.0-0.0-1.0-0.1-0.91","600","","j","","","","","","","","","","","","","key","j","10.886475000000065","768.8","428.8","f","false","img/T_ambi40.png","好人","image_first",""
"","","","","","html-keyboard-response","344","557818","0.0-13.0-0.0-1.0-0.1-1.91","null","<span style='color:red; font-size: 70px;'>错误! </span>","null","","","","","","","","","","","","","","","","","","","","","","","feedback_test"
"","","","","","psychophysics","345","560055","0.0-13.0-0.0-1.0-0.1-0.92","1085","","f","","","","","","","","","","","","","key","f","10.999366336633534","768.8","428.8","f","true","img/S_ambi40.png","常人","image_first",""
"","","","","","html-keyboard-response","346","560357","0.0-13.0-0.0-1.0-0.1-1.92","null","<span style='color:GreenYellow; font-size: 70px;'>正确! </span>","null","","","","","","","","","","","","","","","","","","","","","","","feedback_test"
"","","","","","psychophysics","347","562080","0.0-13.0-0.0-1.0-0.1-0.93","571","","f","","","","","","","","","","","","","key","f","10.854670886075583","768.8","428.8","j","false","img/S_ambi40.png","坏人","image_first",""
"","","","","","html-keyboard-response","348","562381","0.0-13.0-0.0-1.0-0.1-1.93","null","<span style='color:red; font-size: 70px;'>错误! </span>","null","","","","","","","","","","","","","","","","","","","","","","","feedback_test"
"","","","","","psychophysics","349","564065","0.0-13.0-0.0-1.0-0.1-0.94","532","","f","","","","","","","","","","","","","key","f","11.33627210884374","768.8","428.8","f","true","img/T_ambi40.png","坏人","image_first",""
"","","","","","html-keyboard-response","350","564366","0.0-13.0-0.0-1.0-0.1-1.94","null","<span style='color:GreenYellow; font-size: 70px;'>正确! </span>","null","","","","","","","","","","","","","","","","","","","","","","","feedback_test"
"","","","","","psychophysics","351","566161","0.0-13.0-0.0-1.0-0.1-0.95","643","","j","","","","","","","","","","","","","key","j","10.905361963190321","768.8","428.8","j","true","img/T_ambi40.png","常人","image_first",""
"","","","","","html-keyboard-response","352","566462","0.0-13.0-0.0-1.0-0.1-1.95","null","<span style='color:GreenYellow; font-size: 70px;'>正确! </span>","null","","","","","","","","","","","","","","","","","","","","","","","feedback_test"
"","","","","","psychophysics","353","568130","0.0-13.0-0.0-1.0-0.1-0.96","516","","f","","","","","","","","","","","","","key","f","11.044563758389355","768.8","428.8","f","true","img/T_ambi40.png","好人","image_first",""
"","","","","","html-keyboard-response","354","568432","0.0-13.0-0.0-1.0-0.1-1.96","null","<span style='color:GreenYellow; font-size: 70px;'>正确! </span>","null","","","","","","","","","","","","","","","","","","","","","","","feedback_test"
"","","","","","psychophysics","355","570112","0.0-13.0-0.0-1.0-0.1-0.97","529","","j","","","","","","","","","","","","","key","j","11.383802721088397","768.8","428.8","j","true","img/T_ambi40.png","常人","image_first",""
"","","","","","html-keyboard-response","356","570414","0.0-13.0-0.0-1.0-0.1-1.97","null","<span style='color:GreenYellow; font-size: 70px;'>正确! </span>","null","","","","","","","","","","","","","","","","","","","","","","","feedback_test"
"","","","","","psychophysics","357","572121","0.0-13.0-0.0-1.0-0.1-0.98","555","","f","","","","","","","","","","","","","key","f","11.22021854304653","768.8","428.8","f","true","img/T_ambi40.png","坏人","image_first",""
"","","","","","html-keyboard-response","358","572422","0.0-13.0-0.0-1.0-0.1-1.98","null","<span style='color:GreenYellow; font-size: 70px;'>正确! </span>","null","","","","","","","","","","","","","","","","","","","","","","","feedback_test"
"","","","","","psychophysics","359","574520","0.0-13.0-0.0-1.0-0.1-0.99","946","","f","","","","","","","","","","","","","key","f","10.906413612565444","768.8","428.8","f","true","img/S_ambi40.png","常人","image_first",""
"","","","","","html-keyboard-response","360","574821","0.0-13.0-0.0-1.0-0.1-1.99","null","<span style='color:GreenYellow; font-size: 70px;'>正确! </span>","null","","","","","","","","","","","","","","","","","","","","","","","feedback_test"
"","","","","","psychophysics","361","576591","0.0-13.0-0.0-1.0-0.1-0.100","618","","j","","","","","","","","","","","","","key","j","11.305410256410072","768.8","428.8","j","true","img/C_ambi40.png","好人","image_first",""
"","","","","","html-keyboard-response","362","576893","0.0-13.0-0.0-1.0-0.1-1.100","null","<span style='color:GreenYellow; font-size: 70px;'>正确! </span>","null","","","","","","","","","","","","","","","","","","","","","","","feedback_test"
"","","","","","psychophysics","363","578955","0.0-13.0-0.0-1.0-0.1-0.101","910","","j","","","","","","","","","","","","","key","j","11.443150837988952","768.8","428.8","j","true","img/T_ambi40.png","常人","image_first",""
"","","","","","html-keyboard-response","364","579256","0.0-13.0-0.0-1.0-0.1-1.101","null","<span style='color:GreenYellow; font-size: 70px;'>正确! </span>","null","","","","","","","","","","","","","","","","","","","","","","","feedback_test"
"","","","","","psychophysics","365","581144","0.0-13.0-0.0-1.0-0.1-0.102","736","","f","","","","","","","","","","","","","key","f","10.415450000000419","768.8","428.8","f","true","img/S_ambi40.png","好人","image_first",""
"","","","","","html-keyboard-response","366","581446","0.0-13.0-0.0-1.0-0.1-1.102","null","<span style='color:GreenYellow; font-size: 70px;'>正确! </span>","null","","","","","","","","","","","","","","","","","","","","","","","feedback_test"
"","","","","","psychophysics","367","583145","0.0-13.0-0.0-1.0-0.1-0.103","548","","j","","","","","","","","","","","","","key","j","10.9111753246753","768.8","428.8","j","true","img/S_ambi40.png","坏人","image_first",""
"","","","","","html-keyboard-response","368","583447","0.0-13.0-0.0-1.0-0.1-1.103","null","<span style='color:GreenYellow; font-size: 70px;'>正确! </span>","null","","","","","","","","","","","","","","","","","","","","","","","feedback_test"
"","","","","","psychophysics","369","585169","0.0-13.0-0.0-1.0-0.1-0.104","570","","f","","","","","","","","","","","","","key","f","11.619986394558063","768.8","428.8","f","true","img/C_ambi40.png","常人","image_first",""
"","","","","","html-keyboard-response","370","585471","0.0-13.0-0.0-1.0-0.1-1.104","null","<span style='color:GreenYellow; font-size: 70px;'>正确! </span>","null","","","","","","","","","","","","","","","","","","","","","","","feedback_test"
"","","","","","psychophysics","371","587153","0.0-13.0-0.0-1.0-0.1-0.105","530","","f","","","","","","","","","","","","","key","f","11.009335526315752","768.8","428.8","f","true","img/C_ambi40.png","坏人","image_first",""
"","","","","","html-keyboard-response","372","587456","0.0-13.0-0.0-1.0-0.1-1.105","null","<span style='color:GreenYellow; font-size: 70px;'>正确! </span>","null","","","","","","","","","","","","","","","","","","","","","","","feedback_test"
"","","","","","psychophysics","373","589316","0.0-13.0-0.0-1.0-0.1-0.106","709","","j","","","","","","","","","","","","","key","j","10.928994082840237","768.8","428.8","j","true","img/S_ambi40.png","坏人","image_first",""
"","","","","","html-keyboard-response","374","589619","0.0-13.0-0.0-1.0-0.1-1.106","null","<span style='color:GreenYellow; font-size: 70px;'>正确! </span>","null","","","","","","","","","","","","","","","","","","","","","","","feedback_test"
"","","","","","psychophysics","375","591270","0.0-13.0-0.0-1.0-0.1-0.107","498","","j","","","","","","","","","","","","","key","j","11.176506849315196","768.8","428.8","j","true","img/C_ambi40.png","好人","image_first",""
"","","","","","html-keyboard-response","376","591572","0.0-13.0-0.0-1.0-0.1-1.107","null","<span style='color:GreenYellow; font-size: 70px;'>正确! </span>","null","","","","","","","","","","","","","","","","","","","","","","","feedback_test"
"","","","","","psychophysics","377","593294","0.0-13.0-0.0-1.0-0.1-0.108","569","","f","","","","","","","","","","","","","key","f","11.091532467532595","768.8","428.8","f","true","img/C_ambi40.png","常人","image_first",""
"","","","","","html-keyboard-response","378","593597","0.0-13.0-0.0-1.0-0.1-1.108","null","<span style='color:GreenYellow; font-size: 70px;'>正确! </span>","null","","","","","","","","","","","","","","","","","","","","","","","feedback_test"
"","","","","","psychophysics","379","595461","0.0-13.0-0.0-1.0-0.1-0.109","713","","f","","","","","","","","","","","","","key","f","10.970112426035636","768.8","428.8","f","true","img/S_ambi40.png","好人","image_first",""
"","","","","","html-keyboard-response","380","595763","0.0-13.0-0.0-1.0-0.1-1.109","null","<span style='color:GreenYellow; font-size: 70px;'>正确! </span>","null","","","","","","","","","","","","","","","","","","","","","","","feedback_test"
"","","","","","psychophysics","381","597396","0.0-13.0-0.0-1.0-0.1-0.110","482","","j","","","","","","","","","","","","","key","j","10.978506756756877","768.8","428.8","j","true","img/C_ambi40.png","好人","image_first",""
"","","","","","html-keyboard-response","382","597698","0.0-13.0-0.0-1.0-0.1-1.110","null","<span style='color:GreenYellow; font-size: 70px;'>正确! </span>","null","","","","","","","","","","","","","","","","","","","","","","","feedback_test"
"","","","","","psychophysics","383","599441","0.0-13.0-0.0-1.0-0.1-0.111","592","","f","","","","","","","","","","","","","key","f","11.3462745098038","768.8","428.8","f","true","img/C_ambi40.png","坏人","image_first",""
"","","","","","html-keyboard-response","384","599743","0.0-13.0-0.0-1.0-0.1-1.111","null","<span style='color:GreenYellow; font-size: 70px;'>正确! </span>","null","","","","","","","","","","","","","","","","","","","","","","","feedback_test"
"","","","","","psychophysics","385","601310","0.0-13.0-0.0-1.0-0.1-0.112","416","","j","","","","","","","","","","","","","key","j","11.140453237410394","768.8","428.8","f","false","img/S_ambi40.png","常人","image_first",""
"","","","","","html-keyboard-response","386","601612","0.0-13.0-0.0-1.0-0.1-1.112","null","<span style='color:red; font-size: 70px;'>错误! </span>","null","","","","","","","","","","","","","","","","","","","","","","","feedback_test"
"","","","","","psychophysics","387","603587","0.0-13.0-0.0-1.0-0.1-0.113","823","","j","","","","","","","","","","","","","key","j","11.164198863636226","768.8","428.8","j","true","img/S_ambi40.png","坏人","image_first",""
"","","","","","html-keyboard-response","388","603888","0.0-13.0-0.0-1.0-0.1-1.113","null","<span style='color:GreenYellow; font-size: 70px;'>正确! </span>","null","","","","","","","","","","","","","","","","","","","","","","","feedback_test"
"","","","","","psychophysics","389","605634","0.0-13.0-0.0-1.0-0.1-0.114","594","","f","","","","","","","","","","","","","key","f","11.012509554140358","768.8","428.8","f","true","img/T_ambi40.png","坏人","image_first",""
"","","","","","html-keyboard-response","390","605936","0.0-13.0-0.0-1.0-0.1-1.114","null","<span style='color:GreenYellow; font-size: 70px;'>正确! </span>","null","","","","","","","","","","","","","","","","","","","","","","","feedback_test"
"","","","","","psychophysics","391","607659","0.0-13.0-0.0-1.0-0.1-0.115","572","","j","","","","","","","","","","","","","key","j","10.742471698113665","768.8","428.8","j","true","img/T_ambi40.png","常人","image_first",""
"","","","","","html-keyboard-response","392","607961","0.0-13.0-0.0-1.0-0.1-1.115","null","<span style='color:GreenYellow; font-size: 70px;'>正确! </span>","null","","","","","","","","","","","","","","","","","","","","","","","feedback_test"
"","","","","","psychophysics","393","609866","0.0-13.0-0.0-1.0-0.1-0.116","754","","j","","","","","","","","","","","","","key","j","11.17555621301772","768.8","428.8","j","true","img/S_ambi40.png","坏人","image_first",""
"","","","","","html-keyboard-response","394","610167","0.0-13.0-0.0-1.0-0.1-1.116","null","<span style='color:GreenYellow; font-size: 70px;'>正确! </span>","null","","","","","","","","","","","","","","","","","","","","","","","feedback_test"
"","","","","","psychophysics","395","611775","0.0-13.0-0.0-1.0-0.1-0.117","456","","j","","","","","","","","","","","","","key","j","11.326496453901278","768.8","428.8","j","true","img/C_ambi40.png","好人","image_first",""
"","","","","","html-keyboard-response","396","612076","0.0-13.0-0.0-1.0-0.1-1.117","null","<span style='color:GreenYellow; font-size: 70px;'>正确! </span>","null","","","","","","","","","","","","","","","","","","","","","","","feedback_test"
"","","","","","psychophysics","397","613699","0.0-13.0-0.0-1.0-0.1-0.118","472","","f","","","","","","","","","","","","","key","f","10.986246575342255","768.8","428.8","j","false","img/T_ambi40.png","常人","image_first",""
"","","","","","html-keyboard-response","398","614001","0.0-13.0-0.0-1.0-0.1-1.118","null","<span style='color:red; font-size: 70px;'>错误! </span>","null","","","","","","","","","","","","","","","","","","","","","","","feedback_test"
"","","","","","psychophysics","399","615673","0.0-13.0-0.0-1.0-0.1-0.119","520","","f","","","","","","","","","","","","","key","f","11.213020270270283","768.8","428.8","f","true","img/T_ambi40.png","好人","image_first",""
"","","","","","html-keyboard-response","400","615977","0.0-13.0-0.0-1.0-0.1-1.119","null","<span style='color:GreenYellow; font-size: 70px;'>正确! </span>","null","","","","","","","","","","","","","","","","","","","","","","","feedback_test"
"","","","","","html-keyboard-response","401","618178","0.0-13.0-0.0-1.0-1.1","2200","<style>.context{color:white; font-size: 35px; line-height:40px}</style>                              <div><p class='context'>您正确回答了85% 的试次。</p><p class='context'>您的平均反应时为659毫秒。</p><p class='context'>请按任意键进入休息</p></div>"," ","","","","","","","","","","","","","","","","","","","","","","",""
"","","","","","html-button-response","402","635762","0.0-13.0-0.0-1.0-2.1","17580","
                      <p>您当前还剩余2组实验</p>
                      <p>现在是休息时间，当您结束休息后，您可以点击 结束休息 按钮 继续</p>
                      <p>建议休息时间还剩余<span id=""iii"">60</span>秒</p>","0","","","","","","","","","","","","","","","","","","","","","","",""
"","","","","","psychophysics","403","637632","0.0-13.0-0.0-1.0-0.2-0.120","717","","j","","","","","","","","","","","","","key","j","10.021324324324677","768.8","428.8","f","false","img/T_ambi40.png","坏人","image_first",""
"","","","","","html-keyboard-response","404","637933","0.0-13.0-0.0-1.0-0.2-1.120","null","<span style='color:red; font-size: 70px;'>错误! </span>","null","","","","","","","","","","","","","","","","","","","","","","","feedback_test"
"","","","","","psychophysics","405","639609","0.0-13.0-0.0-1.0-0.2-0.121","524","","f","","","","","","","","","","","","","key","f","9.861053254438106","768.8","428.8","f","true","img/C_ambi40.png","坏人","image_first",""
"","","","","","html-keyboard-response","406","639911","0.0-13.0-0.0-1.0-0.2-1.121","null","<span style='color:GreenYellow; font-size: 70px;'>正确! </span>","null","","","","","","","","","","","","","","","","","","","","","","","feedback_test"
"","","","","","psychophysics","407","641758","0.0-13.0-0.0-1.0-0.2-0.122","694","","f","","","","","","","","","","","","","key","f","9.871227027027164","768.8","428.8","f","true","img/C_ambi40.png","常人","image_first",""
"","","","","","html-keyboard-response","408","642059","0.0-13.0-0.0-1.0-0.2-1.122","null","<span style='color:GreenYellow; font-size: 70px;'>正确! </span>","null","","","","","","","","","","","","","","","","","","","","","","","feedback_test"
"","","","","","psychophysics","409","643904","0.0-13.0-0.0-1.0-0.2-0.123","693","","j","","","","","","","","","","","","","key","j","9.96258152173908","768.8","428.8","j","true","img/T_ambi40.png","常人","image_first",""
"","","","","","html-keyboard-response","410","644205","0.0-13.0-0.0-1.0-0.2-1.123","null","<span style='color:GreenYellow; font-size: 70px;'>正确! </span>","null","","","","","","","","","","","","","","","","","","","","","","","feedback_test"
"","","","","","psychophysics","411","645970","0.0-13.0-0.0-1.0-0.2-0.124","613","","j","","","","","","","","","","","","","key","j","10.333717647058588","768.8","428.8","j","true","img/S_ambi40.png","坏人","image_first",""
"","","","","","html-keyboard-response","412","646273","0.0-13.0-0.0-1.0-0.2-1.124","null","<span style='color:GreenYellow; font-size: 70px;'>正确! </span>","null","","","","","","","","","","","","","","","","","","","","","","","feedback_test"
"","","","","","psychophysics","413","648067","0.0-13.0-0.0-1.0-0.2-0.125","642","","f","","","","","","","","","","","","","key","f","11.366343949044236","768.8","428.8","f","true","img/T_ambi40.png","好人","image_first",""
"","","","","","html-keyboard-response","414","648370","0.0-13.0-0.0-1.0-0.2-1.125","null","<span style='color:GreenYellow; font-size: 70px;'>正确! </span>","null","","","","","","","","","","","","","","","","","","","","","","","feedback_test"
"","","","","","psychophysics","415","650053","0.0-13.0-0.0-1.0-0.2-0.126","531","","f","","","","","","","","","","","","","key","f","10.867409090909128","768.8","428.8","j","false","img/T_ambi40.png","常人","image_first",""
"","","","","","html-keyboard-response","416","650354","0.0-13.0-0.0-1.0-0.2-1.126","null","<span style='color:red; font-size: 70px;'>错误! </span>","null","","","","","","","","","","","","","","","","","","","","","","","feedback_test"
"","","","","","psychophysics","417","651881","0.0-13.0-0.0-1.0-0.2-0.127","374","","j","","","","","","","","","","","","","key","j","10.962492753622508","768.8","428.8","j","true","img/C_ambi40.png","好人","image_first",""
"","","","","","html-keyboard-response","418","652182","0.0-13.0-0.0-1.0-0.2-1.127","null","<span style='color:GreenYellow; font-size: 70px;'>正确! </span>","null","","","","","","","","","","","","","","","","","","","","","","","feedback_test"
"","","","","","psychophysics","419","654333","0.0-13.0-0.0-1.0-0.2-0.128","999","","f","","","","","","","","","","","","","key","f","10.918438775510626","768.8","428.8","f","true","img/S_ambi40.png","常人","image_first",""
"","","","","","html-keyboard-response","420","654635","0.0-13.0-0.0-1.0-0.2-1.128","null","<span style='color:GreenYellow; font-size: 70px;'>正确! </span>","null","","","","","","","","","","","","","","","","","","","","","","","feedback_test"
"","","","","","psychophysics","421","656329","0.0-13.0-0.0-1.0-0.2-0.129","542","","j","","","","","","","","","","","","","key","j","11.027784313725801","768.8","428.8","f","false","img/S_ambi40.png","好人","image_first",""
"","","","","","html-keyboard-response","422","656631","0.0-13.0-0.0-1.0-0.2-1.129","null","<span style='color:red; font-size: 70px;'>错误! </span>","null","","","","","","","","","","","","","","","","","","","","","","","feedback_test"
"","","","","","psychophysics","423","658200","0.0-13.0-0.0-1.0-0.2-0.130","416","","j","","","","","","","","","","","","","key","j","10.752763888889199","768.8","428.8","j","true","img/C_ambi40.png","好人","image_first",""
"","","","","","html-keyboard-response","424","658503","0.0-13.0-0.0-1.0-0.2-1.130","null","<span style='color:GreenYellow; font-size: 70px;'>正确! </span>","null","","","","","","","","","","","","","","","","","","","","","","","feedback_test"
"","","","","","psychophysics","425","660179","0.0-13.0-0.0-1.0-0.2-0.131","524","","f","","","","","","","","","","","","","key","f","11.136778523489964","768.8","428.8","j","false","img/S_ambi40.png","坏人","image_first",""
"","","","","","html-keyboard-response","426","660482","0.0-13.0-0.0-1.0-0.2-1.131","null","<span style='color:red; font-size: 70px;'>错误! </span>","null","","","","","","","","","","","","","","","","","","","","","","","feedback_test"
"","","","","","psychophysics","427","662244","0.0-13.0-0.0-1.0-0.2-0.132","610","","j","","","","","","","","","","","","","key","j","10.801216049382843","768.8","428.8","j","true","img/T_ambi40.png","常人","image_first",""
"","","","","","html-keyboard-response","428","662546","0.0-13.0-0.0-1.0-0.2-1.132","null","<span style='color:GreenYellow; font-size: 70px;'>正确! </span>","null","","","","","","","","","","","","","","","","","","","","","","","feedback_test"
