"success","timeout","failed_images","failed_audio","failed_video","trial_type","trial_index","time_elapsed","internal_node_id","rt","stimulus","response","value","item_width_mm","item_height_mm","item_width_px","px2mm","view_dist_mm","item_width_deg","px2deg","scale_factor","win_width_deg","win_height_deg","view_history","response_type","key_press","avg_frame_time","center_x","center_y","correct_response","correct","Image","word","condition","screen_id"
"true","false","[]","[]","[]","preload","0","562","0.0-0.0","","","","","","","","","","","","","","","","","","","","","","","","","",""
"","","","","","html-keyboard-response","1","17622","0.0-1.0","17059","
     <p>您好，欢迎参加本次实验。</p>
     <p>为充分保障您的权利，请确保您已经知晓并同意《参与实验同意书》以及《数据公开知情同意书》。</p>
     <p>如果您未见过上述内容，请咨询实验员。</p>
     <p>如果您选择继续实验，则表示您已经清楚两份知情同意书的内容并同意。</p>
     <p> <div style = ""color: green""><按任意键至下页></div> </p>
     "," ","","","","","","","","","","","","","","","","","","","","","","",""
"","","","","","html-keyboard-response","2","18254","0.0-2.0","631","
     <p>本实验首先需要您填写一些基本个人信息。</p>
     <p> <div style = ""color: green""><按任意键至下页></div></p>
     "," ","","","","","","","","","","","","","","","","","","","","","","",""
"","","","","","call-function","3","18254","0.0-3.0-0.0","","","","","","","","","","","","","","","","","","","","","","","","","",""
"","","","","","survey-html-form","4","23000","0.0-3.0-1.0","4745","","{""Q0"":""2""}","","","","","","","","","","","","","","","","","","","","","","",""
"","","","","","html-button-response","5","23904","0.0-3.0-2.0","903","<p style = 'color : white'>您的性别</p>","0","","","","","","","","","","","","","","","","","","","","","","",""
"","","","","","survey-html-form","6","26933","0.0-3.0-3.0","3028","","{""Q0"":""2000""}","","","","","","","","","","","","","","","","","","","","","","",""
"","","","","","survey-html-form","7","29048","0.0-3.0-4.0","2115","","{""Q0"":""5""}","","","","","","","","","","","","","","","","","","","","","","",""
"","","","","","virtual-chinrest","8","92453","0.0-4.0","63404","","","","85.6","53.98","493.819502940682","5.765055592470287","495.36","9.87639005881364","50","0.87076350253354","38.4","19.36","","","","","","","","","","","",""
"true","","","","","fullscreen","9","94839","0.0-5.0","","","","","","","","","","","","","","","","","","","","","","","","","",""
"","","","","","instructions","10","134451","0.0-6.0","39612","","","","","","","","","","","","","","[{""page_index"":0,""viewing_time"":2629},{""page_index"":1,""viewing_time"":30336},{""page_index"":2,""viewing_time"":2207},{""page_index"":3,""viewing_time"":4440}]","","","","","","","","","","",""
"","","","","","psychophysics","11","136644","0.0-7.0-0.0-0.0","1040","","f","","","","","","","","","","","","","key","f","7.517803448275863","960","536","f","true","img/T_ambi40.png","坏人","prac_image_first",""
"","","","","","html-keyboard-response","12","136953","0.0-7.0-0.0-1.0","null","<span style='color:GreenYellow; font-size: 70px;'>正确! </span>","null","","","","","","","","","","","","","","","","","","","","","","","feedback_test"
"","","","","","psychophysics","13","138626","0.0-7.0-0.0-0.1","522","","f","","","","","","","","","","","","","key","f","7.64375229357793","960","536","f","true","img/T_ambi40.png","坏人","prac_image_first",""
"","","","","","html-keyboard-response","14","138941","0.0-7.0-0.0-1.1","null","<span style='color:GreenYellow; font-size: 70px;'>正确! </span>","null","","","","","","","","","","","","","","","","","","","","","","","feedback_test"
"","","","","","psychophysics","15","140706","0.0-7.0-0.0-0.2","609","","j","","","","","","","","","","","","","key","j","7.704482456140236","960","536","j","true","img/T_ambi40.png","常人","prac_image_first",""
"","","","","","html-keyboard-response","16","141015","0.0-7.0-0.0-1.2","null","<span style='color:GreenYellow; font-size: 70px;'>正确! </span>","null","","","","","","","","","","","","","","","","","","","","","","","feedback_test"
"","","","","","psychophysics","17","142758","0.0-7.0-0.0-0.3","592","","j","","","","","","","","","","","","","key","j","7.646651982378763","960","536","j","true","img/S_ambi40.png","常人","prac_image_first",""
"","","","","","html-keyboard-response","18","143073","0.0-7.0-0.0-1.3","null","<span style='color:GreenYellow; font-size: 70px;'>正确! </span>","null","","","","","","","","","","","","","","","","","","","","","","","feedback_test"
"","","","","","psychophysics","19","145170","0.0-7.0-0.0-0.4","941","","f","","","","","","","","","","","","","key","f","7.68336029411758","960","536","j","false","img/T_ambi40.png","好人","prac_image_first",""
"","","","","","html-keyboard-response","20","145478","0.0-7.0-0.0-1.4","null","<span style='color:red; font-size: 70px;'>错误! </span>","null","","","","","","","","","","","","","","","","","","","","","","","feedback_test"
"","","","","","psychophysics","21","147947","0.0-7.0-0.0-0.5","1317","","f","","","","","","","","","","","","","key","f","7.633096273291891","960","536","j","false","img/S_ambi40.png","坏人","prac_image_first",""
"","","","","","html-keyboard-response","22","148255","0.0-7.0-0.0-1.5","null","<span style='color:red; font-size: 70px;'>错误! </span>","null","","","","","","","","","","","","","","","","","","","","","","","feedback_test"
"","","","","","psychophysics","23","150350","0.0-7.0-0.0-0.6","943","","j","","","","","","","","","","","","","key","j","7.602233576642398","960","536","f","false","img/S_ambi40.png","好人","prac_image_first",""
"","","","","","html-keyboard-response","24","150664","0.0-7.0-0.0-1.6","null","<span style='color:red; font-size: 70px;'>错误! </span>","null","","","","","","","","","","","","","","","","","","","","","","","feedback_test"
"","","","","","psychophysics","25","153317","0.0-7.0-0.0-0.7","null","","null","","","","","","","","","","","","","key","null","7.692125364431501","960","536","j","false","img/C_ambi40.png","坏人","prac_image_first",""
"","","","","","html-keyboard-response","26","153628","0.0-7.0-0.0-1.7","null","<span class='add_' style='color:yellow; font-size: 70px;'> 太慢! </span>","null","","","","","","","","","","","","","","","","","","","","","","","feedback_test"
"","","","","","psychophysics","27","155360","0.0-7.0-0.0-0.8","579","","f","","","","","","","","","","","","","key","f","7.654143497757896","960","536","f","true","img/C_ambi40.png","常人","prac_image_first",""
"","","","","","html-keyboard-response","28","155674","0.0-7.0-0.0-1.8","null","<span style='color:GreenYellow; font-size: 70px;'>正确! </span>","null","","","","","","","","","","","","","","","","","","","","","","","feedback_test"
"","","","","","psychophysics","29","157399","0.0-7.0-0.0-0.9","571","","f","","","","","","","","","","","","","key","f","7.6561383928571685","960","536","j","false","img/C_ambi40.png","好人","prac_image_first",""
"","","","","","html-keyboard-response","30","157720","0.0-7.0-0.0-1.9","null","<span style='color:red; font-size: 70px;'>错误! </span>","null","","","","","","","","","","","","","","","","","","","","","","","feedback_test"
"","","","","","psychophysics","31","159960","0.0-7.0-0.0-0.10","1089","","j","","","","","","","","","","","","","key","j","7.65889003436424","960","536","f","false","img/C_ambi40.png","常人","prac_image_first",""
"","","","","","html-keyboard-response","32","160280","0.0-7.0-0.0-1.10","null","<span style='color:red; font-size: 70px;'>错误! </span>","null","","","","","","","","","","","","","","","","","","","","","","","feedback_test"
"","","","","","psychophysics","33","162932","0.0-7.0-0.0-0.11","null","","null","","","","","","","","","","","","","key","null","7.669715116279021","960","536","f","false","img/S_ambi40.png","好人","prac_image_first",""
"","","","","","html-keyboard-response","34","163249","0.0-7.0-0.0-1.11","null","<span class='add_' style='color:yellow; font-size: 70px;'> 太慢! </span>","null","","","","","","","","","","","","","","","","","","","","","","","feedback_test"
"","","","","","psychophysics","35","165071","0.0-7.0-0.0-0.12","666","","j","","","","","","","","","","","","","key","j","7.646244725738288","960","536","j","true","img/S_ambi40.png","坏人","prac_image_first",""
"","","","","","html-keyboard-response","36","165394","0.0-7.0-0.0-1.12","null","<span style='color:GreenYellow; font-size: 70px;'>正确! </span>","null","","","","","","","","","","","","","","","","","","","","","","","feedback_test"
"","","","","","psychophysics","37","167215","0.0-7.0-0.0-0.13","671","","j","","","","","","","","","","","","","key","j","7.614365546218415","960","536","j","true","img/T_ambi40.png","好人","prac_image_first",""
"","","","","","html-keyboard-response","38","167531","0.0-7.0-0.0-1.13","null","<span style='color:GreenYellow; font-size: 70px;'>正确! </span>","null","","","","","","","","","","","","","","","","","","","","","","","feedback_test"
"","","","","","psychophysics","39","169275","0.0-7.0-0.0-0.14","591","","f","","","","","","","","","","","","","key","f","7.579899563318739","960","536","j","false","img/T_ambi40.png","常人","prac_image_first",""
"","","","","","html-keyboard-response","40","169593","0.0-7.0-0.0-1.14","null","<span style='color:red; font-size: 70px;'>错误! </span>","null","","","","","","","","","","","","","","","","","","","","","","","feedback_test"
"","","","","","psychophysics","41","171863","0.0-7.0-0.0-0.15","1119","","j","","","","","","","","","","","","","key","j","7.595553691275089","960","536","j","true","img/C_ambi40.png","好人","prac_image_first",""
"","","","","","html-keyboard-response","42","172178","0.0-7.0-0.0-1.15","null","<span style='color:GreenYellow; font-size: 70px;'>正确! </span>","null","","","","","","","","","","","","","","","","","","","","","","","feedback_test"
"","","","","","psychophysics","43","173951","0.0-7.0-0.0-0.16","619","","j","","","","","","","","","","","","","key","j","7.667643478260826","960","536","f","false","img/T_ambi40.png","坏人","prac_image_first",""
"","","","","","html-keyboard-response","44","174263","0.0-7.0-0.0-1.16","null","<span style='color:red; font-size: 70px;'>错误! </span>","null","","","","","","","","","","","","","","","","","","","","","","","feedback_test"
"","","","","","psychophysics","45","176362","0.0-7.0-0.0-0.17","945","","j","","","","","","","","","","","","","key","j","7.680977859778645","960","536","j","true","img/C_ambi40.png","坏人","prac_image_first",""
"","","","","","html-keyboard-response","46","176680","0.0-7.0-0.0-1.17","null","<span style='color:GreenYellow; font-size: 70px;'>正确! </span>","null","","","","","","","","","","","","","","","","","","","","","","","feedback_test"
"","","","","","psychophysics","47","178808","0.0-7.0-0.0-0.18","974","","j","","","","","","","","","","","","","key","j","7.644971119133597","960","536","f","false","img/C_ambi40.png","常人","prac_image_first",""
"","","","","","html-keyboard-response","48","179127","0.0-7.0-0.0-1.18","null","<span style='color:red; font-size: 70px;'>错误! </span>","null","","","","","","","","","","","","","","","","","","","","","","","feedback_test"
"","","","","","psychophysics","49","181613","0.0-7.0-0.0-0.19","1335","","f","","","","","","","","","","","","","key","f","7.650679012345701","960","536","f","true","img/S_ambi40.png","好人","prac_image_first",""
"","","","","","html-keyboard-response","50","181922","0.0-7.0-0.0-1.19","null","<span style='color:GreenYellow; font-size: 70px;'>正确! </span>","null","","","","","","","","","","","","","","","","","","","","","","","feedback_test"
"","","","","","psychophysics","51","183612","0.0-7.0-0.0-0.20","535","","f","","","","","","","","","","","","","key","f","7.672337899543504","960","536","f","true","img/T_ambi40.png","坏人","prac_image_first",""
"","","","","","html-keyboard-response","52","183925","0.0-7.0-0.0-1.20","null","<span style='color:GreenYellow; font-size: 70px;'>正确! </span>","null","","","","","","","","","","","","","","","","","","","","","","","feedback_test"
"","","","","","psychophysics","53","185774","0.0-7.0-0.0-0.21","699","","j","","","","","","","","","","","","","key","j","7.603074380165242","960","536","j","true","img/S_ambi40.png","常人","prac_image_first",""
"","","","","","html-keyboard-response","54","186084","0.0-7.0-0.0-1.21","null","<span style='color:GreenYellow; font-size: 70px;'>正确! </span>","null","","","","","","","","","","","","","","","","","","","","","","","feedback_test"
"","","","","","psychophysics","55","188273","0.0-7.0-0.0-0.22","1030","","f","","","","","","","","","","","","","key","f","7.622951048951115","960","536","f","true","img/S_ambi40.png","好人","prac_image_first",""
"","","","","","html-keyboard-response","56","188582","0.0-7.0-0.0-1.22","null","<span style='color:GreenYellow; font-size: 70px;'>正确! </span>","null","","","","","","","","","","","","","","","","","","","","","","","feedback_test"
"","","","","","psychophysics","57","190597","0.0-7.0-0.0-0.23","863","","j","","","","","","","","","","","","","key","j","7.688057471264307","960","536","f","false","img/C_ambi40.png","常人","prac_image_first",""
"","","","","","html-keyboard-response","58","190909","0.0-7.0-0.0-1.23","null","<span style='color:red; font-size: 70px;'>错误! </span>","null","","","","","","","","","","","","","","","","","","","","","","","feedback_test"
"","","","","","html-keyboard-response","59","193551","0.0-7.0-1.0-0.0","2640","<style>.context{color:white; font-size: 35px; line-height:40px}</style>                              <div><p class='context'>您正确回答了54% 的试次。</p><p class='context'>您的平均反应时为796毫秒。</p>"," ","","","","","","","","","","","","","","","","","","","","","","",""
"","","","","","instructions","60","198531","0.0-7.0-1.0-1.0","4978","","","","","","","","","","","","","","[{""page_index"":0,""viewing_time"":2362},{""page_index"":1,""viewing_time"":1095},{""page_index"":2,""viewing_time"":1520}]","","","","","","","","","","",""
"","","","","","psychophysics","61","200375","0.0-7.1-0.1-0.24","691","","j","","","","","","","","","","","","","key","j","7.627483333333415","960","536","j","true","img/T_ambi40.png","常人","prac_image_first",""
"","","","","","html-keyboard-response","62","200677","0.0-7.1-0.1-1.24","null","<span style='color:GreenYellow; font-size: 70px;'>正确! </span>","null","","","","","","","","","","","","","","","","","","","","","","","feedback_test"
"","","","","","psychophysics","63","202665","0.0-7.1-0.1-0.25","836","","f","","","","","","","","","","","","","key","f","7.610869230769234","960","536","f","true","img/T_ambi40.png","坏人","prac_image_first",""
"","","","","","html-keyboard-response","64","202980","0.0-7.1-0.1-1.25","null","<span style='color:GreenYellow; font-size: 70px;'>正确! </span>","null","","","","","","","","","","","","","","","","","","","","","","","feedback_test"
"","","","","","psychophysics","65","204998","0.0-7.1-0.1-0.26","864","","f","","","","","","","","","","","","","key","f","7.62658396946568","960","536","f","true","img/S_ambi40.png","好人","prac_image_first",""
"","","","","","html-keyboard-response","66","205306","0.0-7.1-0.1-1.26","null","<span style='color:GreenYellow; font-size: 70px;'>正确! </span>","null","","","","","","","","","","","","","","","","","","","","","","","feedback_test"
"","","","","","psychophysics","67","207070","0.0-7.1-0.1-0.27","610","","j","","","","","","","","","","","","","key","j","7.636728070175434","960","536","j","true","img/C_ambi40.png","坏人","prac_image_first",""
"","","","","","html-keyboard-response","68","207376","0.0-7.1-0.1-1.27","null","<span style='color:GreenYellow; font-size: 70px;'>正确! </span>","null","","","","","","","","","","","","","","","","","","","","","","","feedback_test"
"","","","","","psychophysics","69","209498","0.0-7.1-0.1-0.28","969","","j","","","","","","","","","","","","","key","j","7.671682481751816","960","536","j","true","img/T_ambi40.png","好人","prac_image_first",""
"","","","","","html-keyboard-response","70","209808","0.0-7.1-0.1-1.28","null","<span style='color:GreenYellow; font-size: 70px;'>正确! </span>","null","","","","","","","","","","","","","","","","","","","","","","","feedback_test"
"","","","","","psychophysics","71","211736","0.0-7.1-0.1-0.29","777","","f","","","","","","","","","","","","","key","f","7.634784860557676","960","536","f","true","img/C_ambi40.png","常人","prac_image_first",""
"","","","","","html-keyboard-response","72","212056","0.0-7.1-0.1-1.29","null","<span style='color:GreenYellow; font-size: 70px;'>正确! </span>","null","","","","","","","","","","","","","","","","","","","","","","","feedback_test"
"","","","","","psychophysics","73","214146","0.0-7.1-0.1-0.30","938","","j","","","","","","","","","","","","","key","j","7.658062500000062","960","536","j","true","img/C_ambi40.png","好人","prac_image_first",""
"","","","","","html-keyboard-response","74","214456","0.0-7.1-0.1-1.30","null","<span style='color:GreenYellow; font-size: 70px;'>正确! </span>","null","","","","","","","","","","","","","","","","","","","","","","","feedback_test"
"","","","","","psychophysics","75","216276","0.0-7.1-0.1-0.31","665","","f","","","","","","","","","","","","","key","f","7.646244725738411","960","536","f","true","img/T_ambi40.png","坏人","prac_image_first",""
"","","","","","html-keyboard-response","76","216582","0.0-7.1-0.1-1.31","null","<span style='color:GreenYellow; font-size: 70px;'>正确! </span>","null","","","","","","","","","","","","","","","","","","","","","","","feedback_test"
"","","","","","psychophysics","77","218533","0.0-7.1-0.1-0.32","798","","j","","","","","","","","","","","","","key","j","7.656285714285678","960","536","f","false","img/S_ambi40.png","好人","prac_image_first",""
"","","","","","html-keyboard-response","78","218848","0.0-7.1-0.1-1.32","null","<span style='color:red; font-size: 70px;'>错误! </span>","null","","","","","","","","","","","","","","","","","","","","","","","feedback_test"
"","","","","","psychophysics","79","221140","0.0-7.1-0.1-0.33","1142","","j","","","","","","","","","","","","","key","j","7.665345637583945","960","536","j","true","img/S_ambi40.png","坏人","prac_image_first",""
"","","","","","html-keyboard-response","80","221455","0.0-7.1-0.1-1.33","null","<span style='color:GreenYellow; font-size: 70px;'>正确! </span>","null","","","","","","","","","","","","","","","","","","","","","","","feedback_test"
"","","","","","psychophysics","81","223857","0.0-7.1-0.1-0.34","1247","","f","","","","","","","","","","","","","key","f","7.70216077170419","960","536","j","false","img/S_ambi40.png","常人","prac_image_first",""
"","","","","","html-keyboard-response","82","224163","0.0-7.1-0.1-1.34","null","<span style='color:red; font-size: 70px;'>错误! </span>","null","","","","","","","","","","","","","","","","","","","","","","","feedback_test"
"","","","","","psychophysics","83","226107","0.0-7.1-0.1-0.35","790","","j","","","","","","","","","","","","","key","j","7.659071713147394","960","536","f","false","img/C_ambi40.png","常人","prac_image_first",""
"","","","","","html-keyboard-response","84","226425","0.0-7.1-0.1-1.35","null","<span style='color:red; font-size: 70px;'>错误! </span>","null","","","","","","","","","","","","","","","","","","","","","","","feedback_test"
"","","","","","psychophysics","85","228313","0.0-7.1-0.1-0.36","733","","f","","","","","","","","","","","","","key","f","7.680065306122486","960","536","j","false","img/S_ambi40.png","常人","prac_image_first",""
"","","","","","html-keyboard-response","86","228629","0.0-7.1-0.1-1.36","null","<span style='color:red; font-size: 70px;'>错误! </span>","null","","","","","","","","","","","","","","","","","","","","","","","feedback_test"
"","","","","","psychophysics","87","230437","0.0-7.1-0.1-0.37","656","","f","","","","","","","","","","","","","key","f","7.647017094017102","960","536","f","true","img/T_ambi40.png","坏人","prac_image_first",""
"","","","","","html-keyboard-response","88","230751","0.0-7.1-0.1-1.37","null","<span style='color:GreenYellow; font-size: 70px;'>正确! </span>","null","","","","","","","","","","","","","","","","","","","","","","","feedback_test"
"","","","","","psychophysics","89","232628","0.0-7.1-0.1-0.38","722","","j","","","","","","","","","","","","","key","j","7.685711934156486","960","536","f","false","img/T_ambi40.png","坏人","prac_image_first",""
"","","","","","html-keyboard-response","90","232934","0.0-7.1-0.1-1.38","null","<span style='color:red; font-size: 70px;'>错误! </span>","null","","","","","","","","","","","","","","","","","","","","","","","feedback_test"
"","","","","","psychophysics","91","234873","0.0-7.1-0.1-0.39","786","","f","","","","","","","","","","","","","key","f","7.630312252964474","960","536","f","true","img/C_ambi40.png","常人","prac_image_first",""
"","","","","","html-keyboard-response","92","235181","0.0-7.1-0.1-1.39","null","<span style='color:GreenYellow; font-size: 70px;'>正确! </span>","null","","","","","","","","","","","","","","","","","","","","","","","feedback_test"
"","","","","","psychophysics","93","237096","0.0-7.1-0.1-0.40","761","","j","","","","","","","","","","","","","key","j","7.69905645161294","960","536","j","true","img/S_ambi40.png","坏人","prac_image_first",""
"","","","","","html-keyboard-response","94","237412","0.0-7.1-0.1-1.40","null","<span style='color:GreenYellow; font-size: 70px;'>正确! </span>","null","","","","","","","","","","","","","","","","","","","","","","","feedback_test"
"","","","","","psychophysics","95","239268","0.0-7.1-0.1-0.41","703","","f","","","","","","","","","","","","","key","f","7.631694214876013","960","536","f","true","img/S_ambi40.png","好人","prac_image_first",""
"","","","","","html-keyboard-response","96","239586","0.0-7.1-0.1-1.41","null","<span style='color:GreenYellow; font-size: 70px;'>正确! </span>","null","","","","","","","","","","","","","","","","","","","","","","","feedback_test"
"","","","","","psychophysics","97","242238","0.0-7.1-0.1-0.42","null","","null","","","","","","","","","","","","","key","null","7.66764927536234","960","536","j","false","img/C_ambi40.png","坏人","prac_image_first",""
"","","","","","html-keyboard-response","98","242544","0.0-7.1-0.1-1.42","null","<span class='add_' style='color:yellow; font-size: 70px;'> 太慢! </span>","null","","","","","","","","","","","","","","","","","","","","","","","feedback_test"
"","","","","","psychophysics","99","244364","0.0-7.1-0.1-0.43","669","","j","","","","","","","","","","","","","key","j","7.646291139240515","960","536","j","true","img/T_ambi40.png","好人","prac_image_first",""
"","","","","","html-keyboard-response","100","244666","0.0-7.1-0.1-1.43","null","<span style='color:GreenYellow; font-size: 70px;'>正确! </span>","null","","","","","","","","","","","","","","","","","","","","","","","feedback_test"
"","","","","","psychophysics","101","246576","0.0-7.1-0.1-0.44","757","","j","","","","","","","","","","","","","key","j","7.642113821138178","960","536","j","true","img/C_ambi40.png","好人","prac_image_first",""
"","","","","","html-keyboard-response","102","246887","0.0-7.1-0.1-1.44","null","<span style='color:GreenYellow; font-size: 70px;'>正确! </span>","null","","","","","","","","","","","","","","","","","","","","","","","feedback_test"
"","","","","","psychophysics","103","248760","0.0-7.1-0.1-0.45","719","","f","","","","","","","","","","","","","key","f","7.68561728395066","960","536","f","true","img/C_ambi40.png","常人","prac_image_first",""
"","","","","","html-keyboard-response","104","249071","0.0-7.1-0.1-1.45","null","<span style='color:GreenYellow; font-size: 70px;'>正确! </span>","null","","","","","","","","","","","","","","","","","","","","","","","feedback_test"
"","","","","","psychophysics","105","250836","0.0-7.1-0.1-0.46","614","","j","","","","","","","","","","","","","key","j","7.640606986899534","960","536","j","true","img/T_ambi40.png","常人","prac_image_first",""
"","","","","","html-keyboard-response","106","251144","0.0-7.1-0.1-1.46","null","<span style='color:GreenYellow; font-size: 70px;'>正确! </span>","null","","","","","","","","","","","","","","","","","","","","","","","feedback_test"
"","","","","","psychophysics","107","252991","0.0-7.1-0.1-0.47","693","","j","","","","","","","","","","","","","key","j","7.702573839662486","960","536","f","false","img/S_ambi40.png","好人","prac_image_first",""
"","","","","","html-keyboard-response","108","253309","0.0-7.1-0.1-1.47","null","<span style='color:red; font-size: 70px;'>错误! </span>","null","","","","","","","","","","","","","","","","","","","","","","","feedback_test"
"","","","","","html-keyboard-response","109","259458","0.0-8.0","6147","<style>.context{color:white; font-size: 35px; line-height:40px}</style>                              <div><p class='context'>您正确回答了71% 的试次。</p><p class='context'>您的平均反应时为774毫秒。</p><p class='context'>恭喜您完成这一阶段的练习。按任意键进入<span style='color: yellow;'>先文字后图形条件</span>的练习。</p></div>"," ","","","","","","","","","","","","","","","","","","","","","","",""
"","","","","","psychophysics","110","262115","0.0-9.0-0.0-0.0","null","","null","","","","","","","","","","","","","key","null","7.667663768115976","960","536","j","false","img/T_ambi40.png","好人","prac_word_first",""
"","","","","","html-keyboard-response","111","262420","0.0-9.0-0.0-1.0","null","<span class='add_' style='color:yellow; font-size: 70px;'> 太慢! </span>","null","","","","","","","","","","","","","","","","","","","","","","","feedback_test"
"","","","","","psychophysics","112","264284","0.0-9.0-0.0-0.1","711","","f","","","","","","","","","","","","","key","f","7.600641975308426","960","536","f","true","img/S_ambi40.png","好人","prac_word_first",""
"","","","","","html-keyboard-response","113","264598","0.0-9.0-0.0-1.1","null","<span style='color:GreenYellow; font-size: 70px;'>正确! </span>","null","","","","","","","","","","","","","","","","","","","","","","","feedback_test"
"","","","","","psychophysics","114","266373","0.0-9.0-0.0-0.2","619","","j","","","","","","","","","","","","","key","j","7.634497835497912","960","536","j","true","img/S_ambi40.png","坏人","prac_word_first",""
"","","","","","html-keyboard-response","115","266686","0.0-9.0-0.0-1.2","null","<span style='color:GreenYellow; font-size: 70px;'>正确! </span>","null","","","","","","","","","","","","","","","","","","","","","","","feedback_test"
"","","","","","psychophysics","116","268420","0.0-9.0-0.0-0.3","583","","f","","","","","","","","","","","","","key","f","7.653346666666782","960","536","j","false","img/C_ambi40.png","好人","prac_word_first",""
"","","","","","html-keyboard-response","117","268735","0.0-9.0-0.0-1.3","null","<span style='color:red; font-size: 70px;'>错误! </span>","null","","","","","","","","","","","","","","","","","","","","","","","feedback_test"
"","","","","","psychophysics","118","270496","0.0-9.0-0.0-0.4","604","","j","","","","","","","","","","","","","key","j","7.673916666666628","960","536","j","true","img/T_ambi40.png","常人","prac_word_first",""
"","","","","","html-keyboard-response","119","270814","0.0-9.0-0.0-1.4","null","<span style='color:GreenYellow; font-size: 70px;'>正确! </span>","null","","","","","","","","","","","","","","","","","","","","","","","feedback_test"
"","","","","","psychophysics","120","272583","0.0-9.0-0.0-0.5","616","","f","","","","","","","","","","","","","key","f","7.665934210526246","960","536","f","true","img/T_ambi40.png","坏人","prac_word_first",""
"","","","","","html-keyboard-response","121","272904","0.0-9.0-0.0-1.5","null","<span style='color:GreenYellow; font-size: 70px;'>正确! </span>","null","","","","","","","","","","","","","","","","","","","","","","","feedback_test"
"","","","","","psychophysics","122","274692","0.0-9.0-0.0-0.6","635","","j","","","","","","","","","","","","","key","j","7.658796536796414","960","536","j","true","img/C_ambi40.png","坏人","prac_word_first",""
"","","","","","html-keyboard-response","123","275003","0.0-9.0-0.0-1.6","null","<span style='color:GreenYellow; font-size: 70px;'>正确! </span>","null","","","","","","","","","","","","","","","","","","","","","","","feedback_test"
"","","","","","psychophysics","124","276955","0.0-9.0-0.0-0.7","800","","j","","","","","","","","","","","","","key","j","7.567140625000093","960","536","f","false","img/C_ambi40.png","常人","prac_word_first",""
"","","","","","html-keyboard-response","125","277266","0.0-9.0-0.0-1.7","null","<span style='color:red; font-size: 70px;'>错误! </span>","null","","","","","","","","","","","","","","","","","","","","","","","feedback_test"
"","","","","","psychophysics","126","279103","0.0-9.0-0.0-0.8","686","","j","","","","","","","","","","","","","key","j","7.6084833333334245","960","536","j","true","img/S_ambi40.png","常人","prac_word_first",""
"","","","","","html-keyboard-response","127","279407","0.0-9.0-0.0-1.8","null","<span style='color:GreenYellow; font-size: 70px;'>正确! </span>","null","","","","","","","","","","","","","","","","","","","","","","","feedback_test"
"","","","","","psychophysics","128","281135","0.0-9.0-0.0-0.9","572","","f","","","","","","","","","","","","","key","f","7.552061403508752","960","536","f","true","img/S_ambi40.png","好人","prac_word_first",""
"","","","","","html-keyboard-response","129","281447","0.0-9.0-0.0-1.9","null","<span style='color:GreenYellow; font-size: 70px;'>正确! </span>","null","","","","","","","","","","","","","","","","","","","","","","","feedback_test"
"","","","","","psychophysics","130","283450","0.0-9.0-0.0-0.10","853","","j","","","","","","","","","","","","","key","j","7.693633204633254","960","536","f","false","img/T_ambi40.png","坏人","prac_word_first",""
"","","","","","html-keyboard-response","131","283770","0.0-9.0-0.0-1.10","null","<span style='color:red; font-size: 70px;'>错误! </span>","null","","","","","","","","","","","","","","","","","","","","","","","feedback_test"
"","","","","","psychophysics","132","285637","0.0-9.0-0.0-0.11","714","","f","","","","","","","","","","","","","key","f","7.624495867768703","960","536","f","true","img/C_ambi40.png","常人","prac_word_first",""
"","","","","","html-keyboard-response","133","285954","0.0-9.0-0.0-1.11","null","<span style='color:GreenYellow; font-size: 70px;'>正确! </span>","null","","","","","","","","","","","","","","","","","","","","","","","feedback_test"
"","","","","","psychophysics","134","287848","0.0-9.0-0.0-0.12","738","","f","","","","","","","","","","","","","key","f","7.676743902438992","960","536","f","true","img/T_ambi40.png","坏人","prac_word_first",""
"","","","","","html-keyboard-response","135","288157","0.0-9.0-0.0-1.12","null","<span style='color:GreenYellow; font-size: 70px;'>正确! </span>","null","","","","","","","","","","","","","","","","","","","","","","","feedback_test"
"","","","","","psychophysics","136","290125","0.0-9.0-0.0-0.13","813","","j","","","","","","","","","","","","","key","j","7.705545098039176","960","536","j","true","img/S_ambi40.png","坏人","prac_word_first",""
"","","","","","html-keyboard-response","137","290441","0.0-9.0-0.0-1.13","null","<span style='color:GreenYellow; font-size: 70px;'>正确! </span>","null","","","","","","","","","","","","","","","","","","","","","","","feedback_test"
"","","","","","psychophysics","138","292152","0.0-9.0-0.0-0.14","557","","f","","","","","","","","","","","","","key","f","7.628358744394667","960","536","j","false","img/C_ambi40.png","好人","prac_word_first",""
"","","","","","html-keyboard-response","139","292470","0.0-9.0-0.0-1.14","null","<span style='color:red; font-size: 70px;'>错误! </span>","null","","","","","","","","","","","","","","","","","","","","","","","feedback_test"
"","","","","","psychophysics","140","294351","0.0-9.0-0.0-0.15","727","","f","","","","","","","","","","","","","key","f","7.65104115226329","960","536","j","false","img/S_ambi40.png","常人","prac_word_first",""
"","","","","","html-keyboard-response","141","294667","0.0-9.0-0.0-1.15","null","<span style='color:red; font-size: 70px;'>错误! </span>","null","","","","","","","","","","","","","","","","","","","","","","","feedback_test"
"","","","","","psychophysics","142","296571","0.0-9.0-0.0-0.16","750","","j","","","","","","","","","","","","","key","j","7.611975903614391","960","536","f","false","img/S_ambi40.png","好人","prac_word_first",""
"","","","","","html-keyboard-response","143","296877","0.0-9.0-0.0-1.16","null","<span style='color:red; font-size: 70px;'>错误! </span>","null","","","","","","","","","","","","","","","","","","","","","","","feedback_test"
"","","","","","psychophysics","144","299086","0.0-9.0-0.0-0.17","1055","","f","","","","","","","","","","","","","key","f","7.668954703832923","960","536","f","true","img/C_ambi40.png","常人","prac_word_first",""
"","","","","","html-keyboard-response","145","299399","0.0-9.0-0.0-1.17","null","<span style='color:GreenYellow; font-size: 70px;'>正确! </span>","null","","","","","","","","","","","","","","","","","","","","","","","feedback_test"
"","","","","","psychophysics","146","301594","0.0-9.0-0.0-0.18","1042","","j","","","","","","","","","","","","","key","j","7.673940350877309","960","536","f","false","img/S_ambi40.png","好人","prac_word_first",""
"","","","","","html-keyboard-response","147","301898","0.0-9.0-0.0-1.18","null","<span style='color:red; font-size: 70px;'>错误! </span>","null","","","","","","","","","","","","","","","","","","","","","","","feedback_test"
"","","","","","psychophysics","148","304166","0.0-9.0-0.0-0.19","1115","","j","","","","","","","","","","","","","key","j","7.521763333333462","960","536","j","true","img/T_ambi40.png","好人","prac_word_first",""
"","","","","","html-keyboard-response","149","304482","0.0-9.0-0.0-1.19","null","<span style='color:GreenYellow; font-size: 70px;'>正确! </span>","null","","","","","","","","","","","","","","","","","","","","","","","feedback_test"
"","","","","","psychophysics","150","306444","0.0-9.0-0.0-0.20","810","","f","","","","","","","","","","","","","key","f","7.620996093749909","960","536","f","true","img/T_ambi40.png","坏人","prac_word_first",""
"","","","","","html-keyboard-response","151","306756","0.0-9.0-0.0-1.20","null","<span style='color:GreenYellow; font-size: 70px;'>正确! </span>","null","","","","","","","","","","","","","","","","","","","","","","","feedback_test"
"","","","","","psychophysics","152","308732","0.0-9.0-0.0-0.21","820","","j","","","","","","","","","","","","","key","j","7.642589147286824","960","536","j","true","img/T_ambi40.png","常人","prac_word_first",""
"","","","","","html-keyboard-response","153","309050","0.0-9.0-0.0-1.21","null","<span style='color:GreenYellow; font-size: 70px;'>正确! </span>","null","","","","","","","","","","","","","","","","","","","","","","","feedback_test"
"","","","","","psychophysics","154","311355","0.0-9.0-0.0-0.22","1153","","f","","","","","","","","","","","","","key","f","7.6399698996656324","960","536","j","false","img/C_ambi40.png","坏人","prac_word_first",""
"","","","","","html-keyboard-response","155","311667","0.0-9.0-0.0-1.22","null","<span style='color:red; font-size: 70px;'>错误! </span>","null","","","","","","","","","","","","","","","","","","","","","","","feedback_test"
"","","","","","psychophysics","156","313964","0.0-9.0-0.0-0.23","1145","","f","","","","","","","","","","","","","key","f","7.717111486486337","960","536","f","true","img/C_ambi40.png","常人","prac_word_first",""
"","","","","","html-keyboard-response","157","314269","0.0-9.0-0.0-1.23","null","<span style='color:GreenYellow; font-size: 70px;'>正确! </span>","null","","","","","","","","","","","","","","","","","","","","","","","feedback_test"
"","","","","","html-keyboard-response","158","315993","0.0-10.0","1723","<style>.context{color:white; font-size: 35px; line-height:40px}</style>                              <div><p class='context'>您正确回答了63% 的试次。</p><p class='context'>您的平均反应时为777毫秒。</p><p class='context'>恭喜您完成练习。按任意键进入<span style='color: yellow;'>图形和文字同时呈现条件</span>的练习。</p></div>"," ","","","","","","","","","","","","","","","","","","","","","","",""
"","","","","","psychophysics","159","318270","0.0-11.0-0.0-0.0","1270","","f","","","","","","","","","","","","","key","f","7.672799999999885","960","536","f","true","img/C_ambi40.png","常人","prac_simultaneous",""
"","","","","","html-keyboard-response","160","318590","0.0-11.0-0.0-1.0","null","<span style='color:GreenYellow; font-size: 70px;'>正确! </span>","null","","","","","","","","","","","","","","","","","","","","","","","feedback_test"
"","","","","","psychophysics","161","320454","0.0-11.0-0.0-0.1","863","","f","","","","","","","","","","","","","key","f","7.597737704918025","960","536","f","true","img/C_ambi40.png","常人","prac_simultaneous",""
"","","","","","html-keyboard-response","162","320769","0.0-11.0-0.0-1.1","null","<span style='color:GreenYellow; font-size: 70px;'>正确! </span>","null","","","","","","","","","","","","","","","","","","","","","","","feedback_test"
"","","","","","psychophysics","163","322688","0.0-11.0-0.0-0.2","918","","j","","","","","","","","","","","","","key","j","7.639205645161236","960","536","j","true","img/S_ambi40.png","常人","prac_simultaneous",""
"","","","","","html-keyboard-response","164","322999","0.0-11.0-0.0-1.2","null","<span style='color:GreenYellow; font-size: 70px;'>正确! </span>","null","","","","","","","","","","","","","","","","","","","","","","","feedback_test"
"","","","","","psychophysics","165","324953","0.0-11.0-0.0-0.3","953","","j","","","","","","","","","","","","","key","j","7.626661417322686","960","536","j","true","img/S_ambi40.png","坏人","prac_simultaneous",""
"","","","","","html-keyboard-response","166","325273","0.0-11.0-0.0-1.3","null","<span style='color:GreenYellow; font-size: 70px;'>正确! </span>","null","","","","","","","","","","","","","","","","","","","","","","","feedback_test"
"","","","","","psychophysics","167","327589","0.0-11.0-0.0-0.4","1313","","j","","","","","","","","","","","","","key","j","7.681205980066462","960","536","j","true","img/C_ambi40.png","好人","prac_simultaneous",""
"","","","","","html-keyboard-response","168","327903","0.0-11.0-0.0-1.4","null","<span style='color:GreenYellow; font-size: 70px;'>正确! </span>","null","","","","","","","","","","","","","","","","","","","","","","","feedback_test"
"","","","","","psychophysics","169","330104","0.0-11.0-0.0-0.5","1197","","f","","","","","","","","","","","","","key","f","7.698329824561319","960","536","f","true","img/T_ambi40.png","坏人","prac_simultaneous",""
"","","","","","html-keyboard-response","170","330424","0.0-11.0-0.0-1.5","null","<span style='color:GreenYellow; font-size: 70px;'>正确! </span>","null","","","","","","","","","","","","","","","","","","","","","","","feedback_test"
"","","","","","psychophysics","171","332443","0.0-11.0-0.0-0.6","1017","","f","","","","","","","","","","","","","key","f","7.685431297709863","960","536","j","false","img/C_ambi40.png","坏人","prac_simultaneous",""
"","","","","","html-keyboard-response","172","332758","0.0-11.0-0.0-1.6","null","<span style='color:red; font-size: 70px;'>错误! </span>","null","","","","","","","","","","","","","","","","","","","","","","","feedback_test"
"","","","","","psychophysics","173","334713","0.0-11.0-0.0-0.7","951","","j","","","","","","","","","","","","","key","j","7.681078740157275","960","536","j","true","img/T_ambi40.png","常人","prac_simultaneous",""
"","","","","","html-keyboard-response","174","335033","0.0-11.0-0.0-1.7","null","<span style='color:GreenYellow; font-size: 70px;'>正确! </span>","null","","","","","","","","","","","","","","","","","","","","","","","feedback_test"
"","","","","","psychophysics","175","337191","0.0-11.0-0.0-0.8","1153","","j","","","","","","","","","","","","","key","j","7.578823943661967","960","536","f","false","img/S_ambi40.png","好人","prac_simultaneous",""
"","","","","","html-keyboard-response","176","337503","0.0-11.0-0.0-1.8","null","<span style='color:red; font-size: 70px;'>错误! </span>","null","","","","","","","","","","","","","","","","","","","","","","","feedback_test"
"","","","","","psychophysics","177","339302","0.0-11.0-0.0-0.9","792","","j","","","","","","","","","","","","","key","j","7.625688034188128","960","536","j","true","img/T_ambi40.png","好人","prac_simultaneous",""
"","","","","","html-keyboard-response","178","339605","0.0-11.0-0.0-1.9","null","<span style='color:GreenYellow; font-size: 70px;'>正确! </span>","null","","","","","","","","","","","","","","","","","","","","","","","feedback_test"
"","","","","","psychophysics","179","341692","0.0-11.0-0.0-0.10","1085","","f","","","","","","","","","","","","","key","f","7.719746268656689","960","536","f","true","img/S_ambi40.png","好人","prac_simultaneous",""
"","","","","","html-keyboard-response","180","342005","0.0-11.0-0.0-1.10","null","<span style='color:GreenYellow; font-size: 70px;'>正确! </span>","null","","","","","","","","","","","","","","","","","","","","","","","feedback_test"
"","","","","","psychophysics","181","343695","0.0-11.0-0.0-0.11","686","","f","","","","","","","","","","","","","key","f","7.606118181818271","960","536","f","true","img/T_ambi40.png","坏人","prac_simultaneous",""
"","","","","","html-keyboard-response","182","344015","0.0-11.0-0.0-1.11","null","<span style='color:GreenYellow; font-size: 70px;'>正确! </span>","null","","","","","","","","","","","","","","","","","","","","","","","feedback_test"
"","","","","","psychophysics","183","345802","0.0-11.0-0.0-0.12","781","","j","","","","","","","","","","","","","key","j","7.5958333333332835","960","536","j","true","img/T_ambi40.png","好人","prac_simultaneous",""
"","","","","","html-keyboard-response","184","346111","0.0-11.0-0.0-1.12","null","<span style='color:GreenYellow; font-size: 70px;'>正确! </span>","null","","","","","","","","","","","","","","","","","","","","","","","feedback_test"
"","","","","","psychophysics","185","348033","0.0-11.0-0.0-0.13","921","","j","","","","","","","","","","","","","key","j","7.700473684210496","960","536","j","true","img/T_ambi40.png","常人","prac_simultaneous",""
"","","","","","html-keyboard-response","186","348351","0.0-11.0-0.0-1.13","null","<span style='color:GreenYellow; font-size: 70px;'>正确! </span>","null","","","","","","","","","","","","","","","","","","","","","","","feedback_test"
"","","","","","psychophysics","187","350174","0.0-11.0-0.0-0.14","819","","j","","","","","","","","","","","","","key","j","7.67854237288135","960","536","f","false","img/T_ambi40.png","坏人","prac_simultaneous",""
"","","","","","html-keyboard-response","188","350484","0.0-11.0-0.0-1.14","null","<span style='color:red; font-size: 70px;'>错误! </span>","null","","","","","","","","","","","","","","","","","","","","","","","feedback_test"
"","","","","","psychophysics","189","352240","0.0-11.0-0.0-0.15","753","","j","","","","","","","","","","","","","key","j","7.674078947368431","960","536","j","true","img/C_ambi40.png","坏人","prac_simultaneous",""
"","","","","","html-keyboard-response","190","352552","0.0-11.0-0.0-1.15","null","<span style='color:GreenYellow; font-size: 70px;'>正确! </span>","null","","","","","","","","","","","","","","","","","","","","","","","feedback_test"
"","","","","","psychophysics","191","354309","0.0-11.0-0.0-0.16","754","","f","","","","","","","","","","","","","key","f","7.673548245614112","960","536","j","false","img/S_ambi40.png","常人","prac_simultaneous",""
"","","","","","html-keyboard-response","192","354617","0.0-11.0-0.0-1.16","null","<span style='color:red; font-size: 70px;'>错误! </span>","null","","","","","","","","","","","","","","","","","","","","","","","feedback_test"
"","","","","","psychophysics","193","356304","0.0-11.0-0.0-0.17","679","","f","","","","","","","","","","","","","key","f","7.67534101382488","960","536","f","true","img/S_ambi40.png","好人","prac_simultaneous",""
"","","","","","html-keyboard-response","194","356626","0.0-11.0-0.0-1.17","null","<span style='color:GreenYellow; font-size: 70px;'>正确! </span>","null","","","","","","","","","","","","","","","","","","","","","","","feedback_test"
"","","","","","psychophysics","195","358689","0.0-11.0-0.0-0.18","1058","","f","","","","","","","","","","","","","key","f","7.668735074626938","960","536","f","true","img/C_ambi40.png","常人","prac_simultaneous",""
"","","","","","html-keyboard-response","196","358998","0.0-11.0-0.0-1.18","null","<span style='color:GreenYellow; font-size: 70px;'>正确! </span>","null","","","","","","","","","","","","","","","","","","","","","","","feedback_test"
"","","","","","psychophysics","197","360907","0.0-11.0-0.0-0.19","908","","j","","","","","","","","","","","","","key","j","7.674825203251964","960","536","j","true","img/C_ambi40.png","好人","prac_simultaneous",""
"","","","","","html-keyboard-response","198","361215","0.0-11.0-0.0-1.19","null","<span style='color:GreenYellow; font-size: 70px;'>正确! </span>","null","","","","","","","","","","","","","","","","","","","","","","","feedback_test"
"","","","","","psychophysics","199","362863","0.0-11.0-0.0-0.20","642","","f","","","","","","","","","","","","","key","f","7.621167441860361","960","536","f","true","img/S_ambi40.png","好人","prac_simultaneous",""
"","","","","","html-keyboard-response","200","363178","0.0-11.0-0.0-1.20","null","<span style='color:GreenYellow; font-size: 70px;'>正确! </span>","null","","","","","","","","","","","","","","","","","","","","","","","feedback_test"
"","","","","","psychophysics","201","364850","0.0-11.0-0.0-0.21","670","","j","","","","","","","","","","","","","key","j","7.646806451612987","960","536","j","true","img/S_ambi40.png","坏人","prac_simultaneous",""
"","","","","","html-keyboard-response","202","365169","0.0-11.0-0.0-1.21","null","<span style='color:GreenYellow; font-size: 70px;'>正确! </span>","null","","","","","","","","","","","","","","","","","","","","","","","feedback_test"
"","","","","","psychophysics","203","366943","0.0-11.0-0.0-0.22","772","","f","","","","","","","","","","","","","key","f","7.663757575757487","960","536","f","true","img/C_ambi40.png","常人","prac_simultaneous",""
"","","","","","html-keyboard-response","204","367262","0.0-11.0-0.0-1.22","null","<span style='color:GreenYellow; font-size: 70px;'>正确! </span>","null","","","","","","","","","","","","","","","","","","","","","","","feedback_test"
"","","","","","psychophysics","205","369057","0.0-11.0-0.0-0.23","789","","j","","","","","","","","","","","","","key","j","7.625380341880248","960","536","f","false","img/T_ambi40.png","坏人","prac_simultaneous",""
"","","","","","html-keyboard-response","206","369376","0.0-11.0-0.0-1.23","null","<span style='color:red; font-size: 70px;'>错误! </span>","null","","","","","","","","","","","","","","","","","","","","","","","feedback_test"
"","","","","","html-keyboard-response","207","370506","0.0-12.0","1127","<style>.context{color:white; font-size: 35px; line-height:40px}</style>                              <div><p class='context'>您正确回答了79% 的试次。</p><p class='context'>您的平均反应时为906毫秒。</p><p class='context'>恭喜您完成练习。按任意键进入正式实验。</p><p class='footer' style='font-size: 35px; line-height:40px;'>请在进入正式实验实验之前将您的<span style='color: lightgreen;'>食指</span>放在电脑键盘的相应键位上进行按键。</p>"," ","","","","","","","","","","","","","","","","","","","","","","",""
"","","","","","html-keyboard-response","208","375269","0.0-13.0-1.0-0.0","4760","
      <p>请您将手指放在按键上，准备进入呈现顺序为<span style='color: yellow;'>先文字后图形条件</span>的正式匹配任务</p>
      <p> <div style = ""color: green""><按任意键进入下一阶段的匹配任务></div></p>
      "," ","","","","","","","","","","","","","","","","","","","","","","",""
"","","","","","psychophysics","209","377441","0.0-13.0-1.0-1.0-0.0-0.0","1015","","f","","","","","","","","","","","","","key","f","7.681861702127775","960","536","f","true","img/S_ambi40.png","好人","word_first",""
"","","","","","html-keyboard-response","210","377747","0.0-13.0-1.0-1.0-0.0-1.0","null","<span style='color:GreenYellow; font-size: 70px;'>正确! </span>","null","","","","","","","","","","","","","","","","","","","","","","","feedback_test"
"","","","","","psychophysics","211","379399","0.0-13.0-1.0-1.0-0.0-0.1","501","","f","","","","","","","","","","","","","key","f","7.618231481481484","960","536","f","true","img/S_ambi40.png","好人","word_first",""
"","","","","","html-keyboard-response","212","379721","0.0-13.0-1.0-1.0-0.0-1.1","null","<span style='color:GreenYellow; font-size: 70px;'>正确! </span>","null","","","","","","","","","","","","","","","","","","","","","","","feedback_test"
"","","","","","psychophysics","213","381539","0.0-13.0-1.0-1.0-0.0-0.2","662","","f","","","","","","","","","","","","","key","f","7.646164556961794","960","536","j","false","img/T_ambi40.png","常人","word_first",""
"","","","","","html-keyboard-response","214","381848","0.0-13.0-1.0-1.0-0.0-1.2","null","<span style='color:red; font-size: 70px;'>错误! </span>","null","","","","","","","","","","","","","","","","","","","","","","","feedback_test"
"","","","","","psychophysics","215","384023","0.0-13.0-1.0-1.0-0.0-0.3","1022","","f","","","","","","","","","","","","","key","f","7.654392226148304","960","536","f","true","img/T_ambi40.png","坏人","word_first",""
"","","","","","html-keyboard-response","216","384338","0.0-13.0-1.0-1.0-0.0-1.3","null","<span style='color:GreenYellow; font-size: 70px;'>正确! </span>","null","","","","","","","","","","","","","","","","","","","","","","","feedback_test"
"","","","","","psychophysics","217","386059","0.0-13.0-1.0-1.0-0.0-0.4","567","","f","","","","","","","","","","","","","key","f","7.690372197309325","960","536","j","false","img/C_ambi40.png","好人","word_first",""
"","","","","","html-keyboard-response","218","386359","0.0-13.0-1.0-1.0-0.0-1.4","null","<span style='color:red; font-size: 70px;'>错误! </span>","null","","","","","","","","","","","","","","","","","","","","","","","feedback_test"
"","","","","","psychophysics","219","388190","0.0-13.0-1.0-1.0-0.0-0.5","676","","f","","","","","","","","","","","","","key","f","7.672243697479017","960","536","j","false","img/T_ambi40.png","好人","word_first",""
"","","","","","html-keyboard-response","220","388501","0.0-13.0-1.0-1.0-0.0-1.5","null","<span style='color:red; font-size: 70px;'>错误! </span>","null","","","","","","","","","","","","","","","","","","","","","","","feedback_test"
"","","","","","psychophysics","221","390220","0.0-13.0-1.0-1.0-0.0-0.6","567","","j","","","","","","","","","","","","","key","j","7.594727678571352","960","536","j","true","img/S_ambi40.png","坏人","word_first",""
"","","","","","html-keyboard-response","222","390527","0.0-13.0-1.0-1.0-0.0-1.6","null","<span style='color:GreenYellow; font-size: 70px;'>正确! </span>","null","","","","","","","","","","","","","","","","","","","","","","","feedback_test"
"","","","","","psychophysics","223","392373","0.0-13.0-1.0-1.0-0.0-0.7","693","","f","","","","","","","","","","","","","key","f","7.698092827004113","960","536","j","false","img/S_ambi40.png","常人","word_first",""
"","","","","","html-keyboard-response","224","392687","0.0-13.0-1.0-1.0-0.0-1.7","null","<span style='color:red; font-size: 70px;'>错误! </span>","null","","","","","","","","","","","","","","","","","","","","","","","feedback_test"
"","","","","","psychophysics","225","394465","0.0-13.0-1.0-1.0-0.0-0.8","626","","f","","","","","","","","","","","","","key","f","7.664558441558343","960","536","f","true","img/C_ambi40.png","常人","word_first",""
"","","","","","html-keyboard-response","226","394785","0.0-13.0-1.0-1.0-0.0-1.8","null","<span style='color:GreenYellow; font-size: 70px;'>正确! </span>","null","","","","","","","","","","","","","","","","","","","","","","","feedback_test"
"","","","","","psychophysics","227","396483","0.0-13.0-1.0-1.0-0.0-0.9","547","","f","","","","","","","","","","","","","key","f","7.600018018017877","960","536","f","true","img/C_ambi40.png","常人","word_first",""
"","","","","","html-keyboard-response","228","396794","0.0-13.0-1.0-1.0-0.0-1.9","null","<span style='color:GreenYellow; font-size: 70px;'>正确! </span>","null","","","","","","","","","","","","","","","","","","","","","","","feedback_test"
"","","","","","psychophysics","229","398516","0.0-13.0-1.0-1.0-0.0-0.10","566","","j","","","","","","","","","","","","","key","j","7.69059641255591","960","536","f","false","img/T_ambi40.png","坏人","word_first",""
"","","","","","html-keyboard-response","230","398823","0.0-13.0-1.0-1.0-0.0-1.10","null","<span style='color:red; font-size: 70px;'>错误! </span>","null","","","","","","","","","","","","","","","","","","","","","","","feedback_test"
"","","","","","psychophysics","231","400681","0.0-13.0-1.0-1.0-0.0-0.11","704","","j","","","","","","","","","","","","","key","j","7.666341666666752","960","536","j","true","img/C_ambi40.png","坏人","word_first",""
"","","","","","html-keyboard-response","232","400992","0.0-13.0-1.0-1.0-0.0-1.11","null","<span style='color:GreenYellow; font-size: 70px;'>正确! </span>","null","","","","","","","","","","","","","","","","","","","","","","","feedback_test"
"","","","","","psychophysics","233","402667","0.0-13.0-1.0-1.0-0.0-0.12","524","","f","","","","","","","","","","","","","key","f","7.574259090909089","960","536","f","true","img/T_ambi40.png","坏人","word_first",""
"","","","","","html-keyboard-response","234","402979","0.0-13.0-1.0-1.0-0.0-1.12","null","<span style='color:GreenYellow; font-size: 70px;'>正确! </span>","null","","","","","","","","","","","","","","","","","","","","","","","feedback_test"
"","","","","","psychophysics","235","405076","0.0-13.0-1.0-1.0-0.0-0.13","946","","j","","","","","","","","","","","","","key","j","7.655366300366223","960","536","j","true","img/S_ambi40.png","常人","word_first",""
"","","","","","html-keyboard-response","236","405393","0.0-13.0-1.0-1.0-0.0-1.13","null","<span style='color:GreenYellow; font-size: 70px;'>正确! </span>","null","","","","","","","","","","","","","","","","","","","","","","","feedback_test"
"","","","","","psychophysics","237","407582","0.0-13.0-1.0-1.0-0.0-0.14","1036","","f","","","","","","","","","","","","","key","f","7.649554385964987","960","536","f","true","img/S_ambi40.png","好人","word_first",""
"","","","","","html-keyboard-response","238","407896","0.0-13.0-1.0-1.0-0.0-1.14","null","<span style='color:GreenYellow; font-size: 70px;'>正确! </span>","null","","","","","","","","","","","","","","","","","","","","","","","feedback_test"
"","","","","","psychophysics","239","409703","0.0-13.0-1.0-1.0-0.0-0.15","652","","j","","","","","","","","","","","","","key","j","7.718030042918359","960","536","j","true","img/C_ambi40.png","好人","word_first",""
"","","","","","html-keyboard-response","240","410005","0.0-13.0-1.0-1.0-0.0-1.15","null","<span style='color:GreenYellow; font-size: 70px;'>正确! </span>","null","","","","","","","","","","","","","","","","","","","","","","","feedback_test"
"","","","","","psychophysics","241","411814","0.0-13.0-1.0-1.0-0.0-0.16","658","","f","","","","","","","","","","","","","key","f","7.652255319149055","960","536","f","true","img/C_ambi40.png","常人","word_first",""
"","","","","","html-keyboard-response","242","412131","0.0-13.0-1.0-1.0-0.0-1.16","null","<span style='color:GreenYellow; font-size: 70px;'>正确! </span>","null","","","","","","","","","","","","","","","","","","","","","","","feedback_test"
"","","","","","psychophysics","243","413859","0.0-13.0-1.0-1.0-0.0-0.17","578","","j","","","","","","","","","","","","","key","j","7.687058035714342","960","536","j","true","img/T_ambi40.png","常人","word_first",""
"","","","","","html-keyboard-response","244","414176","0.0-13.0-1.0-1.0-0.0-1.17","null","<span style='color:GreenYellow; font-size: 70px;'>正确! </span>","null","","","","","","","","","","","","","","","","","","","","","","","feedback_test"
"","","","","","psychophysics","245","416132","0.0-13.0-1.0-1.0-0.0-0.18","804","","j","","","","","","","","","","","","","key","j","7.596458823529447","960","536","j","true","img/T_ambi40.png","好人","word_first",""
"","","","","","html-keyboard-response","246","416444","0.0-13.0-1.0-1.0-0.0-1.18","null","<span style='color:GreenYellow; font-size: 70px;'>正确! </span>","null","","","","","","","","","","","","","","","","","","","","","","","feedback_test"
"","","","","","psychophysics","247","418794","0.0-13.0-1.0-1.0-0.0-0.19","1198","","j","","","","","","","","","","","","","key","j","7.694445901639286","960","536","j","true","img/S_ambi40.png","坏人","word_first",""
"","","","","","html-keyboard-response","248","419101","0.0-13.0-1.0-1.0-0.0-1.19","null","<span style='color:GreenYellow; font-size: 70px;'>正确! </span>","null","","","","","","","","","","","","","","","","","","","","","","","feedback_test"
"","","","","","psychophysics","249","420865","0.0-13.0-1.0-1.0-0.0-0.20","612","","f","","","","","","","","","","","","","key","f","7.670558951965149","960","536","f","true","img/C_ambi40.png","常人","word_first",""
"","","","","","html-keyboard-response","250","421183","0.0-13.0-1.0-1.0-0.0-1.20","null","<span style='color:GreenYellow; font-size: 70px;'>正确! </span>","null","","","","","","","","","","","","","","","","","","","","","","","feedback_test"
"","","","","","psychophysics","251","423155","0.0-13.0-1.0-1.0-0.0-0.21","821","","j","","","","","","","","","","","","","key","j","7.615910852713286","960","536","j","true","img/C_ambi40.png","坏人","word_first",""
"","","","","","html-keyboard-response","252","423474","0.0-13.0-1.0-1.0-0.0-1.21","null","<span style='color:GreenYellow; font-size: 70px;'>正确! </span>","null","","","","","","","","","","","","","","","","","","","","","","","feedback_test"
"","","","","","psychophysics","253","425073","0.0-13.0-1.0-1.0-0.0-0.22","447","","f","","","","","","","","","","","","","key","f","7.60758373205735","960","536","f","true","img/T_ambi40.png","坏人","word_first",""
"","","","","","html-keyboard-response","254","425381","0.0-13.0-1.0-1.0-0.0-1.22","null","<span style='color:GreenYellow; font-size: 70px;'>正确! </span>","null","","","","","","","","","","","","","","","","","","","","","","","feedback_test"
"","","","","","psychophysics","255","427555","0.0-13.0-1.0-1.0-0.0-0.23","1019","","f","","","","","","","","","","","","","key","f","7.6817553191489525","960","536","f","true","img/S_ambi40.png","好人","word_first",""
"","","","","","html-keyboard-response","256","427862","0.0-13.0-1.0-1.0-0.0-1.23","null","<span style='color:GreenYellow; font-size: 70px;'>正确! </span>","null","","","","","","","","","","","","","","","","","","","","","","","feedback_test"
"","","","","","psychophysics","257","429946","0.0-13.0-1.0-1.0-0.0-0.24","932","","j","","","","","","","","","","","","","key","j","7.632746323529479","960","536","j","true","img/S_ambi40.png","坏人","word_first",""
"","","","","","html-keyboard-response","258","430265","0.0-13.0-1.0-1.0-0.0-1.24","null","<span style='color:GreenYellow; font-size: 70px;'>正确! </span>","null","","","","","","","","","","","","","","","","","","","","","","","feedback_test"
"","","","","","psychophysics","259","432616","0.0-13.0-1.0-1.0-0.0-0.25","1199","","j","","","","","","","","","","","","","key","j","7.621768729641604","960","536","j","true","img/T_ambi40.png","好人","word_first",""
"","","","","","html-keyboard-response","260","432917","0.0-13.0-1.0-1.0-0.0-1.25","null","<span style='color:GreenYellow; font-size: 70px;'>正确! </span>","null","","","","","","","","","","","","","","","","","","","","","","","feedback_test"
"","","","","","psychophysics","261","434992","0.0-13.0-1.0-1.0-0.0-0.26","924","","f","","","","","","","","","","","","","key","f","7.69160223048337","960","536","j","false","img/C_ambi40.png","好人","word_first",""
"","","","","","html-keyboard-response","262","435306","0.0-13.0-1.0-1.0-0.0-1.26","null","<span style='color:red; font-size: 70px;'>错误! </span>","null","","","","","","","","","","","","","","","","","","","","","","","feedback_test"
"","","","","","psychophysics","263","437036","0.0-13.0-1.0-1.0-0.0-0.27","578","","j","","","","","","","","","","","","","key","j","7.68695982142864","960","536","j","true","img/T_ambi40.png","常人","word_first",""
"","","","","","html-keyboard-response","264","437341","0.0-13.0-1.0-1.0-0.0-1.27","null","<span style='color:GreenYellow; font-size: 70px;'>正确! </span>","null","","","","","","","","","","","","","","","","","","","","","","","feedback_test"
"","","","","","psychophysics","265","439473","0.0-13.0-1.0-1.0-0.0-0.28","975","","f","","","","","","","","","","","","","key","f","7.6978043478260245","960","536","f","true","img/S_ambi40.png","好人","word_first",""
"","","","","","html-keyboard-response","266","439790","0.0-13.0-1.0-1.0-0.0-1.28","null","<span style='color:GreenYellow; font-size: 70px;'>正确! </span>","null","","","","","","","","","","","","","","","","","","","","","","","feedback_test"
"","","","","","psychophysics","267","441483","0.0-13.0-1.0-1.0-0.0-0.29","541","","f","","","","","","","","","","","","","key","f","7.6028597285068695","960","536","f","true","img/S_ambi40.png","好人","word_first",""
"","","","","","html-keyboard-response","268","441793","0.0-13.0-1.0-1.0-0.0-1.29","null","<span style='color:GreenYellow; font-size: 70px;'>正确! </span>","null","","","","","","","","","","","","","","","","","","","","","","","feedback_test"
"","","","","","psychophysics","269","444169","0.0-13.0-1.0-1.0-0.0-0.30","1221","","j","","","","","","","","","","","","","key","j","7.664519480519547","960","536","j","true","img/C_ambi40.png","坏人","word_first",""
"","","","","","html-keyboard-response","270","444479","0.0-13.0-1.0-1.0-0.0-1.30","null","<span style='color:GreenYellow; font-size: 70px;'>正确! </span>","null","","","","","","","","","","","","","","","","","","","","","","","feedback_test"
"","","","","","psychophysics","271","446282","0.0-13.0-1.0-1.0-0.0-0.31","653","","f","","","","","","","","","","","","","key","f","7.620385593220432","960","536","f","true","img/C_ambi40.png","常人","word_first",""
"","","","","","html-keyboard-response","272","446591","0.0-13.0-1.0-1.0-0.0-1.31","null","<span style='color:GreenYellow; font-size: 70px;'>正确! </span>","null","","","","","","","","","","","","","","","","","","","","","","","feedback_test"
"","","","","","psychophysics","273","448289","0.0-13.0-1.0-1.0-0.0-0.32","543","","j","","","","","","","","","","","","","key","j","7.635122171945541","960","536","j","true","img/S_ambi40.png","常人","word_first",""
"","","","","","html-keyboard-response","274","448599","0.0-13.0-1.0-1.0-0.0-1.32","null","<span style='color:GreenYellow; font-size: 70px;'>正确! </span>","null","","","","","","","","","","","","","","","","","","","","","","","feedback_test"
"","","","","","psychophysics","275","450198","0.0-13.0-1.0-1.0-0.0-0.33","445","","f","","","","","","","","","","","","","key","f","7.609043269230684","960","536","f","true","img/C_ambi40.png","常人","word_first",""
"","","","","","html-keyboard-response","276","450501","0.0-13.0-1.0-1.0-0.0-1.33","null","<span style='color:GreenYellow; font-size: 70px;'>正确! </span>","null","","","","","","","","","","","","","","","","","","","","","","","feedback_test"
"","","","","","psychophysics","277","452250","0.0-13.0-1.0-1.0-0.0-0.34","595","","j","","","","","","","","","","","","","key","j","7.643991150442548","960","536","f","false","img/T_ambi40.png","坏人","word_first",""
"","","","","","html-keyboard-response","278","452558","0.0-13.0-1.0-1.0-0.0-1.34","null","<span style='color:red; font-size: 70px;'>错误! </span>","null","","","","","","","","","","","","","","","","","","","","","","","feedback_test"
"","","","","","psychophysics","279","454157","0.0-13.0-1.0-1.0-0.0-0.35","440","","f","","","","","","","","","","","","","key","f","7.611817307692176","960","536","f","true","img/T_ambi40.png","坏人","word_first",""
"","","","","","html-keyboard-response","280","454469","0.0-13.0-1.0-1.0-0.0-1.35","null","<span style='color:GreenYellow; font-size: 70px;'>正确! </span>","null","","","","","","","","","","","","","","","","","","","","","","","feedback_test"
"","","","","","psychophysics","281","456168","0.0-13.0-1.0-1.0-0.0-0.36","549","","f","","","","","","","","","","","","","key","f","7.59977477477488","960","536","f","true","img/S_ambi40.png","好人","word_first",""
"","","","","","html-keyboard-response","282","456476","0.0-13.0-1.0-1.0-0.0-1.36","null","<span style='color:GreenYellow; font-size: 70px;'>正确! </span>","null","","","","","","","","","","","","","","","","","","","","","","","feedback_test"
"","","","","","psychophysics","283","458241","0.0-13.0-1.0-1.0-0.0-0.37","614","","j","","","","","","","","","","","","","key","j","7.637213043478297","960","536","j","true","img/S_ambi40.png","常人","word_first",""
"","","","","","html-keyboard-response","284","458561","0.0-13.0-1.0-1.0-0.0-1.37","null","<span style='color:GreenYellow; font-size: 70px;'>正确! </span>","null","","","","","","","","","","","","","","","","","","","","","","","feedback_test"
"","","","","","psychophysics","285","460613","0.0-13.0-1.0-1.0-0.0-0.38","897","","j","","","","","","","","","","","","","key","j","7.673770676691722","960","536","j","true","img/C_ambi40.png","坏人","word_first",""
"","","","","","html-keyboard-response","286","460925","0.0-13.0-1.0-1.0-0.0-1.38","null","<span style='color:GreenYellow; font-size: 70px;'>正确! </span>","null","","","","","","","","","","","","","","","","","","","","","","","feedback_test"
"","","","","","psychophysics","287","462529","0.0-13.0-1.0-1.0-0.0-0.39","452","","f","","","","","","","","","","","","","key","f","7.604509523809455","960","536","f","true","img/T_ambi40.png","坏人","word_first",""
"","","","","","html-keyboard-response","288","462841","0.0-13.0-1.0-1.0-0.0-1.39","null","<span style='color:GreenYellow; font-size: 70px;'>正确! </span>","null","","","","","","","","","","","","","","","","","","","","","","","feedback_test"
"","","","","","psychophysics","289","464677","0.0-13.0-1.0-1.0-0.0-0.40","684","","j","","","","","","","","","","","","","key","j","7.640271966527051","960","536","j","true","img/T_ambi40.png","好人","word_first",""
"","","","","","html-keyboard-response","290","464982","0.0-13.0-1.0-1.0-0.0-1.40","null","<span style='color:GreenYellow; font-size: 70px;'>正确! </span>","null","","","","","","","","","","","","","","","","","","","","","","","feedback_test"
"","","","","","psychophysics","291","467016","0.0-13.0-1.0-1.0-0.0-0.41","878","","f","","","","","","","","","","","","","key","f","7.650867924528232","960","536","f","true","img/S_ambi40.png","好人","word_first",""
"","","","","","html-keyboard-response","292","467332","0.0-13.0-1.0-1.0-0.0-1.41","null","<span style='color:GreenYellow; font-size: 70px;'>正确! </span>","null","","","","","","","","","","","","","","","","","","","","","","","feedback_test"
"","","","","","psychophysics","293","468914","0.0-13.0-1.0-1.0-0.0-0.42","429","","f","","","","","","","","","","","","","key","f","7.580690821255939","960","536","f","true","img/C_ambi40.png","常人","word_first",""
"","","","","","html-keyboard-response","294","469231","0.0-13.0-1.0-1.0-0.0-1.42","null","<span style='color:GreenYellow; font-size: 70px;'>正确! </span>","null","","","","","","","","","","","","","","","","","","","","","","","feedback_test"
"","","","","","psychophysics","295","470964","0.0-13.0-1.0-1.0-0.0-0.43","577","","j","","","","","","","","","","","","","key","j","7.64988495575226","960","536","j","true","img/T_ambi40.png","常人","word_first",""
"","","","","","html-keyboard-response","296","471281","0.0-13.0-1.0-1.0-0.0-1.43","null","<span style='color:GreenYellow; font-size: 70px;'>正确! </span>","null","","","","","","","","","","","","","","","","","","","","","","","feedback_test"
"","","","","","psychophysics","297","473226","0.0-13.0-1.0-1.0-0.0-0.44","790","","f","","","","","","","","","","","","","key","f","7.687115079365045","960","536","j","false","img/S_ambi40.png","坏人","word_first",""
"","","","","","html-keyboard-response","298","473540","0.0-13.0-1.0-1.0-0.0-1.44","null","<span style='color:red; font-size: 70px;'>错误! </span>","null","","","","","","","","","","","","","","","","","","","","","","","feedback_test"
"","","","","","psychophysics","299","475214","0.0-13.0-1.0-1.0-0.0-0.45","523","","f","","","","","","","","","","","","","key","f","7.608922374429453","960","536","f","true","img/C_ambi40.png","常人","word_first",""
"","","","","","html-keyboard-response","300","475517","0.0-13.0-1.0-1.0-0.0-1.45","null","<span style='color:GreenYellow; font-size: 70px;'>正确! </span>","null","","","","","","","","","","","","","","","","","","","","","","","feedback_test"
"","","","","","psychophysics","301","477090","0.0-13.0-1.0-1.0-0.0-0.46","419","","f","","","","","","","","","","","","","key","f","7.512859903381696","960","536","f","true","img/T_ambi40.png","坏人","word_first",""
"","","","","","html-keyboard-response","302","477407","0.0-13.0-1.0-1.0-0.0-1.46","null","<span style='color:GreenYellow; font-size: 70px;'>正确! </span>","null","","","","","","","","","","","","","","","","","","","","","","","feedback_test"
"","","","","","psychophysics","303","479186","0.0-13.0-1.0-1.0-0.0-0.47","625","","j","","","","","","","","","","","","","key","j","7.66433766233766","960","536","j","true","img/C_ambi40.png","好人","word_first",""
"","","","","","html-keyboard-response","304","479507","0.0-13.0-1.0-1.0-0.0-1.47","null","<span style='color:GreenYellow; font-size: 70px;'>正确! </span>","null","","","","","","","","","","","","","","","","","","","","","","","feedback_test"
"","","","","","psychophysics","305","481272","0.0-13.0-1.0-1.0-0.0-0.48","610","","j","","","","","","","","","","","","","key","j","7.670423580786034","960","536","j","true","img/C_ambi40.png","坏人","word_first",""
"","","","","","html-keyboard-response","306","481580","0.0-13.0-1.0-1.0-0.0-1.48","null","<span style='color:GreenYellow; font-size: 70px;'>正确! </span>","null","","","","","","","","","","","","","","","","","","","","","","","feedback_test"
"","","","","","psychophysics","307","483378","0.0-13.0-1.0-1.0-0.0-0.49","645","","f","","","","","","","","","","","","","key","f","7.691150862069003","960","536","f","true","img/T_ambi40.png","坏人","word_first",""
"","","","","","html-keyboard-response","308","483693","0.0-13.0-1.0-1.0-0.0-1.49","null","<span style='color:GreenYellow; font-size: 70px;'>正确! </span>","null","","","","","","","","","","","","","","","","","","","","","","","feedback_test"
"","","","","","psychophysics","309","485524","0.0-13.0-1.0-1.0-0.0-0.50","680","","f","","","","","","","","","","","","","key","f","7.579624999999941","960","536","j","false","img/S_ambi40.png","常人","word_first",""
"","","","","","html-keyboard-response","310","485837","0.0-13.0-1.0-1.0-0.0-1.50","null","<span style='color:red; font-size: 70px;'>错误! </span>","null","","","","","","","","","","","","","","","","","","","","","","","feedback_test"
"","","","","","psychophysics","311","487927","0.0-13.0-1.0-1.0-0.0-0.51","938","","j","","","","","","","","","","","","","key","j","7.6295824175823785","960","536","j","true","img/T_ambi40.png","好人","word_first",""
"","","","","","html-keyboard-response","312","488237","0.0-13.0-1.0-1.0-0.0-1.51","null","<span style='color:GreenYellow; font-size: 70px;'>正确! </span>","null","","","","","","","","","","","","","","","","","","","","","","","feedback_test"
"","","","","","psychophysics","313","490173","0.0-13.0-1.0-1.0-0.0-0.52","782","","j","","","","","","","","","","","","","key","j","7.662039999999805","960","536","f","false","img/S_ambi40.png","好人","word_first",""
"","","","","","html-keyboard-response","314","490481","0.0-13.0-1.0-1.0-0.0-1.52","null","<span style='color:red; font-size: 70px;'>错误! </span>","null","","","","","","","","","","","","","","","","","","","","","","","feedback_test"
"","","","","","psychophysics","315","492286","0.0-13.0-1.0-1.0-0.0-0.53","651","","f","","","","","","","","","","","","","key","f","7.593144680851169","960","536","j","false","img/S_ambi40.png","坏人","word_first",""
"","","","","","html-keyboard-response","316","492592","0.0-13.0-1.0-1.0-0.0-1.53","null","<span style='color:red; font-size: 70px;'>错误! </span>","null","","","","","","","","","","","","","","","","","","","","","","","feedback_test"
"","","","","","psychophysics","317","494317","0.0-13.0-1.0-1.0-0.0-0.54","573","","f","","","","","","","","","","","","","key","f","7.588508849557638","960","536","f","true","img/T_ambi40.png","坏人","word_first",""
"","","","","","html-keyboard-response","318","494622","0.0-13.0-1.0-1.0-0.0-1.54","null","<span style='color:GreenYellow; font-size: 70px;'>正确! </span>","null","","","","","","","","","","","","","","","","","","","","","","","feedback_test"
"","","","","","psychophysics","319","496344","0.0-13.0-1.0-1.0-0.0-0.55","571","","f","","","","","","","","","","","","","key","f","7.588252212389412","960","536","f","true","img/C_ambi40.png","常人","word_first",""
"","","","","","html-keyboard-response","320","496658","0.0-13.0-1.0-1.0-0.0-1.55","null","<span style='color:GreenYellow; font-size: 70px;'>正确! </span>","null","","","","","","","","","","","","","","","","","","","","","","","feedback_test"
"","","","","","psychophysics","321","498455","0.0-13.0-1.0-1.0-0.0-0.56","643","","j","","","","","","","","","","","","","key","j","7.655269230769163","960","536","j","true","img/C_ambi40.png","好人","word_first",""
"","","","","","html-keyboard-response","322","498760","0.0-13.0-1.0-1.0-0.0-1.56","null","<span style='color:GreenYellow; font-size: 70px;'>正确! </span>","null","","","","","","","","","","","","","","","","","","","","","","","feedback_test"
"","","","","","psychophysics","323","500510","0.0-13.0-1.0-1.0-0.0-0.57","600","","f","","","","","","","","","","","","","key","f","7.677004405286569","960","536","f","true","img/C_ambi40.png","常人","word_first",""
"","","","","","html-keyboard-response","324","500826","0.0-13.0-1.0-1.0-0.0-1.57","null","<span style='color:GreenYellow; font-size: 70px;'>正确! </span>","null","","","","","","","","","","","","","","","","","","","","","","","feedback_test"
"","","","","","psychophysics","325","502517","0.0-13.0-1.0-1.0-0.0-0.58","538","","j","","","","","","","","","","","","","key","j","7.672456621004483","960","536","f","false","img/S_ambi40.png","好人","word_first",""
"","","","","","html-keyboard-response","326","502833","0.0-13.0-1.0-1.0-0.0-1.58","null","<span style='color:red; font-size: 70px;'>错误! </span>","null","","","","","","","","","","","","","","","","","","","","","","","feedback_test"
"","","","","","psychophysics","327","504751","0.0-13.0-1.0-1.0-0.0-0.59","766","","j","","","","","","","","","","","","","key","j","7.576916666666788","960","536","j","true","img/T_ambi40.png","常人","word_first",""
"","","","","","html-keyboard-response","328","505060","0.0-13.0-1.0-1.0-0.0-1.59","null","<span style='color:GreenYellow; font-size: 70px;'>正确! </span>","null","","","","","","","","","","","","","","","","","","","","","","","feedback_test"
"","","","","","html-keyboard-response","329","506801","0.0-13.0-1.0-1.0-1.0","1740","<style>.context{color:white; font-size: 35px; line-height:40px}</style>                              <div><p class='context'>您正确回答了80% 的试次。</p><p class='context'>您的平均反应时为704毫秒。</p><p class='context'>请按任意键进入休息</p></div>"," ","","","","","","","","","","","","","","","","","","","","","","",""
"","","","","","html-button-response","330","572475","0.0-13.0-1.0-1.0-2.0","65672","
                      <p>您当前还剩余3组实验</p>
                      <p>现在是休息时间，当您结束休息后，您可以点击 结束休息 按钮 继续</p>
                      <p>建议休息时间还剩余<span id=""iii"">60</span>秒</p>","0","","","","","","","","","","","","","","","","","","","","","","",""
"","","","","","psychophysics","331","574567","0.0-13.0-1.0-1.0-0.1-0.60","938","","j","","","","","","","","","","","","","key","j","7.658007352941187","960","536","j","true","img/C_ambi40.png","好人","word_first",""
"","","","","","html-keyboard-response","332","574876","0.0-13.0-1.0-1.0-0.1-1.60","null","<span style='color:GreenYellow; font-size: 70px;'>正确! </span>","null","","","","","","","","","","","","","","","","","","","","","","","feedback_test"
"","","","","","psychophysics","333","576653","0.0-13.0-1.0-1.0-0.1-0.61","626","","f","","","","","","","","","","","","","key","f","7.631482758620505","960","536","f","true","img/T_ambi40.png","坏人","word_first",""
"","","","","","html-keyboard-response","334","576965","0.0-13.0-1.0-1.0-0.1-1.61","null","<span style='color:GreenYellow; font-size: 70px;'>正确! </span>","null","","","","","","","","","","","","","","","","","","","","","","","feedback_test"
"","","","","","psychophysics","335","578805","0.0-13.0-1.0-1.0-0.1-0.62","688","","f","","","","","","","","","","","","","key","f","7.605763485477426","960","536","f","true","img/S_ambi40.png","好人","word_first",""
"","","","","","html-keyboard-response","336","579118","0.0-13.0-1.0-1.0-0.1-1.62","null","<span style='color:GreenYellow; font-size: 70px;'>正确! </span>","null","","","","","","","","","","","","","","","","","","","","","","","feedback_test"
"","","","","","psychophysics","337","580753","0.0-13.0-1.0-1.0-0.1-0.63","484","","f","","","","","","","","","","","","","key","f","7.627755868544326","960","536","f","true","img/S_ambi40.png","好人","word_first",""
"","","","","","html-keyboard-response","338","581064","0.0-13.0-1.0-1.0-0.1-1.63","null","<span style='color:GreenYellow; font-size: 70px;'>正确! </span>","null","","","","","","","","","","","","","","","","","","","","","","","feedback_test"
"","","","","","psychophysics","339","582755","0.0-13.0-1.0-1.0-0.1-0.64","534","","f","","","","","","","","","","","","","key","f","7.637759090909227","960","536","f","true","img/C_ambi40.png","常人","word_first",""
"","","","","","html-keyboard-response","340","583060","0.0-13.0-1.0-1.0-0.1-1.64","null","<span style='color:GreenYellow; font-size: 70px;'>正确! </span>","null","","","","","","","","","","","","","","","","","","","","","","","feedback_test"
"","","","","","psychophysics","341","584817","0.0-13.0-1.0-1.0-0.1-0.65","604","","f","","","","","","","","","","","","","key","f","7.643802631578996","960","536","f","true","img/C_ambi40.png","常人","word_first",""
"","","","","","html-keyboard-response","342","585124","0.0-13.0-1.0-1.0-0.1-1.65","null","<span style='color:GreenYellow; font-size: 70px;'>正确! </span>","null","","","","","","","","","","","","","","","","","","","","","","","feedback_test"
"","","","","","psychophysics","343","586700","0.0-13.0-1.0-1.0-0.1-0.66","425","","f","","","","","","","","","","","","","key","f","7.544009615384521","960","536","j","false","img/S_ambi40.png","常人","word_first",""
"","","","","","html-keyboard-response","344","587005","0.0-13.0-1.0-1.0-0.1-1.66","null","<span style='color:red; font-size: 70px;'>错误! </span>","null","","","","","","","","","","","","","","","","","","","","","","","feedback_test"
"","","","","","psychophysics","345","588837","0.0-13.0-1.0-1.0-0.1-0.67","680","","j","","","","","","","","","","","","","key","j","7.611079497908234","960","536","j","true","img/T_ambi40.png","常人","word_first",""
"","","","","","html-keyboard-response","346","589149","0.0-13.0-1.0-1.0-0.1-1.67","null","<span style='color:GreenYellow; font-size: 70px;'>正确! </span>","null","","","","","","","","","","","","","","","","","","","","","","","feedback_test"
"","","","","","psychophysics","347","591289","0.0-13.0-1.0-1.0-0.1-0.68","987","","f","","","","","","","","","","","","","key","f","7.642654676259187","960","536","j","false","img/S_ambi40.png","坏人","word_first",""
"","","","","","html-keyboard-response","348","591603","0.0-13.0-1.0-1.0-0.1-1.68","null","<span style='color:red; font-size: 70px;'>错误! </span>","null","","","","","","","","","","","","","","","","","","","","","","","feedback_test"
"","","","","","psychophysics","349","593520","0.0-13.0-1.0-1.0-0.1-0.69","765","","j","","","","","","","","","","","","","key","j","7.6682690763051236","960","536","j","true","img/T_ambi40.png","好人","word_first",""
"","","","","","html-keyboard-response","350","593830","0.0-13.0-1.0-1.0-0.1-1.69","null","<span style='color:GreenYellow; font-size: 70px;'>正确! </span>","null","","","","","","","","","","","","","","","","","","","","","","","feedback_test"
"","","","","","psychophysics","351","595742","0.0-13.0-1.0-1.0-0.1-0.70","760","","j","","","","","","","","","","","","","key","j","7.670810483871103","960","536","j","true","img/C_ambi40.png","坏人","word_first",""
"","","","","","html-keyboard-response","352","596051","0.0-13.0-1.0-1.0-0.1-1.70","null","<span style='color:GreenYellow; font-size: 70px;'>正确! </span>","null","","","","","","","","","","","","","","","","","","","","","","","feedback_test"
"","","","","","psychophysics","353","597640","0.0-13.0-1.0-1.0-0.1-0.71","436","","f","","","","","","","","","","","","","key","f","7.651116504854391","960","536","f","true","img/T_ambi40.png","坏人","word_first",""
"","","","","","html-keyboard-response","354","597962","0.0-13.0-1.0-1.0-0.1-1.71","null","<span style='color:GreenYellow; font-size: 70px;'>正确! </span>","null","","","","","","","","","","","","","","","","","","","","","","","feedback_test"
"","","","","","psychophysics","355","599901","0.0-13.0-1.0-1.0-0.1-0.72","789","","f","","","","","","","","","","","","","key","f","7.720535999999847","960","536","f","true","img/S_ambi40.png","好人","word_first",""
"","","","","","html-keyboard-response","356","600216","0.0-13.0-1.0-1.0-0.1-1.72","null","<span style='color:GreenYellow; font-size: 70px;'>正确! </span>","null","","","","","","","","","","","","","","","","","","","","","","","feedback_test"
"","","","","","psychophysics","357","602104","0.0-13.0-1.0-1.0-0.1-0.73","736","","j","","","","","","","","","","","","","key","j","7.686049382715896","960","536","j","true","img/T_ambi40.png","常人","word_first",""
"","","","","","html-keyboard-response","358","602415","0.0-13.0-1.0-1.0-0.1-1.73","null","<span style='color:GreenYellow; font-size: 70px;'>正确! </span>","null","","","","","","","","","","","","","","","","","","","","","","","feedback_test"
"","","","","","psychophysics","359","604475","0.0-13.0-1.0-1.0-0.1-0.74","906","","j","","","","","","","","","","","","","key","j","7.668906716417883","960","536","j","true","img/C_ambi40.png","坏人","word_first",""
"","","","","","html-keyboard-response","360","604790","0.0-13.0-1.0-1.0-0.1-1.74","null","<span style='color:GreenYellow; font-size: 70px;'>正确! </span>","null","","","","","","","","","","","","","","","","","","","","","","","feedback_test"
"","","","","","psychophysics","361","606679","0.0-13.0-1.0-1.0-0.1-0.75","735","","f","","","","","","","","","","","","","key","f","7.6513196721312315","960","536","j","false","img/C_ambi40.png","好人","word_first",""
"","","","","","html-keyboard-response","362","606999","0.0-13.0-1.0-1.0-0.1-1.75","null","<span style='color:red; font-size: 70px;'>错误! </span>","null","","","","","","","","","","","","","","","","","","","","","","","feedback_test"
"","","","","","psychophysics","363","608897","0.0-13.0-1.0-1.0-0.1-0.76","745","","j","","","","","","","","","","","","","key","j","7.615310483870768","960","536","j","true","img/S_ambi40.png","坏人","word_first",""
"","","","","","html-keyboard-response","364","609209","0.0-13.0-1.0-1.0-0.1-1.76","null","<span style='color:GreenYellow; font-size: 70px;'>正确! </span>","null","","","","","","","","","","","","","","","","","","","","","","","feedback_test"
"","","","","","psychophysics","365","611091","0.0-13.0-1.0-1.0-0.1-0.77","731","","f","","","","","","","","","","","","","key","f","7.65164489795891","960","536","j","false","img/T_ambi40.png","好人","word_first",""
"","","","","","html-keyboard-response","366","611407","0.0-13.0-1.0-1.0-0.1-1.77","null","<span style='color:red; font-size: 70px;'>错误! </span>","null","","","","","","","","","","","","","","","","","","","","","","","feedback_test"
"","","","","","psychophysics","367","613478","0.0-13.0-1.0-1.0-0.1-0.78","919","","j","","","","","","","","","","","","","key","j","7.668235955056159","960","536","j","true","img/S_ambi40.png","常人","word_first",""
"","","","","","html-keyboard-response","368","613785","0.0-13.0-1.0-1.0-0.1-1.78","null","<span style='color:GreenYellow; font-size: 70px;'>正确! </span>","null","","","","","","","","","","","","","","","","","","","","","","","feedback_test"
"","","","","","psychophysics","369","615553","0.0-13.0-1.0-1.0-0.1-0.79","617","","f","","","","","","","","","","","","","key","f","7.6072782608695615","960","536","f","true","img/C_ambi40.png","常人","word_first",""
"","","","","","html-keyboard-response","370","615866","0.0-13.0-1.0-1.0-0.1-1.79","null","<span style='color:GreenYellow; font-size: 70px;'>正确! </span>","null","","","","","","","","","","","","","","","","","","","","","","","feedback_test"
"","","","","","psychophysics","371","617550","0.0-13.0-1.0-1.0-0.1-0.80","532","","f","","","","","","","","","","","","","key","f","7.6060000000002965","960","536","f","true","img/T_ambi40.png","坏人","word_first",""
"","","","","","html-keyboard-response","372","617870","0.0-13.0-1.0-1.0-0.1-1.80","null","<span style='color:GreenYellow; font-size: 70px;'>正确! </span>","null","","","","","","","","","","","","","","","","","","","","","","","feedback_test"
"","","","","","psychophysics","373","619517","0.0-13.0-1.0-1.0-0.1-0.81","491","","f","","","","","","","","","","","","","key","f","7.657051401869416","960","536","f","true","img/C_ambi40.png","常人","word_first",""
"","","","","","html-keyboard-response","374","619822","0.0-13.0-1.0-1.0-0.1-1.81","null","<span style='color:GreenYellow; font-size: 70px;'>正确! </span>","null","","","","","","","","","","","","","","","","","","","","","","","feedback_test"
"","","","","","psychophysics","375","621660","0.0-13.0-1.0-1.0-0.1-0.82","684","","f","","","","","","","","","","","","","key","f","7.7059110169495275","960","536","f","true","img/T_ambi40.png","坏人","word_first",""
"","","","","","html-keyboard-response","376","621964","0.0-13.0-1.0-1.0-0.1-1.82","null","<span style='color:GreenYellow; font-size: 70px;'>正确! </span>","null","","","","","","","","","","","","","","","","","","","","","","","feedback_test"
"","","","","","psychophysics","377","623679","0.0-13.0-1.0-1.0-0.1-0.83","565","","f","","","","","","","","","","","","","key","f","7.557331858407315","960","536","f","true","img/S_ambi40.png","好人","word_first",""
"","","","","","html-keyboard-response","378","623992","0.0-13.0-1.0-1.0-0.1-1.83","null","<span style='color:GreenYellow; font-size: 70px;'>正确! </span>","null","","","","","","","","","","","","","","","","","","","","","","","feedback_test"
"","","","","","psychophysics","379","625621","0.0-13.0-1.0-1.0-0.1-0.84","478","","f","","","","","","","","","","","","","key","f","7.559584112149211","960","536","f","true","img/C_ambi40.png","常人","word_first",""
"","","","","","html-keyboard-response","380","625923","0.0-13.0-1.0-1.0-0.1-1.84","null","<span style='color:GreenYellow; font-size: 70px;'>正确! </span>","null","","","","","","","","","","","","","","","","","","","","","","","feedback_test"
"","","","","","psychophysics","381","627724","0.0-13.0-1.0-1.0-0.1-0.85","646","","j","","","","","","","","","","","","","key","j","7.721323275862358","960","536","j","true","img/T_ambi40.png","好人","word_first",""
"","","","","","html-keyboard-response","382","628038","0.0-13.0-1.0-1.0-0.1-1.85","null","<span style='color:GreenYellow; font-size: 70px;'>正确! </span>","null","","","","","","","","","","","","","","","","","","","","","","","feedback_test"
"","","","","","psychophysics","383","629899","0.0-13.0-1.0-1.0-0.1-0.86","709","","j","","","","","","","","","","","","","key","j","7.660243801652812","960","536","j","true","img/C_ambi40.png","好人","word_first",""
"","","","","","html-keyboard-response","384","630214","0.0-13.0-1.0-1.0-0.1-1.86","null","<span style='color:GreenYellow; font-size: 70px;'>正确! </span>","null","","","","","","","","","","","","","","","","","","","","","","","feedback_test"
"","","","","","psychophysics","385","631813","0.0-13.0-1.0-1.0-0.1-0.87","443","","f","","","","","","","","","","","","","key","f","7.644350961538573","960","536","f","true","img/S_ambi40.png","好人","word_first",""
"","","","","","html-keyboard-response","386","632127","0.0-13.0-1.0-1.0-0.1-1.87","null","<span style='color:GreenYellow; font-size: 70px;'>正确! </span>","null","","","","","","","","","","","","","","","","","","","","","","","feedback_test"
"","","","","","psychophysics","387","633909","0.0-13.0-1.0-1.0-0.1-0.88","630","","j","","","","","","","","","","","","","key","j","7.664601731601925","960","536","j","true","img/S_ambi40.png","常人","word_first",""
"","","","","","html-keyboard-response","388","634219","0.0-13.0-1.0-1.0-0.1-1.88","null","<span style='color:GreenYellow; font-size: 70px;'>正确! </span>","null","","","","","","","","","","","","","","","","","","","","","","","feedback_test"
"","","","","","psychophysics","389","636087","0.0-13.0-1.0-1.0-0.1-0.89","718","","j","","","","","","","","","","","","","key","j","7.657370370370049","960","536","j","true","img/T_ambi40.png","常人","word_first",""
"","","","","","html-keyboard-response","390","636399","0.0-13.0-1.0-1.0-0.1-1.89","null","<span style='color:GreenYellow; font-size: 70px;'>正确! </span>","null","","","","","","","","","","","","","","","","","","","","","","","feedback_test"
"","","","","","psychophysics","391","638142","0.0-13.0-1.0-1.0-0.1-0.90","592","","j","","","","","","","","","","","","","key","j","7.64658149779725","960","536","j","true","img/S_ambi40.png","坏人","word_first",""
"","","","","","html-keyboard-response","392","638462","0.0-13.0-1.0-1.0-0.1-1.90","null","<span style='color:GreenYellow; font-size: 70px;'>正确! </span>","null","","","","","","","","","","","","","","","","","","","","","","","feedback_test"
"","","","","","psychophysics","393","640251","0.0-13.0-1.0-1.0-0.1-0.91","633","","j","","","","","","","","","","","","","key","j","7.658266094420305","960","536","j","true","img/C_ambi40.png","坏人","word_first",""
"","","","","","html-keyboard-response","394","640560","0.0-13.0-1.0-1.0-0.1-1.91","null","<span style='color:GreenYellow; font-size: 70px;'>正确! </span>","null","","","","","","","","","","","","","","","","","","","","","","","feedback_test"
"","","","","","psychophysics","395","642175","0.0-13.0-1.0-1.0-0.1-0.92","460","","f","","","","","","","","","","","","","key","f","7.671114285714325","960","536","f","true","img/S_ambi40.png","好人","word_first",""
"","","","","","html-keyboard-response","396","642476","0.0-13.0-1.0-1.0-0.1-1.92","null","<span style='color:GreenYellow; font-size: 70px;'>正确! </span>","null","","","","","","","","","","","","","","","","","","","","","","","feedback_test"
"","","","","","psychophysics","397","644162","0.0-13.0-1.0-1.0-0.1-0.93","531","","f","","","","","","","","","","","","","key","f","7.672438356164762","960","536","f","true","img/T_ambi40.png","坏人","word_first",""
"","","","","","html-keyboard-response","398","644476","0.0-13.0-1.0-1.0-0.1-1.93","null","<span style='color:GreenYellow; font-size: 70px;'>正确! </span>","null","","","","","","","","","","","","","","","","","","","","","","","feedback_test"
"","","","","","psychophysics","399","646025","0.0-13.0-1.0-1.0-0.1-0.94","394","","f","","","","","","","","","","","","","key","f","7.634771144278788","960","536","f","true","img/C_ambi40.png","常人","word_first",""
"","","","","","html-keyboard-response","400","646343","0.0-13.0-1.0-1.0-0.1-1.94","null","<span style='color:GreenYellow; font-size: 70px;'>正确! </span>","null","","","","","","","","","","","","","","","","","","","","","","","feedback_test"
"","","","","","psychophysics","401","648016","0.0-13.0-1.0-1.0-0.1-0.95","517","","j","","","","","","","","","","","","","key","j","7.644009174311794","960","536","f","false","img/T_ambi40.png","坏人","word_first",""
"","","","","","html-keyboard-response","402","648327","0.0-13.0-1.0-1.0-0.1-1.95","null","<span style='color:red; font-size: 70px;'>错误! </span>","null","","","","","","","","","","","","","","","","","","","","","","","feedback_test"
"","","","","","psychophysics","403","649937","0.0-13.0-1.0-1.0-0.1-0.96","452","","f","","","","","","","","","","","","","key","f","7.6373761904758535","960","536","f","true","img/T_ambi40.png","坏人","word_first",""
"","","","","","html-keyboard-response","404","650255","0.0-13.0-1.0-1.0-0.1-1.96","null","<span style='color:GreenYellow; font-size: 70px;'>正确! </span>","null","","","","","","","","","","","","","","","","","","","","","","","feedback_test"
"","","","","","psychophysics","405","651939","0.0-13.0-1.0-1.0-0.1-0.97","531","","f","","","","","","","","","","","","","key","f","7.605909090908773","960","536","j","false","img/C_ambi40.png","好人","word_first",""
"","","","","","html-keyboard-response","406","652250","0.0-13.0-1.0-1.0-0.1-1.97","null","<span style='color:red; font-size: 70px;'>错误! </span>","null","","","","","","","","","","","","","","","","","","","","","","","feedback_test"
"","","","","","psychophysics","407","654070","0.0-13.0-1.0-1.0-0.1-0.98","669","","j","","","","","","","","","","","","","key","j","7.646388185653592","960","536","j","true","img/T_ambi40.png","常人","word_first",""
"","","","","","html-keyboard-response","408","654378","0.0-13.0-1.0-1.0-0.1-1.98","null","<span style='color:GreenYellow; font-size: 70px;'>正确! </span>","null","","","","","","","","","","","","","","","","","","","","","","","feedback_test"
"","","","","","psychophysics","409","656346","0.0-13.0-1.0-1.0-0.1-0.99","814","","f","","","","","","","","","","","","","key","f","7.675468750000164","960","536","f","true","img/C_ambi40.png","常人","word_first",""
"","","","","","html-keyboard-response","410","656663","0.0-13.0-1.0-1.0-0.1-1.99","null","<span style='color:GreenYellow; font-size: 70px;'>正确! </span>","null","","","","","","","","","","","","","","","","","","","","","","","feedback_test"
"","","","","","psychophysics","411","658388","0.0-13.0-1.0-1.0-0.1-0.100","572","","j","","","","","","","","","","","","","key","j","7.655430493273379","960","536","j","true","img/T_ambi40.png","好人","word_first",""
"","","","","","html-keyboard-response","412","658692","0.0-13.0-1.0-1.0-0.1-1.100","null","<span style='color:GreenYellow; font-size: 70px;'>正确! </span>","null","","","","","","","","","","","","","","","","","","","","","","","feedback_test"
"","","","","","psychophysics","413","660514","0.0-13.0-1.0-1.0-0.1-0.101","670","","f","","","","","","","","","","","","","key","f","7.614331932773152","960","536","f","true","img/C_ambi40.png","常人","word_first",""
"","","","","","html-keyboard-response","414","660822","0.0-13.0-1.0-1.0-0.1-1.101","null","<span style='color:GreenYellow; font-size: 70px;'>正确! </span>","null","","","","","","","","","","","","","","","","","","","","","","","feedback_test"
"","","","","","psychophysics","415","663185","0.0-13.0-1.0-1.0-0.1-0.102","1209","","f","","","","","","","","","","","","","key","f","7.714542483660207","960","536","j","false","img/S_ambi40.png","坏人","word_first",""
"","","","","","html-keyboard-response","416","663486","0.0-13.0-1.0-1.0-0.1-1.102","null","<span style='color:red; font-size: 70px;'>错误! </span>","null","","","","","","","","","","","","","","","","","","","","","","","feedback_test"
"","","","","","psychophysics","417","665403","0.0-13.0-1.0-1.0-0.1-0.103","761","","f","","","","","","","","","","","","","key","f","7.668132530120444","960","536","f","true","img/S_ambi40.png","好人","word_first",""
"","","","","","html-keyboard-response","418","665720","0.0-13.0-1.0-1.0-0.1-1.103","null","<span style='color:GreenYellow; font-size: 70px;'>正确! </span>","null","","","","","","","","","","","","","","","","","","","","","","","feedback_test"
"","","","","","psychophysics","419","667830","0.0-13.0-1.0-1.0-0.1-0.104","958","","j","","","","","","","","","","","","","key","j","7.6526715328469095","960","536","j","true","img/C_ambi40.png","坏人","word_first",""
"","","","","","html-keyboard-response","420","668144","0.0-13.0-1.0-1.0-0.1-1.104","null","<span style='color:GreenYellow; font-size: 70px;'>正确! </span>","null","","","","","","","","","","","","","","","","","","","","","","","feedback_test"
"","","","","","psychophysics","421","670348","0.0-13.0-1.0-1.0-0.1-0.105","1047","","f","","","","","","","","","","","","","key","f","7.671367132867331","960","536","f","true","img/S_ambi40.png","好人","word_first",""
"","","","","","html-keyboard-response","422","670666","0.0-13.0-1.0-1.0-0.1-1.105","null","<span style='color:GreenYellow; font-size: 70px;'>正确! </span>","null","","","","","","","","","","","","","","","","","","","","","","","feedback_test"
"","","","","","psychophysics","423","672718","0.0-13.0-1.0-1.0-0.1-0.106","897","","f","","","","","","","","","","","","","key","f","7.699740601503955","960","536","f","true","img/T_ambi40.png","坏人","word_first",""
"","","","","","html-keyboard-response","424","673020","0.0-13.0-1.0-1.0-0.1-1.106","null","<span style='color:GreenYellow; font-size: 70px;'>正确! </span>","null","","","","","","","","","","","","","","","","","","","","","","","feedback_test"
"","","","","","psychophysics","425","674741","0.0-13.0-1.0-1.0-0.1-0.107","566","","j","","","","","","","","","","","","","key","j","7.621991111110999","960","536","j","true","img/S_ambi40.png","常人","word_first",""
"","","","","","html-keyboard-response","426","675058","0.0-13.0-1.0-1.0-0.1-1.107","null","<span style='color:GreenYellow; font-size: 70px;'>正确! </span>","null","","","","","","","","","","","","","","","","","","","","","","","feedback_test"
"","","","","","psychophysics","427","676837","0.0-13.0-1.0-1.0-0.1-0.108","628","","f","","","","","","","","","","","","","key","f","7.631215517241548","960","536","f","true","img/S_ambi40.png","好人","word_first",""
"","","","","","html-keyboard-response","428","677151","0.0-13.0-1.0-1.0-0.1-1.108","null","<span style='color:GreenYellow; font-size: 70px;'>正确! </span>","null","","","","","","","","","","","","","","","","","","","","","","","feedback_test"
"","","","","","psychophysics","429","678888","0.0-13.0-1.0-1.0-0.1-0.109","582","","f","","","","","","","","","","","","","key","f","7.616559471365266","960","536","f","true","img/T_ambi40.png","坏人","word_first",""
"","","","","","html-keyboard-response","430","679208","0.0-13.0-1.0-1.0-0.1-1.109","null","<span style='color:GreenYellow; font-size: 70px;'>正确! </span>","null","","","","","","","","","","","","","","","","","","","","","","","feedback_test"
"","","","","","psychophysics","431","681322","0.0-13.0-1.0-1.0-0.1-0.110","960","","f","","","","","","","","","","","","","key","f","7.597173913043714","960","536","j","false","img/S_ambi40.png","坏人","word_first",""
"","","","","","html-keyboard-response","432","681638","0.0-13.0-1.0-1.0-0.1-1.110","null","<span style='color:red; font-size: 70px;'>错误! </span>","null","","","","","","","","","","","","","","","","","","","","","","","feedback_test"
"","","","","","psychophysics","433","683379","0.0-13.0-1.0-1.0-0.1-0.111","587","","j","","","","","","","","","","","","","key","j","7.582627192982615","960","536","j","true","img/T_ambi40.png","常人","word_first",""
"","","","","","html-keyboard-response","434","683687","0.0-13.0-1.0-1.0-0.1-1.111","null","<span style='color:GreenYellow; font-size: 70px;'>正确! </span>","null","","","","","","","","","","","","","","","","","","","","","","","feedback_test"
"","","","","","psychophysics","435","685525","0.0-13.0-1.0-1.0-0.1-0.112","685","","f","","","","","","","","","","","","","key","f","7.608574999999837","960","536","f","true","img/C_ambi40.png","常人","word_first",""
