"success","timeout","failed_images","failed_audio","failed_video","trial_type","trial_index","time_elapsed","internal_node_id","rt","stimulus","response","value","item_width_mm","item_height_mm","item_width_px","px2mm","view_dist_mm","item_width_deg","px2deg","scale_factor","win_width_deg","win_height_deg","view_history","response_type","key_press","avg_frame_time","center_x","center_y","correct_response","correct","Image","word","condition","screen_id"
"true","false","[]","[]","[]","preload","0","555","0.0-0.0","","","","","","","","","","","","","","","","","","","","","","","","","",""
"","","","","","html-keyboard-response","1","7977","0.0-1.0","7421","
     <p>您好，欢迎参加本次实验。</p>
     <p>为充分保障您的权利，请确保您已经知晓并同意《参与实验同意书》以及《数据公开知情同意书》。</p>
     <p>如果您未见过上述内容，请咨询实验员。</p>
     <p>如果您选择继续实验，则表示您已经清楚两份知情同意书的内容并同意。</p>
     <p> <div style = ""color: green""><按任意键至下页></div> </p>
     ","arrowright","","","","","","","","","","","","","","","","","","","","","","",""
"","","","","","html-keyboard-response","2","30998","0.0-2.0","23020","
     <p>本实验首先需要您填写一些基本个人信息。</p>
     <p> <div style = ""color: green""><按任意键至下页></div></p>
     ","arrowright","","","","","","","","","","","","","","","","","","","","","","",""
"","","","","","call-function","3","31000","0.0-3.0-0.0","","","","","","","","","","","","","","","","","","","","","","","","","",""
"","","","","","survey-html-form","4","64662","0.0-3.0-1.0","33655","","{""Q0"":""14""}","","","","","","","","","","","","","","","","","","","","","","",""
"","","","","","html-button-response","5","102681","0.0-3.0-2.0","38016","<p style = 'color : white'>您的性别</p>","1","","","","","","","","","","","","","","","","","","","","","","",""
"","","","","","survey-html-form","6","113764","0.0-3.0-3.0","11082","","{""Q0"":""2003""}","","","","","","","","","","","","","","","","","","","","","","",""
"","","","","","survey-html-form","7","116537","0.0-3.0-4.0","2772","","{""Q0"":""5""}","","","","","","","","","","","","","","","","","","","","","","",""
"","","","","","virtual-chinrest","8","196770","0.0-4.0","80231","","","","85.6","53.98","483.41881914539215","5.653542122208823","506.07","9.668376382907843","50","0.7322842760358728","25.6","11.18","","","","","","","","","","","",""
"true","","","","","fullscreen","9","198824","0.0-5.0","","","","","","","","","","","","","","","","","","","","","","","","","",""
"","","","","","instructions","10","243655","0.0-6.0","44831","","","","","","","","","","","","","","[{""page_index"":0,""viewing_time"":2117},{""page_index"":1,""viewing_time"":38921},{""page_index"":2,""viewing_time"":2319},{""page_index"":3,""viewing_time"":1474}]","","","","","","","","","","",""
"","","","","","psychophysics","11","245679","0.0-7.0-0.0-0.0","870","","j","","","","","","","","","","","","","key","j","16.666705882352847","640","356","j","true","img/S_ambi40.png","常人","prac_image_first",""
"","","","","","html-keyboard-response","12","245980","0.0-7.0-0.0-1.0","null","<span style='color:GreenYellow; font-size: 70px;'>正确! </span>","null","","","","","","","","","","","","","","","","","","","","","","","feedback_test"
"","","","","","psychophysics","13","247903","0.0-7.0-0.0-0.1","770","","j","","","","","","","","","","","","","key","j","16.6674298245614","640","356","f","false","img/S_ambi40.png","好人","prac_image_first",""
"","","","","","html-keyboard-response","14","248205","0.0-7.0-0.0-1.1","null","<span style='color:red; font-size: 70px;'>错误! </span>","null","","","","","","","","","","","","","","","","","","","","","","","feedback_test"
"","","","","","psychophysics","15","249940","0.0-7.0-0.0-0.2","582","","j","","","","","","","","","","","","","key","j","16.66628155339785","640","356","j","true","img/T_ambi40.png","常人","prac_image_first",""
"","","","","","html-keyboard-response","16","250241","0.0-7.0-0.0-1.2","null","<span style='color:GreenYellow; font-size: 70px;'>正确! </span>","null","","","","","","","","","","","","","","","","","","","","","","","feedback_test"
"","","","","","psychophysics","17","252027","0.0-7.0-0.0-0.3","635","","j","","","","","","","","","","","","","key","j","16.668018867924506","640","356","j","true","img/C_ambi40.png","好人","prac_image_first",""
"","","","","","html-keyboard-response","18","252329","0.0-7.0-0.0-1.3","null","<span style='color:GreenYellow; font-size: 70px;'>正确! </span>","null","","","","","","","","","","","","","","","","","","","","","","","feedback_test"
"","","","","","psychophysics","19","254177","0.0-7.0-0.0-0.4","697","","f","","","","","","","","","","","","","key","f","16.666709090908988","640","356","f","true","img/C_ambi40.png","常人","prac_image_first",""
"","","","","","html-keyboard-response","20","254479","0.0-7.0-0.0-1.4","null","<span style='color:GreenYellow; font-size: 70px;'>正确! </span>","null","","","","","","","","","","","","","","","","","","","","","","","feedback_test"
"","","","","","psychophysics","21","256358","0.0-7.0-0.0-0.5","728","","f","","","","","","","","","","","","","key","f","16.666441441441755","640","356","f","true","img/S_ambi40.png","好人","prac_image_first",""
"","","","","","html-keyboard-response","22","256659","0.0-7.0-0.0-1.5","null","<span style='color:GreenYellow; font-size: 70px;'>正确! </span>","null","","","","","","","","","","","","","","","","","","","","","","","feedback_test"
"","","","","","psychophysics","23","258358","0.0-7.0-0.0-0.6","547","","j","","","","","","","","","","","","","key","j","16.667653465346724","640","356","j","true","img/S_ambi40.png","坏人","prac_image_first",""
"","","","","","html-keyboard-response","24","258659","0.0-7.0-0.0-1.6","null","<span style='color:GreenYellow; font-size: 70px;'>正确! </span>","null","","","","","","","","","","","","","","","","","","","","","","","feedback_test"
"","","","","","psychophysics","25","260468","0.0-7.0-0.0-0.7","657","","f","","","","","","","","","","","","","key","f","16.667925233644798","640","356","f","true","img/T_ambi40.png","坏人","prac_image_first",""
"","","","","","html-keyboard-response","26","260771","0.0-7.0-0.0-1.7","null","<span style='color:GreenYellow; font-size: 70px;'>正确! </span>","null","","","","","","","","","","","","","","","","","","","","","","","feedback_test"
"","","","","","psychophysics","27","262634","0.0-7.0-0.0-0.8","712","","f","","","","","","","","","","","","","key","f","16.66675675675684","640","356","f","true","img/C_ambi40.png","常人","prac_image_first",""
"","","","","","html-keyboard-response","28","262936","0.0-7.0-0.0-1.8","null","<span style='color:GreenYellow; font-size: 70px;'>正确! </span>","null","","","","","","","","","","","","","","","","","","","","","","","feedback_test"
"","","","","","psychophysics","29","264693","0.0-7.0-0.0-0.9","605","","j","","","","","","","","","","","","","key","j","16.829087378640853","640","356","j","true","img/C_ambi40.png","坏人","prac_image_first",""
"","","","","","html-keyboard-response","30","264994","0.0-7.0-0.0-1.9","null","<span style='color:GreenYellow; font-size: 70px;'>正确! </span>","null","","","","","","","","","","","","","","","","","","","","","","","feedback_test"
"","","","","","psychophysics","31","266559","0.0-7.0-0.0-0.10","414","","f","","","","","","","","","","","","","key","f","16.667225806451256","640","356","f","true","img/T_ambi40.png","坏人","prac_image_first",""
"","","","","","html-keyboard-response","32","266861","0.0-7.0-0.0-1.10","null","<span style='color:GreenYellow; font-size: 70px;'>正确! </span>","null","","","","","","","","","","","","","","","","","","","","","","","feedback_test"
"","","","","","psychophysics","33","268638","0.0-7.0-0.0-0.11","625","","j","","","","","","","","","","","","","key","j","16.667207547169692","640","356","j","true","img/T_ambi40.png","好人","prac_image_first",""
"","","","","","html-keyboard-response","34","268939","0.0-7.0-0.0-1.11","null","<span style='color:GreenYellow; font-size: 70px;'>正确! </span>","null","","","","","","","","","","","","","","","","","","","","","","","feedback_test"
"","","","","","psychophysics","35","270612","0.0-7.0-0.0-0.12","521","","j","","","","","","","","","","","","","key","j","16.66672727272721","640","356","f","false","img/T_ambi40.png","坏人","prac_image_first",""
"","","","","","html-keyboard-response","36","270914","0.0-7.0-0.0-1.12","null","<span style='color:red; font-size: 70px;'>错误! </span>","null","","","","","","","","","","","","","","","","","","","","","","","feedback_test"
"","","","","","psychophysics","37","272883","0.0-7.0-0.0-0.13","816","","f","","","","","","","","","","","","","key","f","16.66595689655163","640","356","f","true","img/S_ambi40.png","好人","prac_image_first",""
"","","","","","html-keyboard-response","38","273184","0.0-7.0-0.0-1.13","null","<span style='color:GreenYellow; font-size: 70px;'>正确! </span>","null","","","","","","","","","","","","","","","","","","","","","","","feedback_test"
"","","","","","psychophysics","39","274790","0.0-7.0-0.0-0.14","455","","j","","","","","","","","","","","","","key","j","16.84404255319114","640","356","j","true","img/S_ambi40.png","常人","prac_image_first",""
"","","","","","html-keyboard-response","40","275092","0.0-7.0-0.0-1.14","null","<span style='color:GreenYellow; font-size: 70px;'>正确! </span>","null","","","","","","","","","","","","","","","","","","","","","","","feedback_test"
"","","","","","psychophysics","41","276718","0.0-7.0-0.0-0.15","474","","f","","","","","","","","","","","","","key","f","16.665855670102978","640","356","j","false","img/C_ambi40.png","好人","prac_image_first",""
"","","","","","html-keyboard-response","42","277019","0.0-7.0-0.0-1.15","null","<span style='color:red; font-size: 70px;'>错误! </span>","null","","","","","","","","","","","","","","","","","","","","","","","feedback_test"
"","","","","","psychophysics","43","278729","0.0-7.0-0.0-0.16","558","","j","","","","","","","","","","","","","key","j","16.667079207920793","640","356","j","true","img/S_ambi40.png","坏人","prac_image_first",""
"","","","","","html-keyboard-response","44","279030","0.0-7.0-0.0-1.16","null","<span style='color:GreenYellow; font-size: 70px;'>正确! </span>","null","","","","","","","","","","","","","","","","","","","","","","","feedback_test"
"","","","","","psychophysics","45","280749","0.0-7.0-0.0-0.17","568","","j","","","","","","","","","","","","","key","j","16.667960396039962","640","356","f","false","img/C_ambi40.png","常人","prac_image_first",""
"","","","","","html-keyboard-response","46","281051","0.0-7.0-0.0-1.17","null","<span style='color:red; font-size: 70px;'>错误! </span>","null","","","","","","","","","","","","","","","","","","","","","","","feedback_test"
"","","","","","psychophysics","47","282754","0.0-7.0-0.0-0.18","551","","f","","","","","","","","","","","","","key","f","16.667366336634046","640","356","f","true","img/C_ambi40.png","常人","prac_image_first",""
"","","","","","html-keyboard-response","48","283057","0.0-7.0-0.0-1.18","null","<span style='color:GreenYellow; font-size: 70px;'>正确! </span>","null","","","","","","","","","","","","","","","","","","","","","","","feedback_test"
"","","","","","psychophysics","49","284776","0.0-7.0-0.0-0.19","566","","j","","","","","","","","","","","","","key","j","16.665245098039033","640","356","j","true","img/T_ambi40.png","常人","prac_image_first",""
"","","","","","html-keyboard-response","50","285077","0.0-7.0-0.0-1.19","null","<span style='color:GreenYellow; font-size: 70px;'>正确! </span>","null","","","","","","","","","","","","","","","","","","","","","","","feedback_test"
"","","","","","psychophysics","51","286699","0.0-7.0-0.0-0.20","470","","j","","","","","","","","","","","","","key","j","16.66786458333384","640","356","f","false","img/T_ambi40.png","坏人","prac_image_first",""
"","","","","","html-keyboard-response","52","287000","0.0-7.0-0.0-1.20","null","<span style='color:red; font-size: 70px;'>错误! </span>","null","","","","","","","","","","","","","","","","","","","","","","","feedback_test"
"","","","","","psychophysics","53","288678","0.0-7.0-0.0-0.21","526","","j","","","","","","","","","","","","","key","j","16.667161616161607","640","356","j","true","img/C_ambi40.png","坏人","prac_image_first",""
"","","","","","html-keyboard-response","54","288980","0.0-7.0-0.0-1.21","null","<span style='color:GreenYellow; font-size: 70px;'>正确! </span>","null","","","","","","","","","","","","","","","","","","","","","","","feedback_test"
"","","","","","psychophysics","55","290641","0.0-7.0-0.0-0.22","508","","j","","","","","","","","","","","","","key","j","16.666520408162853","640","356","j","true","img/T_ambi40.png","好人","prac_image_first",""
"","","","","","html-keyboard-response","56","290943","0.0-7.0-0.0-1.22","null","<span style='color:GreenYellow; font-size: 70px;'>正确! </span>","null","","","","","","","","","","","","","","","","","","","","","","","feedback_test"
"","","","","","psychophysics","57","292620","0.0-7.0-0.0-0.23","525","","j","","","","","","","","","","","","","key","j","16.666270000000367","640","356","f","false","img/S_ambi40.png","好人","prac_image_first",""
"","","","","","html-keyboard-response","58","292922","0.0-7.0-0.0-1.23","null","<span style='color:red; font-size: 70px;'>错误! </span>","null","","","","","","","","","","","","","","","","","","","","","","","feedback_test"
"","","","","","html-keyboard-response","59","296266","0.0-8.0","3340","<style>.context{color:white; font-size: 35px; line-height:40px}</style>                              <div><p class='context'>您正确回答了75% 的试次。</p><p class='context'>您的平均反应时为614毫秒。</p><p class='context'>恭喜您完成这一阶段的练习。按任意键进入<span style='color: yellow;'>先文字后图形条件</span>的练习。</p></div>","j","","","","","","","","","","","","","","","","","","","","","","",""
"","","","","","psychophysics","60","298143","0.0-9.0-0.0-0.0","720","","j","","","","","","","","","","","","","key","j","16.66760360360353","640","356","j","true","img/C_ambi40.png","好人","prac_word_first",""
"","","","","","html-keyboard-response","61","298445","0.0-9.0-0.0-1.0","null","<span style='color:GreenYellow; font-size: 70px;'>正确! </span>","null","","","","","","","","","","","","","","","","","","","","","","","feedback_test"
"","","","","","psychophysics","62","300132","0.0-9.0-0.0-0.1","536","","f","","","","","","","","","","","","","key","f","16.668222222222024","640","356","j","false","img/T_ambi40.png","常人","prac_word_first",""
"","","","","","html-keyboard-response","63","300432","0.0-9.0-0.0-1.1","null","<span style='color:red; font-size: 70px;'>错误! </span>","null","","","","","","","","","","","","","","","","","","","","","","","feedback_test"
"","","","","","psychophysics","64","302110","0.0-9.0-0.0-0.2","526","","j","","","","","","","","","","","","","key","j","16.665676767676786","640","356","j","true","img/C_ambi40.png","坏人","prac_word_first",""
"","","","","","html-keyboard-response","65","302411","0.0-9.0-0.0-1.2","null","<span style='color:GreenYellow; font-size: 70px;'>正确! </span>","null","","","","","","","","","","","","","","","","","","","","","","","feedback_test"
"","","","","","psychophysics","66","304156","0.0-9.0-0.0-0.3","594","","f","","","","","","","","","","","","","key","f","16.666692307692408","640","356","f","true","img/C_ambi40.png","常人","prac_word_first",""
"","","","","","html-keyboard-response","67","304458","0.0-9.0-0.0-1.3","null","<span style='color:GreenYellow; font-size: 70px;'>正确! </span>","null","","","","","","","","","","","","","","","","","","","","","","","feedback_test"
"","","","","","psychophysics","68","306196","0.0-9.0-0.0-0.4","586","","f","","","","","","","","","","","","","key","f","16.83112745098005","640","356","f","true","img/C_ambi40.png","常人","prac_word_first",""
"","","","","","html-keyboard-response","69","306497","0.0-9.0-0.0-1.4","null","<span style='color:GreenYellow; font-size: 70px;'>正确! </span>","null","","","","","","","","","","","","","","","","","","","","","","","feedback_test"
"","","","","","psychophysics","70","308123","0.0-9.0-0.0-0.5","475","","j","","","","","","","","","","","","","key","j","16.667041666666893","640","356","j","true","img/T_ambi40.png","好人","prac_word_first",""
"","","","","","html-keyboard-response","71","308425","0.0-9.0-0.0-1.5","null","<span style='color:GreenYellow; font-size: 70px;'>正确! </span>","null","","","","","","","","","","","","","","","","","","","","","","","feedback_test"
"","","","","","psychophysics","72","310150","0.0-9.0-0.0-0.6","573","","j","","","","","","","","","","","","","key","j","16.667401960783856","640","356","f","false","img/T_ambi40.png","坏人","prac_word_first",""
"","","","","","html-keyboard-response","73","310451","0.0-9.0-0.0-1.6","null","<span style='color:red; font-size: 70px;'>错误! </span>","null","","","","","","","","","","","","","","","","","","","","","","","feedback_test"
"","","","","","psychophysics","74","312230","0.0-9.0-0.0-0.7","626","","f","","","","","","","","","","","","","key","f","16.667038095238","640","356","f","true","img/T_ambi40.png","坏人","prac_word_first",""
"","","","","","html-keyboard-response","75","312531","0.0-9.0-0.0-1.7","null","<span style='color:GreenYellow; font-size: 70px;'>正确! </span>","null","","","","","","","","","","","","","","","","","","","","","","","feedback_test"
"","","","","","psychophysics","76","314416","0.0-9.0-0.0-0.8","734","","f","","","","","","","","","","","","","key","f","16.81808181818183","640","356","f","true","img/S_ambi40.png","好人","prac_word_first",""
"","","","","","html-keyboard-response","77","314718","0.0-9.0-0.0-1.8","null","<span style='color:GreenYellow; font-size: 70px;'>正确! </span>","null","","","","","","","","","","","","","","","","","","","","","","","feedback_test"
"","","","","","psychophysics","78","316431","0.0-9.0-0.0-0.9","560","","j","","","","","","","","","","","","","key","j","16.66695049504973","640","356","j","true","img/S_ambi40.png","坏人","prac_word_first",""
"","","","","","html-keyboard-response","79","316732","0.0-9.0-0.0-1.9","null","<span style='color:GreenYellow; font-size: 70px;'>正确! </span>","null","","","","","","","","","","","","","","","","","","","","","","","feedback_test"
"","","","","","psychophysics","80","318500","0.0-9.0-0.0-0.10","616","","f","","","","","","","","","","","","","key","f","16.667346153846527","640","356","f","true","img/S_ambi40.png","好人","prac_word_first",""
"","","","","","html-keyboard-response","81","318802","0.0-9.0-0.0-1.10","null","<span style='color:GreenYellow; font-size: 70px;'>正确! </span>","null","","","","","","","","","","","","","","","","","","","","","","","feedback_test"
"","","","","","psychophysics","82","320489","0.0-9.0-0.0-0.11","535","","j","","","","","","","","","","","","","key","j","16.665599999999976","640","356","j","true","img/S_ambi40.png","常人","prac_word_first",""
"","","","","","html-keyboard-response","83","320791","0.0-9.0-0.0-1.11","null","<span style='color:GreenYellow; font-size: 70px;'>正确! </span>","null","","","","","","","","","","","","","","","","","","","","","","","feedback_test"
"","","","","","psychophysics","84","322401","0.0-9.0-0.0-0.12","458","","j","","","","","","","","","","","","","key","j","16.66634374999982","640","356","j","true","img/C_ambi40.png","坏人","prac_word_first",""
"","","","","","html-keyboard-response","85","322702","0.0-9.0-0.0-1.12","null","<span style='color:GreenYellow; font-size: 70px;'>正确! </span>","null","","","","","","","","","","","","","","","","","","","","","","","feedback_test"
"","","","","","psychophysics","86","324331","0.0-9.0-0.0-0.13","476","","j","","","","","","","","","","","","","key","j","16.666239583333663","640","356","j","true","img/S_ambi40.png","常人","prac_word_first",""
"","","","","","html-keyboard-response","87","324631","0.0-9.0-0.0-1.13","null","<span style='color:GreenYellow; font-size: 70px;'>正确! </span>","null","","","","","","","","","","","","","","","","","","","","","","","feedback_test"
"","","","","","psychophysics","88","326593","0.0-9.0-0.0-0.14","810","","j","","","","","","","","","","","","","key","j","16.666258620689845","640","356","j","true","img/T_ambi40.png","好人","prac_word_first",""
"","","","","","html-keyboard-response","89","326895","0.0-9.0-0.0-1.14","null","<span style='color:GreenYellow; font-size: 70px;'>正确! </span>","null","","","","","","","","","","","","","","","","","","","","","","","feedback_test"
"","","","","","psychophysics","90","328499","0.0-9.0-0.0-0.15","453","","j","","","","","","","","","","","","","key","j","16.667136842104924","640","356","j","true","img/T_ambi40.png","常人","prac_word_first",""
"","","","","","html-keyboard-response","91","328801","0.0-9.0-0.0-1.15","null","<span style='color:GreenYellow; font-size: 70px;'>正确! </span>","null","","","","","","","","","","","","","","","","","","","","","","","feedback_test"
"","","","","","psychophysics","92","330439","0.0-9.0-0.0-0.16","487","","f","","","","","","","","","","","","","key","f","16.665907216494777","640","356","f","true","img/S_ambi40.png","好人","prac_word_first",""
"","","","","","html-keyboard-response","93","330741","0.0-9.0-0.0-1.16","null","<span style='color:GreenYellow; font-size: 70px;'>正确! </span>","null","","","","","","","","","","","","","","","","","","","","","","","feedback_test"
"","","","","","psychophysics","94","332425","0.0-9.0-0.0-0.17","533","","j","","","","","","","","","","","","","key","j","16.666909999999916","640","356","j","true","img/C_ambi40.png","好人","prac_word_first",""
"","","","","","html-keyboard-response","95","332727","0.0-9.0-0.0-1.17","null","<span style='color:GreenYellow; font-size: 70px;'>正确! </span>","null","","","","","","","","","","","","","","","","","","","","","","","feedback_test"
"","","","","","psychophysics","96","334306","0.0-9.0-0.0-0.18","427","","j","","","","","","","","","","","","","key","j","16.665702127659586","640","356","f","false","img/C_ambi40.png","常人","prac_word_first",""
"","","","","","html-keyboard-response","97","334607","0.0-9.0-0.0-1.18","null","<span style='color:red; font-size: 70px;'>错误! </span>","null","","","","","","","","","","","","","","","","","","","","","","","feedback_test"
"","","","","","psychophysics","98","336198","0.0-9.0-0.0-0.19","438","","f","","","","","","","","","","","","","key","f","16.666638297872232","640","356","f","true","img/T_ambi40.png","坏人","prac_word_first",""
"","","","","","html-keyboard-response","99","336499","0.0-9.0-0.0-1.19","null","<span style='color:GreenYellow; font-size: 70px;'>正确! </span>","null","","","","","","","","","","","","","","","","","","","","","","","feedback_test"
"","","","","","psychophysics","100","338112","0.0-9.0-0.0-0.20","461","","j","","","","","","","","","","","","","key","j","16.665978947368842","640","356","f","false","img/C_ambi40.png","常人","prac_word_first",""
"","","","","","html-keyboard-response","101","338413","0.0-9.0-0.0-1.20","null","<span style='color:red; font-size: 70px;'>错误! </span>","null","","","","","","","","","","","","","","","","","","","","","","","feedback_test"
"","","","","","psychophysics","102","340085","0.0-9.0-0.0-0.21","520","","j","","","","","","","","","","","","","key","j","16.667489999999525","640","356","f","false","img/S_ambi40.png","好人","prac_word_first",""
"","","","","","html-keyboard-response","103","340387","0.0-9.0-0.0-1.21","null","<span style='color:red; font-size: 70px;'>错误! </span>","null","","","","","","","","","","","","","","","","","","","","","","","feedback_test"
"","","","","","psychophysics","104","342173","0.0-9.0-0.0-0.22","634","","j","","","","","","","","","","","","","key","j","16.66701886792478","640","356","j","true","img/S_ambi40.png","坏人","prac_word_first",""
"","","","","","html-keyboard-response","105","342474","0.0-9.0-0.0-1.22","null","<span style='color:GreenYellow; font-size: 70px;'>正确! </span>","null","","","","","","","","","","","","","","","","","","","","","","","feedback_test"
"","","","","","psychophysics","106","344106","0.0-9.0-0.0-0.23","479","","f","","","","","","","","","","","","","key","f","16.66686597938131","640","356","f","true","img/T_ambi40.png","坏人","prac_word_first",""
"","","","","","html-keyboard-response","107","344408","0.0-9.0-0.0-1.23","null","<span style='color:GreenYellow; font-size: 70px;'>正确! </span>","null","","","","","","","","","","","","","","","","","","","","","","","feedback_test"
"","","","","","html-keyboard-response","108","347043","0.0-10.0","2633","<style>.context{color:white; font-size: 35px; line-height:40px}</style>                              <div><p class='context'>您正确回答了79% 的试次。</p><p class='context'>您的平均反应时为565毫秒。</p><p class='context'>恭喜您完成练习。按任意键进入<span style='color: yellow;'>图形和文字同时呈现条件</span>的练习。</p></div>"," ","","","","","","","","","","","","","","","","","","","","","","",""
"","","","","","psychophysics","109","348964","0.0-11.0-0.0-0.0","914","","f","","","","","","","","","","","","","key","f","16.668371681415525","640","356","f","true","img/C_ambi40.png","常人","prac_simultaneous",""
"","","","","","html-keyboard-response","110","349265","0.0-11.0-0.0-1.0","null","<span style='color:GreenYellow; font-size: 70px;'>正确! </span>","null","","","","","","","","","","","","","","","","","","","","","","","feedback_test"
"","","","","","psychophysics","111","350806","0.0-11.0-0.0-0.1","541","","j","","","","","","","","","","","","","key","j","16.666802197802237","640","356","j","true","img/C_ambi40.png","坏人","prac_simultaneous",""
"","","","","","html-keyboard-response","112","351108","0.0-11.0-0.0-1.1","null","<span style='color:GreenYellow; font-size: 70px;'>正确! </span>","null","","","","","","","","","","","","","","","","","","","","","","","feedback_test"
"","","","","","psychophysics","113","352729","0.0-11.0-0.0-0.2","619","","f","","","","","","","","","","","","","key","f","16.66629166666644","640","356","f","true","img/S_ambi40.png","好人","prac_simultaneous",""
"","","","","","html-keyboard-response","114","353031","0.0-11.0-0.0-1.2","null","<span style='color:GreenYellow; font-size: 70px;'>正确! </span>","null","","","","","","","","","","","","","","","","","","","","","","","feedback_test"
"","","","","","psychophysics","115","354602","0.0-11.0-0.0-0.3","569","","f","","","","","","","","","","","","","key","f","16.666619565217683","640","356","j","false","img/S_ambi40.png","常人","prac_simultaneous",""
"","","","","","html-keyboard-response","116","354904","0.0-11.0-0.0-1.3","null","<span style='color:red; font-size: 70px;'>错误! </span>","null","","","","","","","","","","","","","","","","","","","","","","","feedback_test"
"","","","","","psychophysics","117","356612","0.0-11.0-0.0-0.4","706","","j","","","","","","","","","","","","","key","j","16.666405940594355","640","356","j","true","img/C_ambi40.png","好人","prac_simultaneous",""
"","","","","","html-keyboard-response","118","356912","0.0-11.0-0.0-1.4","null","<span style='color:GreenYellow; font-size: 70px;'>正确! </span>","null","","","","","","","","","","","","","","","","","","","","","","","feedback_test"
"","","","","","psychophysics","119","358616","0.0-11.0-0.0-0.5","702","","j","","","","","","","","","","","","","key","j","16.66625742574273","640","356","f","false","img/C_ambi40.png","常人","prac_simultaneous",""
"","","","","","html-keyboard-response","120","358917","0.0-11.0-0.0-1.5","null","<span style='color:red; font-size: 70px;'>错误! </span>","null","","","","","","","","","","","","","","","","","","","","","","","feedback_test"
"","","","","","psychophysics","121","360610","0.0-11.0-0.0-0.6","691","","f","","","","","","","","","","","","","key","f","16.666780000000145","640","356","j","false","img/S_ambi40.png","坏人","prac_simultaneous",""
"","","","","","html-keyboard-response","122","360912","0.0-11.0-0.0-1.6","null","<span style='color:red; font-size: 70px;'>错误! </span>","null","","","","","","","","","","","","","","","","","","","","","","","feedback_test"
"","","","","","psychophysics","123","362700","0.0-11.0-0.0-0.7","787","","j","","","","","","","","","","","","","key","j","16.667320754716748","640","356","f","false","img/T_ambi40.png","坏人","prac_simultaneous",""
"","","","","","html-keyboard-response","124","363001","0.0-11.0-0.0-1.7","null","<span style='color:red; font-size: 70px;'>错误! </span>","null","","","","","","","","","","","","","","","","","","","","","","","feedback_test"
"","","","","","psychophysics","125","364616","0.0-11.0-0.0-0.8","612","","j","","","","","","","","","","","","","key","j","16.667221052631565","640","356","j","true","img/T_ambi40.png","常人","prac_simultaneous",""
"","","","","","html-keyboard-response","126","364917","0.0-11.0-0.0-1.8","null","<span style='color:GreenYellow; font-size: 70px;'>正确! </span>","null","","","","","","","","","","","","","","","","","","","","","","","feedback_test"
"","","","","","psychophysics","127","366560","0.0-11.0-0.0-0.9","643","","f","","","","","","","","","","","","","key","f","16.66759793814416","640","356","f","true","img/S_ambi40.png","好人","prac_simultaneous",""
"","","","","","html-keyboard-response","128","366862","0.0-11.0-0.0-1.9","null","<span style='color:GreenYellow; font-size: 70px;'>正确! </span>","null","","","","","","","","","","","","","","","","","","","","","","","feedback_test"
"","","","","","psychophysics","129","368522","0.0-11.0-0.0-0.10","659","","j","","","","","","","","","","","","","key","j","16.666777777777764","640","356","f","false","img/T_ambi40.png","坏人","prac_simultaneous",""
"","","","","","html-keyboard-response","130","368824","0.0-11.0-0.0-1.10","null","<span style='color:red; font-size: 70px;'>错误! </span>","null","","","","","","","","","","","","","","","","","","","","","","","feedback_test"
"","","","","","psychophysics","131","370573","0.0-11.0-0.0-0.11","747","","j","","","","","","","","","","","","","key","j","16.66615533980584","640","356","j","true","img/T_ambi40.png","好人","prac_simultaneous",""
"","","","","","html-keyboard-response","132","370874","0.0-11.0-0.0-1.11","null","<span style='color:GreenYellow; font-size: 70px;'>正确! </span>","null","","","","","","","","","","","","","","","","","","","","","","","feedback_test"
"","","","","","psychophysics","133","372547","0.0-11.0-0.0-0.12","670","","j","","","","","","","","","","","","","key","j","16.666787878787755","640","356","f","false","img/T_ambi40.png","坏人","prac_simultaneous",""
"","","","","","html-keyboard-response","134","372848","0.0-11.0-0.0-1.12","null","<span style='color:red; font-size: 70px;'>错误! </span>","null","","","","","","","","","","","","","","","","","","","","","","","feedback_test"
"","","","","","psychophysics","135","374501","0.0-11.0-0.0-0.13","650","","j","","","","","","","","","","","","","key","j","16.667122448979264","640","356","f","false","img/C_ambi40.png","常人","prac_simultaneous",""
"","","","","","html-keyboard-response","136","374803","0.0-11.0-0.0-1.13","null","<span style='color:red; font-size: 70px;'>错误! </span>","null","","","","","","","","","","","","","","","","","","","","","","","feedback_test"
"","","","","","psychophysics","137","376452","0.0-11.0-0.0-0.14","648","","f","","","","","","","","","","","","","key","f","16.66683673469364","640","356","f","true","img/C_ambi40.png","常人","prac_simultaneous",""
"","","","","","html-keyboard-response","138","376755","0.0-11.0-0.0-1.14","null","<span style='color:GreenYellow; font-size: 70px;'>正确! </span>","null","","","","","","","","","","","","","","","","","","","","","","","feedback_test"
"","","","","","psychophysics","139","378275","0.0-11.0-0.0-0.15","517","","f","","","","","","","","","","","","","key","f","16.666366666666647","640","356","j","false","img/T_ambi40.png","好人","prac_simultaneous",""
"","","","","","html-keyboard-response","140","378577","0.0-11.0-0.0-1.15","null","<span style='color:red; font-size: 70px;'>错误! </span>","null","","","","","","","","","","","","","","","","","","","","","","","feedback_test"
"","","","","","psychophysics","141","380410","0.0-11.0-0.0-0.16","831","","j","","","","","","","","","","","","","key","j","16.66799074074111","640","356","j","true","img/S_ambi40.png","常人","prac_simultaneous",""
"","","","","","html-keyboard-response","142","380711","0.0-11.0-0.0-1.16","null","<span style='color:GreenYellow; font-size: 70px;'>正确! </span>","null","","","","","","","","","","","","","","","","","","","","","","","feedback_test"
"","","","","","psychophysics","143","382244","0.0-11.0-0.0-0.17","531","","f","","","","","","","","","","","","","key","f","16.666659340658992","640","356","f","true","img/T_ambi40.png","坏人","prac_simultaneous",""
"","","","","","html-keyboard-response","144","382546","0.0-11.0-0.0-1.17","null","<span style='color:GreenYellow; font-size: 70px;'>正确! </span>","null","","","","","","","","","","","","","","","","","","","","","","","feedback_test"
"","","","","","psychophysics","145","384167","0.0-11.0-0.0-0.18","619","","j","","","","","","","","","","","","","key","j","16.66645833333314","640","356","j","true","img/S_ambi40.png","坏人","prac_simultaneous",""
"","","","","","html-keyboard-response","146","384468","0.0-11.0-0.0-1.18","null","<span style='color:GreenYellow; font-size: 70px;'>正确! </span>","null","","","","","","","","","","","","","","","","","","","","","","","feedback_test"
"","","","","","psychophysics","147","386090","0.0-11.0-0.0-0.19","620","","j","","","","","","","","","","","","","key","j","16.84315789473721","640","356","j","true","img/C_ambi40.png","好人","prac_simultaneous",""
"","","","","","html-keyboard-response","148","386391","0.0-11.0-0.0-1.19","null","<span style='color:GreenYellow; font-size: 70px;'>正确! </span>","null","","","","","","","","","","","","","","","","","","","","","","","feedback_test"
"","","","","","psychophysics","149","388085","0.0-11.0-0.0-0.20","692","","f","","","","","","","","","","","","","key","f","16.666633663366497","640","356","f","true","img/S_ambi40.png","好人","prac_simultaneous",""
"","","","","","html-keyboard-response","150","388387","0.0-11.0-0.0-1.20","null","<span style='color:GreenYellow; font-size: 70px;'>正确! </span>","null","","","","","","","","","","","","","","","","","","","","","","","feedback_test"
"","","","","","psychophysics","151","389932","0.0-11.0-0.0-0.21","543","","f","","","","","","","","","","","","","key","f","16.66892307692279","640","356","f","true","img/S_ambi40.png","好人","prac_simultaneous",""
"","","","","","html-keyboard-response","152","390234","0.0-11.0-0.0-1.21","null","<span style='color:GreenYellow; font-size: 70px;'>正确! </span>","null","","","","","","","","","","","","","","","","","","","","","","","feedback_test"
"","","","","","psychophysics","153","391803","0.0-11.0-0.0-0.22","567","","j","","","","","","","","","","","","","key","j","16.666774193548488","640","356","j","true","img/C_ambi40.png","坏人","prac_simultaneous",""
"","","","","","html-keyboard-response","154","392105","0.0-11.0-0.0-1.22","null","<span style='color:GreenYellow; font-size: 70px;'>正确! </span>","null","","","","","","","","","","","","","","","","","","","","","","","feedback_test"
"","","","","","psychophysics","155","393783","0.0-11.0-0.0-0.23","676","","j","","","","","","","","","","","","","key","j","16.66709090909107","640","356","j","true","img/T_ambi40.png","常人","prac_simultaneous",""
"","","","","","html-keyboard-response","156","394085","0.0-11.0-0.0-1.23","null","<span style='color:GreenYellow; font-size: 70px;'>正确! </span>","null","","","","","","","","","","","","","","","","","","","","","","","feedback_test"
"","","","","","html-keyboard-response","157","396514","0.0-12.0","2427","<style>.context{color:white; font-size: 35px; line-height:40px}</style>                              <div><p class='context'>您正确回答了67% 的试次。</p><p class='context'>您的平均反应时为657毫秒。</p><p class='context'>恭喜您完成练习。按任意键进入正式实验。</p><p class='footer' style='font-size: 35px; line-height:40px;'>请在进入正式实验实验之前将您的<span style='color: lightgreen;'>食指</span>放在电脑键盘的相应键位上进行按键。</p>"," ","","","","","","","","","","","","","","","","","","","","","","",""
"","","","","","html-keyboard-response","158","397832","0.0-13.0-1.0-0.0","1314","
      <p>请您将手指放在按键上，准备进入呈现顺序为<span style='color: yellow;'>先文字后图形条件</span>的正式匹配任务</p>
      <p> <div style = ""color: green""><按任意键进入下一阶段的匹配任务></div></p>
      "," ","","","","","","","","","","","","","","","","","","","","","","",""
"","","","","","psychophysics","159","399391","0.0-13.0-1.0-1.0-0.0-0.0","408","","j","","","","","","","","","","","","","key","j","16.84946153846129","640","356","j","true","img/S_ambi40.png","坏人","word_first",""
"","","","","","html-keyboard-response","160","399693","0.0-13.0-1.0-1.0-0.0-1.0","null","<span style='color:GreenYellow; font-size: 70px;'>正确! </span>","null","","","","","","","","","","","","","","","","","","","","","","","feedback_test"
"","","","","","psychophysics","161","401315","0.0-13.0-1.0-1.0-0.0-0.1","471","","j","","","","","","","","","","","","","key","j","16.666781249999985","640","356","f","false","img/S_ambi40.png","好人","word_first",""
"","","","","","html-keyboard-response","162","401616","0.0-13.0-1.0-1.0-0.0-1.1","null","<span style='color:red; font-size: 70px;'>错误! </span>","null","","","","","","","","","","","","","","","","","","","","","","","feedback_test"
"","","","","","psychophysics","163","403326","0.0-13.0-1.0-1.0-0.0-0.2","558","","j","","","","","","","","","","","","","key","j","16.665623762376264","640","356","j","true","img/C_ambi40.png","好人","word_first",""
"","","","","","html-keyboard-response","164","403628","0.0-13.0-1.0-1.0-0.0-1.2","null","<span style='color:GreenYellow; font-size: 70px;'>正确! </span>","null","","","","","","","","","","","","","","","","","","","","","","","feedback_test"
"","","","","","psychophysics","165","405241","0.0-13.0-1.0-1.0-0.0-0.3","462","","j","","","","","","","","","","","","","key","j","16.66645833333314","640","356","j","true","img/C_ambi40.png","坏人","word_first",""
"","","","","","html-keyboard-response","166","405542","0.0-13.0-1.0-1.0-0.0-1.3","null","<span style='color:GreenYellow; font-size: 70px;'>正确! </span>","null","","","","","","","","","","","","","","","","","","","","","","","feedback_test"
"","","","","","psychophysics","167","407179","0.0-13.0-1.0-1.0-0.0-0.4","484","","f","","","","","","","","","","","","","key","f","16.668072164948","640","356","j","false","img/T_ambi40.png","好人","word_first",""
"","","","","","html-keyboard-response","168","407481","0.0-13.0-1.0-1.0-0.0-1.4","null","<span style='color:red; font-size: 70px;'>错误! </span>","null","","","","","","","","","","","","","","","","","","","","","","","feedback_test"
"","","","","","psychophysics","169","409203","0.0-13.0-1.0-1.0-0.0-0.5","570","","j","","","","","","","","","","","","","key","j","16.66583333333313","640","356","j","true","img/T_ambi40.png","常人","word_first",""
"","","","","","html-keyboard-response","170","409506","0.0-13.0-1.0-1.0-0.0-1.5","null","<span style='color:GreenYellow; font-size: 70px;'>正确! </span>","null","","","","","","","","","","","","","","","","","","","","","","","feedback_test"
"","","","","","psychophysics","171","411361","0.0-13.0-1.0-1.0-0.0-0.6","703","","j","","","","","","","","","","","","","key","j","16.667581818181894","640","356","j","true","img/S_ambi40.png","常人","word_first",""
"","","","","","html-keyboard-response","172","411663","0.0-13.0-1.0-1.0-0.0-1.6","null","<span style='color:GreenYellow; font-size: 70px;'>正确! </span>","null","","","","","","","","","","","","","","","","","","","","","","","feedback_test"
"","","","","","psychophysics","173","413242","0.0-13.0-1.0-1.0-0.0-0.7","427","","j","","","","","","","","","","","","","key","j","16.66612903225819","640","356","f","false","img/C_ambi40.png","常人","word_first",""
"","","","","","html-keyboard-response","174","413544","0.0-13.0-1.0-1.0-0.0-1.7","null","<span style='color:red; font-size: 70px;'>错误! </span>","null","","","","","","","","","","","","","","","","","","","","","","","feedback_test"
"","","","","","psychophysics","175","415178","0.0-13.0-1.0-1.0-0.0-0.8","483","","f","","","","","","","","","","","","","key","f","16.666391752577464","640","356","f","true","img/T_ambi40.png","坏人","word_first",""
"","","","","","html-keyboard-response","176","415479","0.0-13.0-1.0-1.0-0.0-1.8","null","<span style='color:GreenYellow; font-size: 70px;'>正确! </span>","null","","","","","","","","","","","","","","","","","","","","","","","feedback_test"
"","","","","","psychophysics","177","417123","0.0-13.0-1.0-1.0-0.0-0.9","491","","f","","","","","","","","","","","","","key","f","16.669214285714123","640","356","f","true","img/T_ambi40.png","坏人","word_first",""
"","","","","","html-keyboard-response","178","417424","0.0-13.0-1.0-1.0-0.0-1.9","null","<span style='color:GreenYellow; font-size: 70px;'>正确! </span>","null","","","","","","","","","","","","","","","","","","","","","","","feedback_test"
"","","","","","psychophysics","179","419011","0.0-13.0-1.0-1.0-0.0-0.10","435","","j","","","","","","","","","","","","","key","j","16.6658617021272","640","356","f","false","img/C_ambi40.png","常人","word_first",""
"","","","","","html-keyboard-response","180","419313","0.0-13.0-1.0-1.0-0.0-1.10","null","<span style='color:red; font-size: 70px;'>错误! </span>","null","","","","","","","","","","","","","","","","","","","","","","","feedback_test"
"","","","","","psychophysics","181","420968","0.0-13.0-1.0-1.0-0.0-0.11","502","","j","","","","","","","","","","","","","key","j","16.66630612244908","640","356","f","false","img/S_ambi40.png","好人","word_first",""
"","","","","","html-keyboard-response","182","421270","0.0-13.0-1.0-1.0-0.0-1.11","null","<span style='color:red; font-size: 70px;'>错误! </span>","null","","","","","","","","","","","","","","","","","","","","","","","feedback_test"
"","","","","","psychophysics","183","423089","0.0-13.0-1.0-1.0-0.0-0.12","666","","j","","","","","","","","","","","","","key","j","16.667055555555702","640","356","j","true","img/T_ambi40.png","好人","word_first",""
"","","","","","html-keyboard-response","184","423390","0.0-13.0-1.0-1.0-0.0-1.12","null","<span style='color:GreenYellow; font-size: 70px;'>正确! </span>","null","","","","","","","","","","","","","","","","","","","","","","","feedback_test"
"","","","","","psychophysics","185","425065","0.0-13.0-1.0-1.0-0.0-0.13","523","","j","","","","","","","","","","","","","key","j","16.666292929292815","640","356","j","true","img/S_ambi40.png","坏人","word_first",""
"","","","","","html-keyboard-response","186","425366","0.0-13.0-1.0-1.0-0.0-1.13","null","<span style='color:GreenYellow; font-size: 70px;'>正确! </span>","null","","","","","","","","","","","","","","","","","","","","","","","feedback_test"
"","","","","","psychophysics","187","427041","0.0-13.0-1.0-1.0-0.0-0.14","524","","j","","","","","","","","","","","","","key","j","16.667121212121046","640","356","j","true","img/T_ambi40.png","常人","word_first",""
"","","","","","html-keyboard-response","188","427342","0.0-13.0-1.0-1.0-0.0-1.14","null","<span style='color:GreenYellow; font-size: 70px;'>正确! </span>","null","","","","","","","","","","","","","","","","","","","","","","","feedback_test"
"","","","","","psychophysics","189","429154","0.0-13.0-1.0-1.0-0.0-0.15","661","","f","","","","","","","","","","","","","key","f","16.66545370370376","640","356","j","false","img/C_ambi40.png","好人","word_first",""
"","","","","","html-keyboard-response","190","429455","0.0-13.0-1.0-1.0-0.0-1.15","null","<span style='color:red; font-size: 70px;'>错误! </span>","null","","","","","","","","","","","","","","","","","","","","","","","feedback_test"
"","","","","","psychophysics","191","431444","0.0-13.0-1.0-1.0-0.0-0.16","837","","j","","","","","","","","","","","","","key","j","16.666322033898215","640","356","j","true","img/C_ambi40.png","坏人","word_first",""
"","","","","","html-keyboard-response","192","431745","0.0-13.0-1.0-1.0-0.0-1.16","null","<span style='color:GreenYellow; font-size: 70px;'>正确! </span>","null","","","","","","","","","","","","","","","","","","","","","","","feedback_test"
"","","","","","psychophysics","193","433497","0.0-13.0-1.0-1.0-0.0-0.17","601","","f","","","","","","","","","","","","","key","f","16.666846153846283","640","356","f","true","img/C_ambi40.png","常人","word_first",""
"","","","","","html-keyboard-response","194","433798","0.0-13.0-1.0-1.0-0.0-1.17","null","<span style='color:GreenYellow; font-size: 70px;'>正确! </span>","null","","","","","","","","","","","","","","","","","","","","","","","feedback_test"
"","","","","","psychophysics","195","435479","0.0-13.0-1.0-1.0-0.0-0.18","529","","j","","","","","","","","","","","","","key","j","16.665868686869","640","356","f","false","img/T_ambi40.png","坏人","word_first",""
"","","","","","html-keyboard-response","196","435780","0.0-13.0-1.0-1.0-0.0-1.18","null","<span style='color:red; font-size: 70px;'>错误! </span>","null","","","","","","","","","","","","","","","","","","","","","","","feedback_test"
"","","","","","psychophysics","197","437568","0.0-13.0-1.0-1.0-0.0-0.19","635","","j","","","","","","","","","","","","","key","j","16.66678301886796","640","356","f","false","img/T_ambi40.png","坏人","word_first",""
"","","","","","html-keyboard-response","198","437870","0.0-13.0-1.0-1.0-0.0-1.19","null","<span style='color:red; font-size: 70px;'>错误! </span>","null","","","","","","","","","","","","","","","","","","","","","","","feedback_test"
"","","","","","psychophysics","199","439564","0.0-13.0-1.0-1.0-0.0-0.20","543","","j","","","","","","","","","","","","","key","j","16.66591000000015","640","356","f","false","img/S_ambi40.png","好人","word_first",""
"","","","","","html-keyboard-response","200","439866","0.0-13.0-1.0-1.0-0.0-1.20","null","<span style='color:red; font-size: 70px;'>错误! </span>","null","","","","","","","","","","","","","","","","","","","","","","","feedback_test"
"","","","","","psychophysics","201","441558","0.0-13.0-1.0-1.0-0.0-0.21","540","","f","","","","","","","","","","","","","key","f","16.667999999999882","640","356","f","true","img/S_ambi40.png","好人","word_first",""
"","","","","","html-keyboard-response","202","441859","0.0-13.0-1.0-1.0-0.0-1.21","null","<span style='color:GreenYellow; font-size: 70px;'>正确! </span>","null","","","","","","","","","","","","","","","","","","","","","","","feedback_test"
"","","","","","psychophysics","203","443474","0.0-13.0-1.0-1.0-0.0-0.22","463","","f","","","","","","","","","","","","","key","f","16.667114583333387","640","356","j","false","img/S_ambi40.png","常人","word_first",""
"","","","","","html-keyboard-response","204","443776","0.0-13.0-1.0-1.0-0.0-1.22","null","<span style='color:red; font-size: 70px;'>错误! </span>","null","","","","","","","","","","","","","","","","","","","","","","","feedback_test"
"","","","","","psychophysics","205","445533","0.0-13.0-1.0-1.0-0.0-0.23","606","","j","","","","","","","","","","","","","key","j","16.668173076922987","640","356","f","false","img/C_ambi40.png","常人","word_first",""
"","","","","","html-keyboard-response","206","445835","0.0-13.0-1.0-1.0-0.0-1.23","null","<span style='color:red; font-size: 70px;'>错误! </span>","null","","","","","","","","","","","","","","","","","","","","","","","feedback_test"
"","","","","","psychophysics","207","447565","0.0-13.0-1.0-1.0-0.0-0.24","578","","j","","","","","","","","","","","","","key","j","16.665852941176627","640","356","f","false","img/S_ambi40.png","好人","word_first",""
"","","","","","html-keyboard-response","208","447867","0.0-13.0-1.0-1.0-0.0-1.24","null","<span style='color:red; font-size: 70px;'>错误! </span>","null","","","","","","","","","","","","","","","","","","","","","","","feedback_test"
"","","","","","psychophysics","209","449871","0.0-13.0-1.0-1.0-0.0-0.25","853","","f","","","","","","","","","","","","","key","f","16.66577310924332","640","356","f","true","img/S_ambi40.png","好人","word_first",""
"","","","","","html-keyboard-response","210","450174","0.0-13.0-1.0-1.0-0.0-1.25","null","<span style='color:GreenYellow; font-size: 70px;'>正确! </span>","null","","","","","","","","","","","","","","","","","","","","","","","feedback_test"
"","","","","","psychophysics","211","451977","0.0-13.0-1.0-1.0-0.0-0.26","651","","f","","","","","","","","","","","","","key","f","16.66709345794407","640","356","f","true","img/C_ambi40.png","常人","word_first",""
"","","","","","html-keyboard-response","212","452278","0.0-13.0-1.0-1.0-0.0-1.26","null","<span style='color:GreenYellow; font-size: 70px;'>正确! </span>","null","","","","","","","","","","","","","","","","","","","","","","","feedback_test"
"","","","","","psychophysics","213","453998","0.0-13.0-1.0-1.0-0.0-0.27","567","","j","","","","","","","","","","","","","key","j","16.666784313725373","640","356","j","true","img/C_ambi40.png","好人","word_first",""
"","","","","","html-keyboard-response","214","454299","0.0-13.0-1.0-1.0-0.0-1.27","null","<span style='color:GreenYellow; font-size: 70px;'>正确! </span>","null","","","","","","","","","","","","","","","","","","","","","","","feedback_test"
"","","","","","psychophysics","215","455936","0.0-13.0-1.0-1.0-0.0-0.28","485","","f","","","","","","","","","","","","","key","f","16.668134020618044","640","356","j","false","img/S_ambi40.png","常人","word_first",""
"","","","","","html-keyboard-response","216","456237","0.0-13.0-1.0-1.0-0.0-1.28","null","<span style='color:red; font-size: 70px;'>错误! </span>","null","","","","","","","","","","","","","","","","","","","","","","","feedback_test"
"","","","","","psychophysics","217","458115","0.0-13.0-1.0-1.0-0.0-0.29","727","","f","","","","","","","","","","","","","key","f","16.66634234234267","640","356","f","true","img/T_ambi40.png","坏人","word_first",""
"","","","","","html-keyboard-response","218","458416","0.0-13.0-1.0-1.0-0.0-1.29","null","<span style='color:GreenYellow; font-size: 70px;'>正确! </span>","null","","","","","","","","","","","","","","","","","","","","","","","feedback_test"
"","","","","","psychophysics","219","460529","0.0-13.0-1.0-1.0-0.0-0.30","961","","f","","","","","","","","","","","","","key","f","16.666479999999982","640","356","j","false","img/T_ambi40.png","好人","word_first",""
"","","","","","html-keyboard-response","220","460830","0.0-13.0-1.0-1.0-0.0-1.30","null","<span style='color:red; font-size: 70px;'>错误! </span>","null","","","","","","","","","","","","","","","","","","","","","","","feedback_test"
"","","","","","psychophysics","221","462734","0.0-13.0-1.0-1.0-0.0-0.31","752","","f","","","","","","","","","","","","","key","f","16.667026548672148","640","356","f","true","img/C_ambi40.png","常人","word_first",""
"","","","","","html-keyboard-response","222","463035","0.0-13.0-1.0-1.0-0.0-1.31","null","<span style='color:GreenYellow; font-size: 70px;'>正确! </span>","null","","","","","","","","","","","","","","","","","","","","","","","feedback_test"
"","","","","","psychophysics","223","464998","0.0-13.0-1.0-1.0-0.0-0.32","810","","j","","","","","","","","","","","","","key","j","16.667620689655326","640","356","j","true","img/S_ambi40.png","坏人","word_first",""
"","","","","","html-keyboard-response","224","465299","0.0-13.0-1.0-1.0-0.0-1.32","null","<span style='color:GreenYellow; font-size: 70px;'>正确! </span>","null","","","","","","","","","","","","","","","","","","","","","","","feedback_test"
"","","","","","psychophysics","225","467079","0.0-13.0-1.0-1.0-0.0-0.33","629","","f","","","","","","","","","","","","","key","f","16.66617142857119","640","356","f","true","img/T_ambi40.png","坏人","word_first",""
"","","","","","html-keyboard-response","226","467381","0.0-13.0-1.0-1.0-0.0-1.33","null","<span style='color:GreenYellow; font-size: 70px;'>正确! </span>","null","","","","","","","","","","","","","","","","","","","","","","","feedback_test"
"","","","","","psychophysics","227","469073","0.0-13.0-1.0-1.0-0.0-0.34","540","","j","","","","","","","","","","","","","key","j","16.6665499999997","640","356","j","true","img/C_ambi40.png","坏人","word_first",""
"","","","","","html-keyboard-response","228","469374","0.0-13.0-1.0-1.0-0.0-1.34","null","<span style='color:GreenYellow; font-size: 70px;'>正确! </span>","null","","","","","","","","","","","","","","","","","","","","","","","feedback_test"
"","","","","","psychophysics","229","471118","0.0-13.0-1.0-1.0-0.0-0.35","592","","j","","","","","","","","","","","","","key","j","16.667117647058557","640","356","j","true","img/T_ambi40.png","常人","word_first",""
"","","","","","html-keyboard-response","230","471419","0.0-13.0-1.0-1.0-0.0-1.35","null","<span style='color:GreenYellow; font-size: 70px;'>正确! </span>","null","","","","","","","","","","","","","","","","","","","","","","","feedback_test"
"","","","","","psychophysics","231","473167","0.0-13.0-1.0-1.0-0.0-0.36","596","","j","","","","","","","","","","","","","key","j","16.667660194175042","640","356","j","true","img/C_ambi40.png","坏人","word_first",""
"","","","","","html-keyboard-response","232","473468","0.0-13.0-1.0-1.0-0.0-1.36","null","<span style='color:GreenYellow; font-size: 70px;'>正确! </span>","null","","","","","","","","","","","","","","","","","","","","","","","feedback_test"
"","","","","","psychophysics","233","475246","0.0-13.0-1.0-1.0-0.0-0.37","626","","j","","","","","","","","","","","","","key","j","16.82783653846183","640","356","j","true","img/S_ambi40.png","坏人","word_first",""
"","","","","","html-keyboard-response","234","475547","0.0-13.0-1.0-1.0-0.0-1.37","null","<span style='color:GreenYellow; font-size: 70px;'>正确! </span>","null","","","","","","","","","","","","","","","","","","","","","","","feedback_test"
"","","","","","psychophysics","235","477390","0.0-13.0-1.0-1.0-0.0-0.38","690","","f","","","","","","","","","","","","","key","f","16.666788990825623","640","356","j","false","img/T_ambi40.png","好人","word_first",""
"","","","","","html-keyboard-response","236","477692","0.0-13.0-1.0-1.0-0.0-1.38","null","<span style='color:red; font-size: 70px;'>错误! </span>","null","","","","","","","","","","","","","","","","","","","","","","","feedback_test"
"","","","","","psychophysics","237","479643","0.0-13.0-1.0-1.0-0.0-0.39","799","","j","","","","","","","","","","","","","key","j","16.665793103447932","640","356","j","true","img/C_ambi40.png","好人","word_first",""
"","","","","","html-keyboard-response","238","479945","0.0-13.0-1.0-1.0-0.0-1.39","null","<span style='color:GreenYellow; font-size: 70px;'>正确! </span>","null","","","","","","","","","","","","","","","","","","","","","","","feedback_test"
"","","","","","psychophysics","239","481592","0.0-13.0-1.0-1.0-0.0-0.40","496","","j","","","","","","","","","","","","","key","j","16.66755102040859","640","356","f","false","img/S_ambi40.png","好人","word_first",""
"","","","","","html-keyboard-response","240","481894","0.0-13.0-1.0-1.0-0.0-1.40","null","<span style='color:red; font-size: 70px;'>错误! </span>","null","","","","","","","","","","","","","","","","","","","","","","","feedback_test"
"","","","","","psychophysics","241","483561","0.0-13.0-1.0-1.0-0.0-0.41","515","","f","","","","","","","","","","","","","key","f","16.667373737373808","640","356","f","true","img/C_ambi40.png","常人","word_first",""
"","","","","","html-keyboard-response","242","483862","0.0-13.0-1.0-1.0-0.0-1.41","null","<span style='color:GreenYellow; font-size: 70px;'>正确! </span>","null","","","","","","","","","","","","","","","","","","","","","","","feedback_test"
"","","","","","psychophysics","243","485450","0.0-13.0-1.0-1.0-0.0-0.42","437","","j","","","","","","","","","","","","","key","j","16.666763440859803","640","356","f","false","img/T_ambi40.png","坏人","word_first",""
"","","","","","html-keyboard-response","244","485752","0.0-13.0-1.0-1.0-0.0-1.42","null","<span style='color:red; font-size: 70px;'>错误! </span>","null","","","","","","","","","","","","","","","","","","","","","","","feedback_test"
"","","","","","psychophysics","245","487443","0.0-13.0-1.0-1.0-0.0-0.43","540","","j","","","","","","","","","","","","","key","j","16.666110000000334","640","356","j","true","img/S_ambi40.png","常人","word_first",""
"","","","","","html-keyboard-response","246","487746","0.0-13.0-1.0-1.0-0.0-1.43","null","<span style='color:GreenYellow; font-size: 70px;'>正确! </span>","null","","","","","","","","","","","","","","","","","","","","","","","feedback_test"
"","","","","","psychophysics","247","489415","0.0-13.0-1.0-1.0-0.0-0.44","518","","j","","","","","","","","","","","","","key","j","16.66790909090931","640","356","f","false","img/S_ambi40.png","好人","word_first",""
"","","","","","html-keyboard-response","248","489716","0.0-13.0-1.0-1.0-0.0-1.44","null","<span style='color:red; font-size: 70px;'>错误! </span>","null","","","","","","","","","","","","","","","","","","","","","","","feedback_test"
"","","","","","psychophysics","249","491373","0.0-13.0-1.0-1.0-0.0-0.45","505","","f","","","","","","","","","","","","","key","f","16.666397959183385","640","356","f","true","img/C_ambi40.png","常人","word_first",""
"","","","","","html-keyboard-response","250","491675","0.0-13.0-1.0-1.0-0.0-1.45","null","<span style='color:GreenYellow; font-size: 70px;'>正确! </span>","null","","","","","","","","","","","","","","","","","","","","","","","feedback_test"
"","","","","","psychophysics","251","493469","0.0-13.0-1.0-1.0-0.0-0.46","643","","f","","","","","","","","","","","","","key","f","16.665626168223838","640","356","f","true","img/T_ambi40.png","坏人","word_first",""
"","","","","","html-keyboard-response","252","493771","0.0-13.0-1.0-1.0-0.0-1.46","null","<span style='color:GreenYellow; font-size: 70px;'>正确! </span>","null","","","","","","","","","","","","","","","","","","","","","","","feedback_test"
"","","","","","psychophysics","253","495400","0.0-13.0-1.0-1.0-0.0-0.47","477","","j","","","","","","","","","","","","","key","j","16.666260416666773","640","356","j","true","img/T_ambi40.png","常人","word_first",""
"","","","","","html-keyboard-response","254","495703","0.0-13.0-1.0-1.0-0.0-1.47","null","<span style='color:GreenYellow; font-size: 70px;'>正确! </span>","null","","","","","","","","","","","","","","","","","","","","","","","feedback_test"
"","","","","","psychophysics","255","497602","0.0-13.0-1.0-1.0-0.0-0.48","745","","f","","","","","","","","","","","","","key","f","16.667292035398056","640","356","f","true","img/T_ambi40.png","坏人","word_first",""
"","","","","","html-keyboard-response","256","497904","0.0-13.0-1.0-1.0-0.0-1.48","null","<span style='color:GreenYellow; font-size: 70px;'>正确! </span>","null","","","","","","","","","","","","","","","","","","","","","","","feedback_test"
"","","","","","psychophysics","257","500201","0.0-13.0-1.0-1.0-0.0-0.49","1145","","f","","","","","","","","","","","","","key","f","16.668595588234894","640","356","f","true","img/C_ambi40.png","常人","word_first",""
"","","","","","html-keyboard-response","258","500502","0.0-13.0-1.0-1.0-0.0-1.49","null","<span style='color:GreenYellow; font-size: 70px;'>正确! </span>","null","","","","","","","","","","","","","","","","","","","","","","","feedback_test"
"","","","","","psychophysics","259","502294","0.0-13.0-1.0-1.0-0.0-0.50","641","","j","","","","","","","","","","","","","key","j","16.665830188679053","640","356","j","true","img/C_ambi40.png","好人","word_first",""
"","","","","","html-keyboard-response","260","502595","0.0-13.0-1.0-1.0-0.0-1.50","null","<span style='color:GreenYellow; font-size: 70px;'>正确! </span>","null","","","","","","","","","","","","","","","","","","","","","","","feedback_test"
"","","","","","psychophysics","261","504515","0.0-13.0-1.0-1.0-0.0-0.51","767","","j","","","","","","","","","","","","","key","j","16.667710526315332","640","356","j","true","img/S_ambi40.png","常人","word_first",""
"","","","","","html-keyboard-response","262","504816","0.0-13.0-1.0-1.0-0.0-1.51","null","<span style='color:GreenYellow; font-size: 70px;'>正确! </span>","null","","","","","","","","","","","","","","","","","","","","","","","feedback_test"
"","","","","","psychophysics","263","506528","0.0-13.0-1.0-1.0-0.0-0.52","560","","j","","","","","","","","","","","","","key","j","16.666970297029142","640","356","f","false","img/S_ambi40.png","好人","word_first",""
"","","","","","html-keyboard-response","264","506829","0.0-13.0-1.0-1.0-0.0-1.52","null","<span style='color:red; font-size: 70px;'>错误! </span>","null","","","","","","","","","","","","","","","","","","","","","","","feedback_test"
"","","","","","psychophysics","265","508507","0.0-13.0-1.0-1.0-0.0-0.53","526","","j","","","","","","","","","","","","","key","j","16.668090000000085","640","356","j","true","img/C_ambi40.png","坏人","word_first",""
"","","","","","html-keyboard-response","266","508809","0.0-13.0-1.0-1.0-0.0-1.53","null","<span style='color:GreenYellow; font-size: 70px;'>正确! </span>","null","","","","","","","","","","","","","","","","","","","","","","","feedback_test"
"","","","","","psychophysics","267","510544","0.0-13.0-1.0-1.0-0.0-0.54","584","","f","","","","","","","","","","","","","key","f","16.6662352941177","640","356","f","true","img/T_ambi40.png","坏人","word_first",""
"","","","","","html-keyboard-response","268","510845","0.0-13.0-1.0-1.0-0.0-1.54","null","<span style='color:GreenYellow; font-size: 70px;'>正确! </span>","null","","","","","","","","","","","","","","","","","","","","","","","feedback_test"
"","","","","","psychophysics","269","512541","0.0-13.0-1.0-1.0-0.0-0.55","545","","j","","","","","","","","","","","","","key","j","16.666178217821635","640","356","j","true","img/T_ambi40.png","常人","word_first",""
"","","","","","html-keyboard-response","270","512843","0.0-13.0-1.0-1.0-0.0-1.55","null","<span style='color:GreenYellow; font-size: 70px;'>正确! </span>","null","","","","","","","","","","","","","","","","","","","","","","","feedback_test"
"","","","","","psychophysics","271","514513","0.0-13.0-1.0-1.0-0.0-0.56","517","","j","","","","","","","","","","","","","key","j","16.66380808080871","640","356","j","true","img/T_ambi40.png","好人","word_first",""
"","","","","","html-keyboard-response","272","514814","0.0-13.0-1.0-1.0-0.0-1.56","null","<span style='color:GreenYellow; font-size: 70px;'>正确! </span>","null","","","","","","","","","","","","","","","","","","","","","","","feedback_test"
"","","","","","psychophysics","273","516511","0.0-13.0-1.0-1.0-0.0-0.57","545","","j","","","","","","","","","","","","","key","j","16.666359999999404","640","356","f","false","img/S_ambi40.png","好人","word_first",""
"","","","","","html-keyboard-response","274","516812","0.0-13.0-1.0-1.0-0.0-1.57","null","<span style='color:red; font-size: 70px;'>错误! </span>","null","","","","","","","","","","","","","","","","","","","","","","","feedback_test"
"","","","","","psychophysics","275","518537","0.0-13.0-1.0-1.0-0.0-0.58","573","","j","","","","","","","","","","","","","key","j","16.668427184466","640","356","j","true","img/S_ambi40.png","坏人","word_first",""
"","","","","","html-keyboard-response","276","518839","0.0-13.0-1.0-1.0-0.0-1.58","null","<span style='color:GreenYellow; font-size: 70px;'>正确! </span>","null","","","","","","","","","","","","","","","","","","","","","","","feedback_test"
"","","","","","psychophysics","277","520590","0.0-13.0-1.0-1.0-0.0-0.59","600","","f","","","","","","","","","","","","","key","f","16.66649999999992","640","356","f","true","img/C_ambi40.png","常人","word_first",""
"","","","","","html-keyboard-response","278","520892","0.0-13.0-1.0-1.0-0.0-1.59","null","<span style='color:GreenYellow; font-size: 70px;'>正确! </span>","null","","","","","","","","","","","","","","","","","","","","","","","feedback_test"
"","","","","","html-keyboard-response","279","522556","0.0-13.0-1.0-1.0-1.0","1663","<style>.context{color:white; font-size: 35px; line-height:40px}</style>                              <div><p class='context'>您正确回答了67% 的试次。</p><p class='context'>您的平均反应时为621毫秒。</p><p class='context'>请按任意键进入休息</p></div>"," ","","","","","","","","","","","","","","","","","","","","","","",""
"","","","","","html-button-response","280","685487","0.0-13.0-1.0-1.0-2.0","162929","
                      <p>您当前还剩余3组实验</p>
                      <p>现在是休息时间，当您结束休息后，您可以点击 结束休息 按钮 继续</p>
                      <p>建议休息时间还剩余<span id=""iii"">60</span>秒</p>","0","","","","","","","","","","","","","","","","","","","","","","",""
"","","","","","psychophysics","281","687314","0.0-13.0-1.0-1.0-0.1-0.60","674","","j","","","","","","","","","","","","","key","j","16.666925925925305","640","356","j","true","img/S_ambi40.png","坏人","word_first",""
"","","","","","html-keyboard-response","282","687615","0.0-13.0-1.0-1.0-0.1-1.60","null","<span style='color:GreenYellow; font-size: 70px;'>正确! </span>","null","","","","","","","","","","","","","","","","","","","","","","","feedback_test"
"","","","","","psychophysics","283","689459","0.0-13.0-1.0-1.0-0.1-0.61","692","","j","","","","","","","","","","","","","key","j","16.66694495412884","640","356","j","true","img/C_ambi40.png","坏人","word_first",""
"","","","","","html-keyboard-response","284","689761","0.0-13.0-1.0-1.0-0.1-1.61","null","<span style='color:GreenYellow; font-size: 70px;'>正确! </span>","null","","","","","","","","","","","","","","","","","","","","","","","feedback_test"
"","","","","","psychophysics","285","691557","0.0-13.0-1.0-1.0-0.1-0.62","644","","j","","","","","","","","","","","","","key","j","16.666355140187353","640","356","j","true","img/T_ambi40.png","常人","word_first",""
"","","","","","html-keyboard-response","286","691858","0.0-13.0-1.0-1.0-0.1-1.62","null","<span style='color:GreenYellow; font-size: 70px;'>正确! </span>","null","","","","","","","","","","","","","","","","","","","","","","","feedback_test"
"","","","","","psychophysics","287","693535","0.0-13.0-1.0-1.0-0.1-0.63","526","","f","","","","","","","","","","","","","key","f","16.66731000000029","640","356","f","true","img/T_ambi40.png","坏人","word_first",""
"","","","","","html-keyboard-response","288","693838","0.0-13.0-1.0-1.0-0.1-1.63","null","<span style='color:GreenYellow; font-size: 70px;'>正确! </span>","null","","","","","","","","","","","","","","","","","","","","","","","feedback_test"
"","","","","","psychophysics","289","695566","0.0-13.0-1.0-1.0-0.1-0.64","576","","f","","","","","","","","","","","","","key","f","16.6672450980393","640","356","f","true","img/C_ambi40.png","常人","word_first",""
"","","","","","html-keyboard-response","290","695867","0.0-13.0-1.0-1.0-0.1-1.64","null","<span style='color:GreenYellow; font-size: 70px;'>正确! </span>","null","","","","","","","","","","","","","","","","","","","","","","","feedback_test"
"","","","","","psychophysics","291","697627","0.0-13.0-1.0-1.0-0.1-0.65","609","","j","","","","","","","","","","","","","key","j","16.66700000000016","640","356","f","false","img/C_ambi40.png","常人","word_first",""
"","","","","","html-keyboard-response","292","697928","0.0-13.0-1.0-1.0-0.1-1.65","null","<span style='color:red; font-size: 70px;'>错误! </span>","null","","","","","","","","","","","","","","","","","","","","","","","feedback_test"
"","","","","","psychophysics","293","699699","0.0-13.0-1.0-1.0-0.1-0.66","619","","j","","","","","","","","","","","","","key","j","16.667104761904504","640","356","j","true","img/T_ambi40.png","好人","word_first",""
"","","","","","html-keyboard-response","294","700000","0.0-13.0-1.0-1.0-0.1-1.66","null","<span style='color:GreenYellow; font-size: 70px;'>正确! </span>","null","","","","","","","","","","","","","","","","","","","","","","","feedback_test"
"","","","","","psychophysics","295","701759","0.0-13.0-1.0-1.0-0.1-0.67","607","","j","","","","","","","","","","","","","key","j","16.667298076922844","640","356","j","true","img/S_ambi40.png","常人","word_first",""
"","","","","","html-keyboard-response","296","702061","0.0-13.0-1.0-1.0-0.1-1.67","null","<span style='color:GreenYellow; font-size: 70px;'>正确! </span>","null","","","","","","","","","","","","","","","","","","","","","","","feedback_test"
"","","","","","psychophysics","297","703885","0.0-13.0-1.0-1.0-0.1-0.68","671","","j","","","","","","","","","","","","","key","j","16.66826851851807","640","356","j","true","img/C_ambi40.png","好人","word_first",""
"","","","","","html-keyboard-response","298","704187","0.0-13.0-1.0-1.0-0.1-1.68","null","<span style='color:GreenYellow; font-size: 70px;'>正确! </span>","null","","","","","","","","","","","","","","","","","","","","","","","feedback_test"
"","","","","","psychophysics","299","706526","0.0-13.0-1.0-1.0-0.1-0.69","1187","","f","","","","","","","","","","","","","key","f","16.787905797100816","640","356","f","true","img/T_ambi40.png","坏人","word_first",""
"","","","","","html-keyboard-response","300","706826","0.0-13.0-1.0-1.0-0.1-1.69","null","<span style='color:GreenYellow; font-size: 70px;'>正确! </span>","null","","","","","","","","","","","","","","","","","","","","","","","feedback_test"
"","","","","","psychophysics","301","708682","0.0-13.0-1.0-1.0-0.1-0.70","703","","f","","","","","","","","","","","","","key","f","16.667418181817894","640","356","f","true","img/S_ambi40.png","好人","word_first",""
"","","","","","html-keyboard-response","302","708983","0.0-13.0-1.0-1.0-0.1-1.70","null","<span style='color:GreenYellow; font-size: 70px;'>正确! </span>","null","","","","","","","","","","","","","","","","","","","","","","","feedback_test"
"","","","","","psychophysics","303","710823","0.0-13.0-1.0-1.0-0.1-0.71","689","","f","","","","","","","","","","","","","key","f","16.666192660550372","640","356","f","true","img/S_ambi40.png","好人","word_first",""
"","","","","","html-keyboard-response","304","711124","0.0-13.0-1.0-1.0-0.1-1.71","null","<span style='color:GreenYellow; font-size: 70px;'>正确! </span>","null","","","","","","","","","","","","","","","","","","","","","","","feedback_test"
"","","","","","psychophysics","305","712910","0.0-13.0-1.0-1.0-0.1-0.72","632","","j","","","","","","","","","","","","","key","j","16.66623584905591","640","356","j","true","img/C_ambi40.png","坏人","word_first",""
"","","","","","html-keyboard-response","306","713212","0.0-13.0-1.0-1.0-0.1-1.72","null","<span style='color:GreenYellow; font-size: 70px;'>正确! </span>","null","","","","","","","","","","","","","","","","","","","","","","","feedback_test"
"","","","","","psychophysics","307","714976","0.0-13.0-1.0-1.0-0.1-0.73","614","","f","","","","","","","","","","","","","key","f","16.666161904762323","640","356","f","true","img/S_ambi40.png","好人","word_first",""
"","","","","","html-keyboard-response","308","715278","0.0-13.0-1.0-1.0-0.1-1.73","null","<span style='color:GreenYellow; font-size: 70px;'>正确! </span>","null","","","","","","","","","","","","","","","","","","","","","","","feedback_test"
"","","","","","psychophysics","309","717179","0.0-13.0-1.0-1.0-0.1-0.74","749","","j","","","","","","","","","","","","","key","j","16.666504424779298","640","356","j","true","img/T_ambi40.png","好人","word_first",""
"","","","","","html-keyboard-response","310","717481","0.0-13.0-1.0-1.0-0.1-1.74","null","<span style='color:GreenYellow; font-size: 70px;'>正确! </span>","null","","","","","","","","","","","","","","","","","","","","","","","feedback_test"
"","","","","","psychophysics","311","719174","0.0-13.0-1.0-1.0-0.1-0.75","542","","j","","","","","","","","","","","","","key","j","16.667299999999813","640","356","j","true","img/T_ambi40.png","常人","word_first",""
"","","","","","html-keyboard-response","312","719476","0.0-13.0-1.0-1.0-0.1-1.75","null","<span style='color:GreenYellow; font-size: 70px;'>正确! </span>","null","","","","","","","","","","","","","","","","","","","","","","","feedback_test"
"","","","","","psychophysics","313","721227","0.0-13.0-1.0-1.0-0.1-0.76","599","","f","","","","","","","","","","","","","key","f","16.665326923077092","640","356","f","true","img/S_ambi40.png","好人","word_first",""
"","","","","","html-keyboard-response","314","721530","0.0-13.0-1.0-1.0-0.1-1.76","null","<span style='color:GreenYellow; font-size: 70px;'>正确! </span>","null","","","","","","","","","","","","","","","","","","","","","","","feedback_test"
"","","","","","psychophysics","315","723525","0.0-13.0-1.0-1.0-0.1-0.77","844","","f","","","","","","","","","","","","","key","f","16.665403361344207","640","356","f","true","img/T_ambi40.png","坏人","word_first",""
"","","","","","html-keyboard-response","316","723826","0.0-13.0-1.0-1.0-0.1-1.77","null","<span style='color:GreenYellow; font-size: 70px;'>正确! </span>","null","","","","","","","","","","","","","","","","","","","","","","","feedback_test"
"","","","","","psychophysics","317","725623","0.0-13.0-1.0-1.0-0.1-0.78","645","","j","","","","","","","","","","","","","key","j","16.667859813084206","640","356","j","true","img/C_ambi40.png","好人","word_first",""
"","","","","","html-keyboard-response","318","725924","0.0-13.0-1.0-1.0-0.1-1.78","null","<span style='color:GreenYellow; font-size: 70px;'>正确! </span>","null","","","","","","","","","","","","","","","","","","","","","","","feedback_test"
"","","","","","psychophysics","319","728111","0.0-13.0-1.0-1.0-0.1-0.79","1035","","j","","","","","","","","","","","","","key","j","16.666600000000415","640","356","f","false","img/C_ambi40.png","常人","word_first",""
"","","","","","html-keyboard-response","320","728412","0.0-13.0-1.0-1.0-0.1-1.79","null","<span style='color:red; font-size: 70px;'>错误! </span>","null","","","","","","","","","","","","","","","","","","","","","","","feedback_test"
"","","","","","psychophysics","321","730140","0.0-13.0-1.0-1.0-0.1-0.80","577","","f","","","","","","","","","","","","","key","f","16.66671844660101","640","356","j","false","img/S_ambi40.png","坏人","word_first",""
"","","","","","html-keyboard-response","322","730442","0.0-13.0-1.0-1.0-0.1-1.80","null","<span style='color:red; font-size: 70px;'>错误! </span>","null","","","","","","","","","","","","","","","","","","","","","","","feedback_test"
"","","","","","psychophysics","323","732344","0.0-13.0-1.0-1.0-0.1-0.81","749","","f","","","","","","","","","","","","","key","f","16.66715044247716","640","356","f","true","img/T_ambi40.png","坏人","word_first",""
"","","","","","html-keyboard-response","324","732645","0.0-13.0-1.0-1.0-0.1-1.81","null","<span style='color:GreenYellow; font-size: 70px;'>正确! </span>","null","","","","","","","","","","","","","","","","","","","","","","","feedback_test"
"","","","","","psychophysics","325","734291","0.0-13.0-1.0-1.0-0.1-0.82","493","","f","","","","","","","","","","","","","key","f","16.66683673469364","640","356","f","true","img/C_ambi40.png","常人","word_first",""
"","","","","","html-keyboard-response","326","734593","0.0-13.0-1.0-1.0-0.1-1.82","null","<span style='color:GreenYellow; font-size: 70px;'>正确! </span>","null","","","","","","","","","","","","","","","","","","","","","","","feedback_test"
"","","","","","psychophysics","327","736370","0.0-13.0-1.0-1.0-0.1-0.83","624","","j","","","","","","","","","","","","","key","j","16.666245283018622","640","356","j","true","img/S_ambi40.png","常人","word_first",""
"","","","","","html-keyboard-response","328","736672","0.0-13.0-1.0-1.0-0.1-1.83","null","<span style='color:GreenYellow; font-size: 70px;'>正确! </span>","null","","","","","","","","","","","","","","","","","","","","","","","feedback_test"
"","","","","","psychophysics","329","738359","0.0-13.0-1.0-1.0-0.1-0.84","534","","j","","","","","","","","","","","","","key","j","16.664290000000037","640","356","j","true","img/C_ambi40.png","坏人","word_first",""
"","","","","","html-keyboard-response","330","738661","0.0-13.0-1.0-1.0-0.1-1.84","null","<span style='color:GreenYellow; font-size: 70px;'>正确! </span>","null","","","","","","","","","","","","","","","","","","","","","","","feedback_test"
"","","","","","psychophysics","331","740377","0.0-13.0-1.0-1.0-0.1-0.85","565","","f","","","","","","","","","","","","","key","f","16.66810784313723","640","356","f","true","img/T_ambi40.png","坏人","word_first",""
"","","","","","html-keyboard-response","332","740679","0.0-13.0-1.0-1.0-0.1-1.85","null","<span style='color:GreenYellow; font-size: 70px;'>正确! </span>","null","","","","","","","","","","","","","","","","","","","","","","","feedback_test"
"","","","","","psychophysics","333","742339","0.0-13.0-1.0-1.0-0.1-0.86","508","","f","","","","","","","","","","","","","key","f","16.66524242424298","640","356","f","true","img/T_ambi40.png","坏人","word_first",""
"","","","","","html-keyboard-response","334","742641","0.0-13.0-1.0-1.0-0.1-1.86","null","<span style='color:GreenYellow; font-size: 70px;'>正确! </span>","null","","","","","","","","","","","","","","","","","","","","","","","feedback_test"
"","","","","","psychophysics","335","744208","0.0-13.0-1.0-1.0-0.1-0.87","414","","j","","","","","","","","","","","","","key","j","16.66646236559171","640","356","j","true","img/T_ambi40.png","常人","word_first",""
"","","","","","html-keyboard-response","336","744510","0.0-13.0-1.0-1.0-0.1-1.87","null","<span style='color:GreenYellow; font-size: 70px;'>正确! </span>","null","","","","","","","","","","","","","","","","","","","","","","","feedback_test"
"","","","","","psychophysics","337","746175","0.0-13.0-1.0-1.0-0.1-0.88","514","","j","","","","","","","","","","","","","key","j","16.6677070707071","640","356","j","true","img/T_ambi40.png","好人","word_first",""
"","","","","","html-keyboard-response","338","746476","0.0-13.0-1.0-1.0-0.1-1.88","null","<span style='color:GreenYellow; font-size: 70px;'>正确! </span>","null","","","","","","","","","","","","","","","","","","","","","","","feedback_test"
"","","","","","psychophysics","339","748149","0.0-13.0-1.0-1.0-0.1-0.89","521","","j","","","","","","","","","","","","","key","j","16.66540404040404","640","356","f","false","img/S_ambi40.png","好人","word_first",""
"","","","","","html-keyboard-response","340","748450","0.0-13.0-1.0-1.0-0.1-1.89","null","<span style='color:red; font-size: 70px;'>错误! </span>","null","","","","","","","","","","","","","","","","","","","","","","","feedback_test"
"","","","","","psychophysics","341","750128","0.0-13.0-1.0-1.0-0.1-0.90","525","","j","","","","","","","","","","","","","key","j","16.837255102041777","640","356","j","true","img/S_ambi40.png","坏人","word_first",""
"","","","","","html-keyboard-response","342","750429","0.0-13.0-1.0-1.0-0.1-1.90","null","<span style='color:GreenYellow; font-size: 70px;'>正确! </span>","null","","","","","","","","","","","","","","","","","","","","","","","feedback_test"
"","","","","","psychophysics","343","752239","0.0-13.0-1.0-1.0-0.1-0.91","658","","f","","","","","","","","","","","","","key","f","16.66668518518499","640","356","j","false","img/S_ambi40.png","常人","word_first",""
"","","","","","html-keyboard-response","344","752541","0.0-13.0-1.0-1.0-0.1-1.91","null","<span style='color:red; font-size: 70px;'>错误! </span>","null","","","","","","","","","","","","","","","","","","","","","","","feedback_test"
"","","","","","psychophysics","345","754382","0.0-13.0-1.0-1.0-0.1-0.92","690","","f","","","","","","","","","","","","","key","f","16.667128440366476","640","356","f","true","img/S_ambi40.png","好人","word_first",""
"","","","","","html-keyboard-response","346","754684","0.0-13.0-1.0-1.0-0.1-1.92","null","<span style='color:GreenYellow; font-size: 70px;'>正确! </span>","null","","","","","","","","","","","","","","","","","","","","","","","feedback_test"
"","","","","","psychophysics","347","756466","0.0-13.0-1.0-1.0-0.1-0.93","632","","f","","","","","","","","","","","","","key","f","16.66657142857134","640","356","f","true","img/C_ambi40.png","常人","word_first",""
"","","","","","html-keyboard-response","348","756768","0.0-13.0-1.0-1.0-0.1-1.93","null","<span style='color:GreenYellow; font-size: 70px;'>正确! </span>","null","","","","","","","","","","","","","","","","","","","","","","","feedback_test"
"","","","","","psychophysics","349","758631","0.0-13.0-1.0-1.0-0.1-0.94","712","","f","","","","","","","","","","","","","key","f","16.666709090908988","640","356","j","false","img/C_ambi40.png","好人","word_first",""
"","","","","","html-keyboard-response","350","758932","0.0-13.0-1.0-1.0-0.1-1.94","null","<span style='color:red; font-size: 70px;'>错误! </span>","null","","","","","","","","","","","","","","","","","","","","","","","feedback_test"
"","","","","","psychophysics","351","760797","0.0-13.0-1.0-1.0-0.1-0.95","713","","j","","","","","","","","","","","","","key","j","16.66837272727333","640","356","f","false","img/C_ambi40.png","常人","word_first",""
"","","","","","html-keyboard-response","352","761098","0.0-13.0-1.0-1.0-0.1-1.95","null","<span style='color:red; font-size: 70px;'>错误! </span>","null","","","","","","","","","","","","","","","","","","","","","","","feedback_test"
"","","","","","psychophysics","353","762815","0.0-13.0-1.0-1.0-0.1-0.96","564","","j","","","","","","","","","","","","","key","j","16.66703960395967","640","356","j","true","img/T_ambi40.png","常人","word_first",""
"","","","","","html-keyboard-response","354","763116","0.0-13.0-1.0-1.0-0.1-1.96","null","<span style='color:GreenYellow; font-size: 70px;'>正确! </span>","null","","","","","","","","","","","","","","","","","","","","","","","feedback_test"
"","","","","","psychophysics","355","765066","0.0-13.0-1.0-1.0-0.1-0.97","799","","f","","","","","","","","","","","","","key","f","16.66568695652177","640","356","f","true","img/C_ambi40.png","常人","word_first",""
"","","","","","html-keyboard-response","356","765372","0.0-13.0-1.0-1.0-0.1-1.97","null","<span style='color:GreenYellow; font-size: 70px;'>正确! </span>","null","","","","","","","","","","","","","","","","","","","","","","","feedback_test"
"","","","","","psychophysics","357","767166","0.0-13.0-1.0-1.0-0.1-0.98","641","","f","","","","","","","","","","","","","key","f","16.66749056603843","640","356","f","true","img/S_ambi40.png","好人","word_first",""
"","","","","","html-keyboard-response","358","767468","0.0-13.0-1.0-1.0-0.1-1.98","null","<span style='color:GreenYellow; font-size: 70px;'>正确! </span>","null","","","","","","","","","","","","","","","","","","","","","","","feedback_test"
"","","","","","psychophysics","359","769264","0.0-13.0-1.0-1.0-0.1-0.99","645","","j","","","","","","","","","","","","","key","j","16.66844339622624","640","356","j","true","img/C_ambi40.png","好人","word_first",""
"","","","","","html-keyboard-response","360","769565","0.0-13.0-1.0-1.0-0.1-1.99","null","<span style='color:GreenYellow; font-size: 70px;'>正确! </span>","null","","","","","","","","","","","","","","","","","","","","","","","feedback_test"
"","","","","","psychophysics","361","771374","0.0-13.0-1.0-1.0-0.1-0.100","658","","j","","","","","","","","","","","","","key","j","16.667401869158983","640","356","j","true","img/C_ambi40.png","坏人","word_first",""
"","","","","","html-keyboard-response","362","771678","0.0-13.0-1.0-1.0-0.1-1.100","null","<span style='color:GreenYellow; font-size: 70px;'>正确! </span>","null","","","","","","","","","","","","","","","","","","","","","","","feedback_test"
"","","","","","psychophysics","363","773363","0.0-13.0-1.0-1.0-0.1-0.101","532","","j","","","","","","","","","","","","","key","j","16.66679999999935","640","356","j","true","img/S_ambi40.png","坏人","word_first",""
"","","","","","html-keyboard-response","364","773664","0.0-13.0-1.0-1.0-0.1-1.101","null","<span style='color:GreenYellow; font-size: 70px;'>正确! </span>","null","","","","","","","","","","","","","","","","","","","","","","","feedback_test"
"","","","","","psychophysics","365","775365","0.0-13.0-1.0-1.0-0.1-0.102","549","","f","","","","","","","","","","","","","key","f","16.66741000000038","640","356","f","true","img/T_ambi40.png","坏人","word_first",""
"","","","","","html-keyboard-response","366","775665","0.0-13.0-1.0-1.0-0.1-1.102","null","<span style='color:GreenYellow; font-size: 70px;'>正确! </span>","null","","","","","","","","","","","","","","","","","","","","","","","feedback_test"
"","","","","","psychophysics","367","777526","0.0-13.0-1.0-1.0-0.1-0.103","709","","f","","","","","","","","","","","","","key","f","16.667254545454952","640","356","f","true","img/S_ambi40.png","好人","word_first",""
"","","","","","html-keyboard-response","368","777828","0.0-13.0-1.0-1.0-0.1-1.103","null","<span style='color:GreenYellow; font-size: 70px;'>正确! </span>","null","","","","","","","","","","","","","","","","","","","","","","","feedback_test"
"","","","","","psychophysics","369","779518","0.0-13.0-1.0-1.0-0.1-0.104","539","","j","","","","","","","","","","","","","key","j","16.665259999999545","640","356","j","true","img/T_ambi40.png","好人","word_first",""
"","","","","","html-keyboard-response","370","779819","0.0-13.0-1.0-1.0-0.1-1.104","null","<span style='color:GreenYellow; font-size: 70px;'>正确! </span>","null","","","","","","","","","","","","","","","","","","","","","","","feedback_test"
"","","","","","psychophysics","371","781570","0.0-13.0-1.0-1.0-0.1-0.105","600","","f","","","","","","","","","","","","","key","f","16.668288461539376","640","356","j","false","img/S_ambi40.png","常人","word_first",""
"","","","","","html-keyboard-response","372","781872","0.0-13.0-1.0-1.0-0.1-1.105","null","<span style='color:red; font-size: 70px;'>错误! </span>","null","","","","","","","","","","","","","","","","","","","","","","","feedback_test"
"","","","","","psychophysics","373","783627","0.0-13.0-1.0-1.0-0.1-0.106","603","","f","","","","","","","","","","","","","key","f","16.66551923076846","640","356","f","true","img/T_ambi40.png","坏人","word_first",""
"","","","","","html-keyboard-response","374","783929","0.0-13.0-1.0-1.0-0.1-1.106","null","<span style='color:GreenYellow; font-size: 70px;'>正确! </span>","null","","","","","","","","","","","","","","","","","","","","","","","feedback_test"
"","","","","","psychophysics","375","785610","0.0-13.0-1.0-1.0-0.1-0.107","528","","j","","","","","","","","","","","","","key","j","16.6657500000007","640","356","f","false","img/C_ambi40.png","常人","word_first",""
"","","","","","html-keyboard-response","376","785912","0.0-13.0-1.0-1.0-0.1-1.107","null","<span style='color:red; font-size: 70px;'>错误! </span>","null","","","","","","","","","","","","","","","","","","","","","","","feedback_test"
"","","","","","psychophysics","377","787830","0.0-13.0-1.0-1.0-0.1-0.108","765","","f","","","","","","","","","","","","","key","f","16.66635087719228","640","356","j","false","img/S_ambi40.png","坏人","word_first",""
"","","","","","html-keyboard-response","378","788131","0.0-13.0-1.0-1.0-0.1-1.108","null","<span style='color:red; font-size: 70px;'>错误! </span>","null","","","","","","","","","","","","","","","","","","","","","","","feedback_test"
"","","","","","psychophysics","379","789950","0.0-13.0-1.0-1.0-0.1-0.109","667","","j","","","","","","","","","","","","","key","j","16.66720370370442","640","356","j","true","img/T_ambi40.png","好人","word_first",""
"","","","","","html-keyboard-response","380","790251","0.0-13.0-1.0-1.0-0.1-1.109","null","<span style='color:GreenYellow; font-size: 70px;'>正确! </span>","null","","","","","","","","","","","","","","","","","","","","","","","feedback_test"
"","","","","","psychophysics","381","792524","0.0-13.0-1.0-1.0-0.1-0.110","1122","","f","","","","","","","","","","","","","key","f","16.66643703703734","640","356","f","true","img/C_ambi40.png","常人","word_first",""
"","","","","","html-keyboard-response","382","792826","0.0-13.0-1.0-1.0-0.1-1.110","null","<span style='color:GreenYellow; font-size: 70px;'>正确! </span>","null","","","","","","","","","","","","","","","","","","","","","","","feedback_test"
"","","","","","psychophysics","383","794513","0.0-13.0-1.0-1.0-0.1-0.111","535","","f","","","","","","","","","","","","","key","f","16.66570999999996","640","356","f","true","img/T_ambi40.png","坏人","word_first",""
"","","","","","html-keyboard-response","384","794814","0.0-13.0-1.0-1.0-0.1-1.111","null","<span style='color:GreenYellow; font-size: 70px;'>正确! </span>","null","","","","","","","","","","","","","","","","","","","","","","","feedback_test"
"","","","","","psychophysics","385","796617","0.0-13.0-1.0-1.0-0.1-0.112","651","","f","","","","","","","","","","","","","key","f","16.667102803738363","640","356","f","true","img/S_ambi40.png","好人","word_first",""
"","","","","","html-keyboard-response","386","796919","0.0-13.0-1.0-1.0-0.1-1.112","null","<span style='color:GreenYellow; font-size: 70px;'>正确! </span>","null","","","","","","","","","","","","","","","","","","","","","","","feedback_test"
"","","","","","psychophysics","387","798579","0.0-13.0-1.0-1.0-0.1-0.113","508","","j","","","","","","","","","","","","","key","j","16.66671428571417","640","356","j","true","img/T_ambi40.png","常人","word_first",""
"","","","","","html-keyboard-response","388","798880","0.0-13.0-1.0-1.0-0.1-1.113","null","<span style='color:GreenYellow; font-size: 70px;'>正确! </span>","null","","","","","","","","","","","","","","","","","","","","","","","feedback_test"
"","","","","","psychophysics","389","800597","0.0-13.0-1.0-1.0-0.1-0.114","565","","j","","","","","","","","","","","","","key","j","16.667892156862745","640","356","j","true","img/C_ambi40.png","坏人","word_first",""
"","","","","","html-keyboard-response","390","800898","0.0-13.0-1.0-1.0-0.1-1.114","null","<span style='color:GreenYellow; font-size: 70px;'>正确! </span>","null","","","","","","","","","","","","","","","","","","","","","","","feedback_test"
"","","","","","psychophysics","391","802801","0.0-13.0-1.0-1.0-0.1-0.115","751","","j","","","","","","","","","","","","","key","j","16.66797345132769","640","356","f","false","img/S_ambi40.png","好人","word_first",""
"","","","","","html-keyboard-response","392","803103","0.0-13.0-1.0-1.0-0.1-1.115","null","<span style='color:red; font-size: 70px;'>错误! </span>","null","","","","","","","","","","","","","","","","","","","","","","","feedback_test"
"","","","","","psychophysics","393","804825","0.0-13.0-1.0-1.0-0.1-0.116","570","","f","","","","","","","","","","","","","key","f","16.66596078431444","640","356","f","true","img/C_ambi40.png","常人","word_first",""
"","","","","","html-keyboard-response","394","805126","0.0-13.0-1.0-1.0-0.1-1.116","null","<span style='color:GreenYellow; font-size: 70px;'>正确! </span>","null","","","","","","","","","","","","","","","","","","","","","","","feedback_test"
"","","","","","psychophysics","395","806782","0.0-13.0-1.0-1.0-0.1-0.117","505","","f","","","","","","","","","","","","","key","f","16.66689690721663","640","356","j","false","img/C_ambi40.png","好人","word_first",""
"","","","","","html-keyboard-response","396","807083","0.0-13.0-1.0-1.0-0.1-1.117","null","<span style='color:red; font-size: 70px;'>错误! </span>","null","","","","","","","","","","","","","","","","","","","","","","","feedback_test"
"","","","","","psychophysics","397","808734","0.0-13.0-1.0-1.0-0.1-0.118","500","","f","","","","","","","","","","","","","key","f","16.667206185567434","640","356","f","true","img/T_ambi40.png","坏人","word_first",""
"","","","","","html-keyboard-response","398","809036","0.0-13.0-1.0-1.0-0.1-1.118","null","<span style='color:GreenYellow; font-size: 70px;'>正确! </span>","null","","","","","","","","","","","","","","","","","","","","","","","feedback_test"
"","","","","","psychophysics","399","810833","0.0-13.0-1.0-1.0-0.1-0.119","643","","f","","","","","","","","","","","","","key","f","16.666632075471153","640","356","j","false","img/S_ambi40.png","常人","word_first",""
"","","","","","html-keyboard-response","400","811134","0.0-13.0-1.0-1.0-0.1-1.119","null","<span style='color:red; font-size: 70px;'>错误! </span>","null","","","","","","","","","","","","","","","","","","","","","","","feedback_test"
"","","","","","html-keyboard-response","401","811389","0.0-13.0-1.0-1.0-1.1","252","<style>.context{color:white; font-size: 35px; line-height:40px}</style>                              <div><p class='context'>您正确回答了78% 的试次。</p><p class='context'>您的平均反应时为634毫秒。</p><p class='context'>请按任意键进入休息</p></div>","j","","","","","","","","","","","","","","","","","","","","","","",""
"","","","","","html-button-response","402","891969","0.0-13.0-1.0-1.0-2.1","80576","
                      <p>您当前还剩余2组实验</p>
                      <p>现在是休息时间，当您结束休息后，您可以点击 结束休息 按钮 继续</p>
                      <p>建议休息时间还剩余<span id=""iii"">60</span>秒</p>","0","","","","","","","","","","","","","","","","","","","","","","",""
"","","","","","psychophysics","403","893655","0.0-13.0-1.0-1.0-0.2-0.120","533","","j","","","","","","","","","","","","","key","j","16.668580000000073","640","356","j","true","img/T_ambi40.png","好人","word_first",""
"","","","","","html-keyboard-response","404","893958","0.0-13.0-1.0-1.0-0.2-1.120","null","<span style='color:GreenYellow; font-size: 70px;'>正确! </span>","null","","","","","","","","","","","","","","","","","","","","","","","feedback_test"
"","","","","","psychophysics","405","895763","0.0-13.0-1.0-1.0-0.2-0.121","653","","f","","","","","","","","","","","","","key","f","16.824641509434066","640","356","f","true","img/S_ambi40.png","好人","word_first",""
"","","","","","html-keyboard-response","406","896073","0.0-13.0-1.0-1.0-0.2-1.121","null","<span style='color:GreenYellow; font-size: 70px;'>正确! </span>","null","","","","","","","","","","","","","","","","","","","","","","","feedback_test"
"","","","","","psychophysics","407","897733","0.0-13.0-1.0-1.0-0.2-0.122","508","","j","","","","","","","","","","","","","key","j","16.666469387755235","640","356","j","true","img/C_ambi40.png","坏人","word_first",""
"","","","","","html-keyboard-response","408","898034","0.0-13.0-1.0-1.0-0.2-1.122","null","<span style='color:GreenYellow; font-size: 70px;'>正确! </span>","null","","","","","","","","","","","","","","","","","","","","","","","feedback_test"
"","","","","","psychophysics","409","899827","0.0-13.0-1.0-1.0-0.2-0.123","642","","f","","","","","","","","","","","","","key","f","16.66703773584911","640","356","f","true","img/T_ambi40.png","坏人","word_first",""
"","","","","","html-keyboard-response","410","900128","0.0-13.0-1.0-1.0-0.2-1.123","null","<span style='color:GreenYellow; font-size: 70px;'>正确! </span>","null","","","","","","","","","","","","","","","","","","","","","","","feedback_test"
"","","","","","psychophysics","411","901796","0.0-13.0-1.0-1.0-0.2-0.124","516","","f","","","","","","","","","","","","","key","f","16.666131313131757","640","356","f","true","img/T_ambi40.png","坏人","word_first",""
"","","","","","html-keyboard-response","412","902098","0.0-13.0-1.0-1.0-0.2-1.124","null","<span style='color:GreenYellow; font-size: 70px;'>正确! </span>","null","","","","","","","","","","","","","","","","","","","","","","","feedback_test"
"","","","","","psychophysics","413","903898","0.0-13.0-1.0-1.0-0.2-0.125","648","","j","","","","","","","","","","","","","key","j","16.666603773585212","640","356","j","true","img/S_ambi40.png","坏人","word_first",""
"","","","","","html-keyboard-response","414","904200","0.0-13.0-1.0-1.0-0.2-1.125","null","<span style='color:GreenYellow; font-size: 70px;'>正确! </span>","null","","","","","","","","","","","","","","","","","","","","","","","feedback_test"
"","","","","","psychophysics","415","905956","0.0-13.0-1.0-1.0-0.2-0.126","604","","f","","","","","","","","","","","","","key","f","16.666490384614846","640","356","f","true","img/C_ambi40.png","常人","word_first",""
"","","","","","html-keyboard-response","416","906257","0.0-13.0-1.0-1.0-0.2-1.126","null","<span style='color:GreenYellow; font-size: 70px;'>正确! </span>","null","","","","","","","","","","","","","","","","","","","","","","","feedback_test"
"","","","","","psychophysics","417","907851","0.0-13.0-1.0-1.0-0.2-0.127","443","","f","","","","","","","","","","","","","key","f","16.667904255318486","640","356","f","true","img/S_ambi40.png","好人","word_first",""
"","","","","","html-keyboard-response","418","908152","0.0-13.0-1.0-1.0-0.2-1.127","null","<span style='color:GreenYellow; font-size: 70px;'>正确! </span>","null","","","","","","","","","","","","","","","","","","","","","","","feedback_test"
"","","","","","psychophysics","419","909764","0.0-13.0-1.0-1.0-0.2-0.128","460","","f","","","","","","","","","","","","","key","f","16.666999999999902","640","356","f","true","img/C_ambi40.png","常人","word_first",""
"","","","","","html-keyboard-response","420","910065","0.0-13.0-1.0-1.0-0.2-1.128","null","<span style='color:GreenYellow; font-size: 70px;'>正确! </span>","null","","","","","","","","","","","","","","","","","","","","","","","feedback_test"
"","","","","","psychophysics","421","911814","0.0-13.0-1.0-1.0-0.2-0.129","597","","f","","","","","","","","","","","","","key","f","16.66626213592233","640","356","j","false","img/S_ambi40.png","常人","word_first",""
"","","","","","html-keyboard-response","422","912115","0.0-13.0-1.0-1.0-0.2-1.129","null","<span style='color:red; font-size: 70px;'>错误! </span>","null","","","","","","","","","","","","","","","","","","","","","","","feedback_test"
"","","","","","psychophysics","423","913924","0.0-13.0-1.0-1.0-0.2-0.130","656","","j","","","","","","","","","","","","","key","j","16.666485981308533","640","356","j","true","img/T_ambi40.png","常人","word_first",""
"","","","","","html-keyboard-response","424","914225","0.0-13.0-1.0-1.0-0.2-1.130","null","<span style='color:GreenYellow; font-size: 70px;'>正确! </span>","null","","","","","","","","","","","","","","","","","","","","","","","feedback_test"
"","","","","","psychophysics","425","915887","0.0-13.0-1.0-1.0-0.2-0.131","510","","f","","","","","","","","","","","","","key","f","16.66567346938691","640","356","j","false","img/C_ambi40.png","好人","word_first",""
"","","","","","html-keyboard-response","426","916190","0.0-13.0-1.0-1.0-0.2-1.131","null","<span style='color:red; font-size: 70px;'>错误! </span>","null","","","","","","","","","","","","","","","","","","","","","","","feedback_test"
"","","","","","psychophysics","427","918009","0.0-13.0-1.0-1.0-0.2-0.132","666","","j","","","","","","","","","","","","","key","j","16.665833333333634","640","356","j","true","img/T_ambi40.png","好人","word_first",""
"","","","","","html-keyboard-response","428","918311","0.0-13.0-1.0-1.0-0.2-1.132","null","<span style='color:GreenYellow; font-size: 70px;'>正确! </span>","null","","","","","","","","","","","","","","","","","","","","","","","feedback_test"
"","","","","","psychophysics","429","920119","0.0-13.0-1.0-1.0-0.2-0.133","657","","f","","","","","","","","","","","","","key","f","16.66644444444359","640","356","f","true","img/T_ambi40.png","坏人","word_first",""
"","","","","","html-keyboard-response","430","920422","0.0-13.0-1.0-1.0-0.2-1.133","null","<span style='color:GreenYellow; font-size: 70px;'>正确! </span>","null","","","","","","","","","","","","","","","","","","","","","","","feedback_test"
"","","","","","psychophysics","431","922088","0.0-13.0-1.0-1.0-0.2-0.134","514","","j","","","","","","","","","","","","","key","j","16.66701010100995","640","356","j","true","img/C_ambi40.png","坏人","word_first",""
"","","","","","html-keyboard-response","432","922390","0.0-13.0-1.0-1.0-0.2-1.134","null","<span style='color:GreenYellow; font-size: 70px;'>正确! </span>","null","","","","","","","","","","","","","","","","","","","","","","","feedback_test"
"","","","","","psychophysics","433","924179","0.0-13.0-1.0-1.0-0.2-0.135","637","","f","","","","","","","","","","","","","key","f","16.66655660377385","640","356","f","true","img/C_ambi40.png","常人","word_first",""
