"success","timeout","failed_images","failed_audio","failed_video","trial_type","trial_index","time_elapsed","internal_node_id","rt","stimulus","response","value","item_width_mm","item_height_mm","item_width_px","px2mm","view_dist_mm","item_width_deg","px2deg","scale_factor","win_width_deg","win_height_deg","view_history","response_type","key_press","avg_frame_time","center_x","center_y","correct_response","correct","Image","word","condition","screen_id"
"true","false","[]","[]","[]","preload","0","705","0.0-0.0","","","","","","","","","","","","","","","","","","","","","","","","","",""
"","","","","","html-keyboard-response","1","4496","0.0-1.0","3790","
     <p>您好，欢迎参加本次实验。</p>
     <p>为充分保障您的权利，请确保您已经知晓并同意《参与实验同意书》以及《数据公开知情同意书》。</p>
     <p>如果您未见过上述内容，请咨询实验员。</p>
     <p>如果您选择继续实验，则表示您已经清楚两份知情同意书的内容并同意。</p>
     <p> <div style = ""color: green""><按任意键至下页></div> </p>
     "," ","","","","","","","","","","","","","","","","","","","","","","",""
"","","","","","html-keyboard-response","2","6209","0.0-2.0","1713","
     <p>本实验首先需要您填写一些基本个人信息。</p>
     <p> <div style = ""color: green""><按任意键至下页></div></p>
     "," ","","","","","","","","","","","","","","","","","","","","","","",""
"","","","","","call-function","3","6210","0.0-3.0-0.0","","","","","","","","","","","","","","","","","","","","","","","","","",""
"","","","","","survey-html-form","4","12009","0.0-3.0-1.0","5795","","{""Q0"":""10""}","","","","","","","","","","","","","","","","","","","","","","",""
"","","","","","html-button-response","5","12997","0.0-3.0-2.0","984","<p style = 'color : white'>您的性别</p>","1","","","","","","","","","","","","","","","","","","","","","","",""
"","","","","","survey-html-form","6","17963","0.0-3.0-3.0","4964","","{""Q0"":""2000""}","","","","","","","","","","","","","","","","","","","","","","",""
"","","","","","survey-html-form","7","20895","0.0-3.0-4.0","2931","","{""Q0"":""5""}","","","","","","","","","","","","","","","","","","","","","","",""
"","","","","","virtual-chinrest","8","80090","0.0-4.0","59192","","","","85.6","53.98","510.19535106580673","5.961229891400479","479.38","10.203907021316136","50","0.744812745169421","25.6","13.78","","","","","","","","","","","",""
"true","","","","","fullscreen","9","86346","0.0-5.0","","","","","","","","","","","","","","","","","","","","","","","","","",""
"","","","","","instructions","10","118294","0.0-6.0","31947","","","","","","","","","","","","","","[{""page_index"":0,""viewing_time"":2186},{""page_index"":1,""viewing_time"":26522},{""page_index"":2,""viewing_time"":2188},{""page_index"":3,""viewing_time"":1050}]","","","","","","","","","","",""
"","","","","","psychophysics","11","120534","0.0-7.0-0.0-0.0","1082","","f","","","","","","","","","","","","","key","f","16.674462121212084","640","396","f","true","img/T_ambi40.png","常人","prac_image_first",""
"","","","","","html-keyboard-response","12","120846","0.0-7.0-0.0-1.0","null","<span style='color:GreenYellow; font-size: 70px;'>正确! </span>","null","","","","","","","","","","","","","","","","","","","","","","","feedback_test"
"","","","","","psychophysics","13","123068","0.0-7.0-0.0-0.1","1064","","j","","","","","","","","","","","","","key","j","16.674590909090924","640","396","j","true","img/T_ambi40.png","好人","prac_image_first",""
"","","","","","html-keyboard-response","14","123384","0.0-7.0-0.0-1.1","null","<span style='color:GreenYellow; font-size: 70px;'>正确! </span>","null","","","","","","","","","","","","","","","","","","","","","","","feedback_test"
"","","","","","psychophysics","15","125964","0.0-7.0-0.0-0.2","1421","","f","","","","","","","","","","","","","key","f","16.674603896103868","640","396","j","false","img/C_ambi40.png","好人","prac_image_first",""
"","","","","","html-keyboard-response","16","126275","0.0-7.0-0.0-1.2","null","<span style='color:red; font-size: 70px;'>错误! </span>","null","","","","","","","","","","","","","","","","","","","","","","","feedback_test"
"","","","","","psychophysics","17","128054","0.0-7.0-0.0-0.3","626","","f","","","","","","","","","","","","","key","f","16.674433962264064","640","396","f","true","img/T_ambi40.png","常人","prac_image_first",""
"","","","","","html-keyboard-response","18","128370","0.0-7.0-0.0-1.3","null","<span style='color:GreenYellow; font-size: 70px;'>正确! </span>","null","","","","","","","","","","","","","","","","","","","","","","","feedback_test"
"","","","","","psychophysics","19","130758","0.0-7.0-0.0-0.4","1233","","f","","","","","","","","","","","","","key","f","16.67448591549297","640","396","j","false","img/S_ambi40.png","坏人","prac_image_first",""
"","","","","","html-keyboard-response","20","131066","0.0-7.0-0.0-1.4","null","<span style='color:red; font-size: 70px;'>错误! </span>","null","","","","","","","","","","","","","","","","","","","","","","","feedback_test"
"","","","","","psychophysics","21","133283","0.0-7.0-0.0-0.5","1053","","j","","","","","","","","","","","","","key","j","16.674537878787802","640","396","j","true","img/C_ambi40.png","常人","prac_image_first",""
"","","","","","html-keyboard-response","22","133589","0.0-7.0-0.0-1.5","null","<span style='color:GreenYellow; font-size: 70px;'>正确! </span>","null","","","","","","","","","","","","","","","","","","","","","","","feedback_test"
"","","","","","psychophysics","23","135823","0.0-7.0-0.0-0.6","1075","","j","","","","","","","","","","","","","key","j","16.674646616541374","640","396","j","true","img/S_ambi40.png","常人","prac_image_first",""
"","","","","","html-keyboard-response","24","136138","0.0-7.0-0.0-1.6","null","<span style='color:GreenYellow; font-size: 70px;'>正确! </span>","null","","","","","","","","","","","","","","","","","","","","","","","feedback_test"
"","","","","","psychophysics","25","138474","0.0-7.0-0.0-0.7","1175","","j","","","","","","","","","","","","","key","j","16.674482014388467","640","396","f","false","img/C_ambi40.png","坏人","prac_image_first",""
"","","","","","html-keyboard-response","26","138787","0.0-7.0-0.0-1.7","null","<span style='color:red; font-size: 70px;'>错误! </span>","null","","","","","","","","","","","","","","","","","","","","","","","feedback_test"
"","","","","","psychophysics","27","141144","0.0-7.0-0.0-0.8","1193","","f","","","","","","","","","","","","","key","f","16.674428571428663","640","396","f","true","img/S_ambi40.png","好人","prac_image_first",""
"","","","","","html-keyboard-response","28","141465","0.0-7.0-0.0-1.8","null","<span style='color:GreenYellow; font-size: 70px;'>正确! </span>","null","","","","","","","","","","","","","","","","","","","","","","","feedback_test"
"","","","","","psychophysics","29","143518","0.0-7.0-0.0-0.9","898","","f","","","","","","","","","","","","","key","f","16.674606557377018","640","396","f","true","img/S_ambi40.png","好人","prac_image_first",""
"","","","","","html-keyboard-response","30","143831","0.0-7.0-0.0-1.9","null","<span style='color:GreenYellow; font-size: 70px;'>正确! </span>","null","","","","","","","","","","","","","","","","","","","","","","","feedback_test"
"","","","","","psychophysics","31","145840","0.0-7.0-0.0-0.10","854","","j","","","","","","","","","","","","","key","j","16.675608333333365","640","396","j","true","img/T_ambi40.png","坏人","prac_image_first",""
"","","","","","html-keyboard-response","32","146147","0.0-7.0-0.0-1.10","null","<span style='color:GreenYellow; font-size: 70px;'>正确! </span>","null","","","","","","","","","","","","","","","","","","","","","","","feedback_test"
"","","","","","psychophysics","33","148805","0.0-7.0-0.0-0.11","null","","null","","","","","","","","","","","","","key","null","16.674588607594885","640","396","f","false","img/C_ambi40.png","坏人","prac_image_first",""
"","","","","","html-keyboard-response","34","149127","0.0-7.0-0.0-1.11","null","<span class='add_' style='color:yellow; font-size: 70px;'> 太慢! </span>","null","","","","","","","","","","","","","","","","","","","","","","","feedback_test"
"","","","","","psychophysics","35","151065","0.0-7.0-0.0-0.12","782","","j","","","","","","","","","","","","","key","j","16.674260869565288","640","396","j","true","img/C_ambi40.png","常人","prac_image_first",""
"","","","","","html-keyboard-response","36","151381","0.0-7.0-0.0-1.12","null","<span style='color:GreenYellow; font-size: 70px;'>正确! </span>","null","","","","","","","","","","","","","","","","","","","","","","","feedback_test"
"","","","","","psychophysics","37","153166","0.0-7.0-0.0-0.13","627","","j","","","","","","","","","","","","","key","j","16.674726415094415","640","396","f","false","img/T_ambi40.png","常人","prac_image_first",""
"","","","","","html-keyboard-response","38","153487","0.0-7.0-0.0-1.13","null","<span style='color:red; font-size: 70px;'>错误! </span>","null","","","","","","","","","","","","","","","","","","","","","","","feedback_test"
"","","","","","psychophysics","39","155831","0.0-7.0-0.0-0.14","1189","","j","","","","","","","","","","","","","key","j","16.67522857142841","640","396","j","true","img/T_ambi40.png","坏人","prac_image_first",""
"","","","","","html-keyboard-response","40","156143","0.0-7.0-0.0-1.14","null","<span style='color:GreenYellow; font-size: 70px;'>正确! </span>","null","","","","","","","","","","","","","","","","","","","","","","","feedback_test"
"","","","","","psychophysics","41","158586","0.0-7.0-0.0-0.15","1278","","j","","","","","","","","","","","","","key","j","16.67457931034472","640","396","j","true","img/S_ambi40.png","常人","prac_image_first",""
"","","","","","html-keyboard-response","42","158897","0.0-7.0-0.0-1.15","null","<span style='color:GreenYellow; font-size: 70px;'>正确! </span>","null","","","","","","","","","","","","","","","","","","","","","","","feedback_test"
"","","","","","psychophysics","43","160983","0.0-7.0-0.0-0.16","921","","j","","","","","","","","","","","","","key","j","16.674588709677224","640","396","j","true","img/C_ambi40.png","好人","prac_image_first",""
"","","","","","html-keyboard-response","44","161299","0.0-7.0-0.0-1.16","null","<span style='color:GreenYellow; font-size: 70px;'>正确! </span>","null","","","","","","","","","","","","","","","","","","","","","","","feedback_test"
"","","","","","psychophysics","45","163323","0.0-7.0-0.0-0.17","862","","j","","","","","","","","","","","","","key","j","16.674508333333506","640","396","f","false","img/C_ambi40.png","坏人","prac_image_first",""
"","","","","","html-keyboard-response","46","163629","0.0-7.0-0.0-1.17","null","<span style='color:red; font-size: 70px;'>错误! </span>","null","","","","","","","","","","","","","","","","","","","","","","","feedback_test"
"","","","","","psychophysics","47","165563","0.0-7.0-0.0-0.18","776","","j","","","","","","","","","","","","","key","j","16.67451304347816","640","396","j","true","img/T_ambi40.png","好人","prac_image_first",""
"","","","","","html-keyboard-response","48","165868","0.0-7.0-0.0-1.18","null","<span style='color:GreenYellow; font-size: 70px;'>正确! </span>","null","","","","","","","","","","","","","","","","","","","","","","","feedback_test"
"","","","","","psychophysics","49","167770","0.0-7.0-0.0-0.19","740","","j","","","","","","","","","","","","","key","j","16.674566371681372","640","396","j","true","img/S_ambi40.png","坏人","prac_image_first",""
"","","","","","html-keyboard-response","50","168087","0.0-7.0-0.0-1.19","null","<span style='color:GreenYellow; font-size: 70px;'>正确! </span>","null","","","","","","","","","","","","","","","","","","","","","","","feedback_test"
"","","","","","psychophysics","51","170055","0.0-7.0-0.0-0.20","807","","f","","","","","","","","","","","","","key","f","16.674717948718033","640","396","f","true","img/S_ambi40.png","好人","prac_image_first",""
"","","","","","html-keyboard-response","52","170375","0.0-7.0-0.0-1.20","null","<span style='color:GreenYellow; font-size: 70px;'>正确! </span>","null","","","","","","","","","","","","","","","","","","","","","","","feedback_test"
"","","","","","psychophysics","53","172358","0.0-7.0-0.0-0.21","827","","f","","","","","","","","","","","","","key","f","16.674542372881277","640","396","f","true","img/T_ambi40.png","常人","prac_image_first",""
"","","","","","html-keyboard-response","54","172672","0.0-7.0-0.0-1.21","null","<span style='color:GreenYellow; font-size: 70px;'>正确! </span>","null","","","","","","","","","","","","","","","","","","","","","","","feedback_test"
"","","","","","psychophysics","55","174752","0.0-7.0-0.0-0.22","926","","f","","","","","","","","","","","","","key","f","16.674645161290226","640","396","f","true","img/C_ambi40.png","坏人","prac_image_first",""
"","","","","","html-keyboard-response","56","175063","0.0-7.0-0.0-1.22","null","<span style='color:GreenYellow; font-size: 70px;'>正确! </span>","null","","","","","","","","","","","","","","","","","","","","","","","feedback_test"
"","","","","","psychophysics","57","176833","0.0-7.0-0.0-0.23","616","","f","","","","","","","","","","","","","key","f","16.674361904762087","640","396","f","true","img/S_ambi40.png","好人","prac_image_first",""
"","","","","","html-keyboard-response","58","177153","0.0-7.0-0.0-1.23","null","<span style='color:GreenYellow; font-size: 70px;'>正确! </span>","null","","","","","","","","","","","","","","","","","","","","","","","feedback_test"
"","","","","","html-keyboard-response","59","179047","0.0-8.0","1891","<style>.context{color:white; font-size: 35px; line-height:40px}</style>                              <div><p class='context'>您正确回答了75% 的试次。</p><p class='context'>您的平均反应时为928毫秒。</p><p class='context'>恭喜您完成这一阶段的练习。按任意键进入<span style='color: yellow;'>先文字后图形条件</span>的练习。</p></div>"," ","","","","","","","","","","","","","","","","","","","","","","",""
"","","","","","psychophysics","60","180866","0.0-9.0-0.0-0.0","663","","f","","","","","","","","","","","","","key","f","16.67466666666668","640","396","f","true","img/T_ambi40.png","常人","prac_word_first",""
"","","","","","html-keyboard-response","61","181169","0.0-9.0-0.0-1.0","null","<span style='color:GreenYellow; font-size: 70px;'>正确! </span>","null","","","","","","","","","","","","","","","","","","","","","","","feedback_test"
"","","","","","psychophysics","62","183315","0.0-9.0-0.0-0.1","995","","f","","","","","","","","","","","","","key","f","16.56257480314949","640","396","f","true","img/C_ambi40.png","坏人","prac_word_first",""
"","","","","","html-keyboard-response","63","183630","0.0-9.0-0.0-1.1","null","<span style='color:GreenYellow; font-size: 70px;'>正确! </span>","null","","","","","","","","","","","","","","","","","","","","","","","feedback_test"
"","","","","","psychophysics","64","185473","0.0-9.0-0.0-0.2","685","","j","","","","","","","","","","","","","key","j","16.674536363636303","640","396","j","true","img/T_ambi40.png","坏人","prac_word_first",""
"","","","","","html-keyboard-response","65","185785","0.0-9.0-0.0-1.2","null","<span style='color:GreenYellow; font-size: 70px;'>正确! </span>","null","","","","","","","","","","","","","","","","","","","","","","","feedback_test"
"","","","","","psychophysics","66","187761","0.0-9.0-0.0-0.3","822","","j","","","","","","","","","","","","","key","j","16.674128205128138","640","396","j","true","img/T_ambi40.png","好人","prac_word_first",""
"","","","","","html-keyboard-response","67","188068","0.0-9.0-0.0-1.3","null","<span style='color:GreenYellow; font-size: 70px;'>正确! </span>","null","","","","","","","","","","","","","","","","","","","","","","","feedback_test"
"","","","","","psychophysics","68","190121","0.0-9.0-0.0-0.4","897","","f","","","","","","","","","","","","","key","f","16.674655737704835","640","396","f","true","img/C_ambi40.png","坏人","prac_word_first",""
"","","","","","html-keyboard-response","69","190435","0.0-9.0-0.0-1.4","null","<span style='color:GreenYellow; font-size: 70px;'>正确! </span>","null","","","","","","","","","","","","","","","","","","","","","","","feedback_test"
"","","","","","psychophysics","70","192108","0.0-9.0-0.0-0.5","515","","f","","","","","","","","","","","","","key","f","16.67442424242406","640","396","f","true","img/S_ambi40.png","好人","prac_word_first",""
"","","","","","html-keyboard-response","71","192415","0.0-9.0-0.0-1.5","null","<span style='color:GreenYellow; font-size: 70px;'>正确! </span>","null","","","","","","","","","","","","","","","","","","","","","","","feedback_test"
"","","","","","psychophysics","72","194002","0.0-9.0-0.0-0.6","429","","f","","","","","","","","","","","","","key","f","16.67501063829788","640","396","j","false","img/S_ambi40.png","常人","prac_word_first",""
"","","","","","html-keyboard-response","73","194319","0.0-9.0-0.0-1.6","null","<span style='color:red; font-size: 70px;'>错误! </span>","null","","","","","","","","","","","","","","","","","","","","","","","feedback_test"
"","","","","","psychophysics","74","196509","0.0-9.0-0.0-0.7","1031","","f","","","","","","","","","","","","","key","f","16.674476923076927","640","396","f","true","img/S_ambi40.png","好人","prac_word_first",""
"","","","","","html-keyboard-response","75","196820","0.0-9.0-0.0-1.7","null","<span style='color:GreenYellow; font-size: 70px;'>正确! </span>","null","","","","","","","","","","","","","","","","","","","","","","","feedback_test"
"","","","","","psychophysics","76","198849","0.0-9.0-0.0-0.8","871","","j","","","","","","","","","","","","","key","j","16.67451239669429","640","396","j","true","img/C_ambi40.png","常人","prac_word_first",""
"","","","","","html-keyboard-response","77","199168","0.0-9.0-0.0-1.8","null","<span style='color:GreenYellow; font-size: 70px;'>正确! </span>","null","","","","","","","","","","","","","","","","","","","","","","","feedback_test"
"","","","","","psychophysics","78","201830","0.0-9.0-0.0-0.9","null","","null","","","","","","","","","","","","","key","null","16.674715189873485","640","396","j","false","img/S_ambi40.png","坏人","prac_word_first",""
"","","","","","html-keyboard-response","79","202147","0.0-9.0-0.0-1.9","null","<span class='add_' style='color:yellow; font-size: 70px;'> 太慢! </span>","null","","","","","","","","","","","","","","","","","","","","","","","feedback_test"
"","","","","","psychophysics","80","204103","0.0-9.0-0.0-0.10","805","","f","","","","","","","","","","","","","key","f","16.674551724137864","640","396","f","true","img/T_ambi40.png","常人","prac_word_first",""
"","","","","","html-keyboard-response","81","204416","0.0-9.0-0.0-1.10","null","<span style='color:GreenYellow; font-size: 70px;'>正确! </span>","null","","","","","","","","","","","","","","","","","","","","","","","feedback_test"
"","","","","","psychophysics","82","206547","0.0-9.0-0.0-0.11","966","","j","","","","","","","","","","","","","key","j","16.674563492063456","640","396","j","true","img/C_ambi40.png","好人","prac_word_first",""
"","","","","","html-keyboard-response","83","206864","0.0-9.0-0.0-1.11","null","<span style='color:GreenYellow; font-size: 70px;'>正确! </span>","null","","","","","","","","","","","","","","","","","","","","","","","feedback_test"
"","","","","","psychophysics","84","209517","0.0-9.0-0.0-0.12","null","","null","","","","","","","","","","","","","key","null","16.589401273885304","640","396","j","false","img/T_ambi40.png","坏人","prac_word_first",""
"","","","","","html-keyboard-response","85","209829","0.0-9.0-0.0-1.12","null","<span class='add_' style='color:yellow; font-size: 70px;'> 太慢! </span>","null","","","","","","","","","","","","","","","","","","","","","","","feedback_test"
"","","","","","psychophysics","86","211584","0.0-9.0-0.0-0.13","599","","f","","","","","","","","","","","","","key","f","16.674692307692357","640","396","f","true","img/T_ambi40.png","常人","prac_word_first",""
"","","","","","html-keyboard-response","87","211892","0.0-9.0-0.0-1.13","null","<span style='color:GreenYellow; font-size: 70px;'>正确! </span>","null","","","","","","","","","","","","","","","","","","","","","","","feedback_test"
"","","","","","psychophysics","88","213869","0.0-9.0-0.0-0.14","816","","f","","","","","","","","","","","","","key","f","16.67542735042755","640","396","f","true","img/C_ambi40.png","坏人","prac_word_first",""
"","","","","","html-keyboard-response","89","214190","0.0-9.0-0.0-1.14","null","<span style='color:GreenYellow; font-size: 70px;'>正确! </span>","null","","","","","","","","","","","","","","","","","","","","","","","feedback_test"
"","","","","","psychophysics","90","215981","0.0-9.0-0.0-0.15","633","","f","","","","","","","","","","","","","key","f","16.674471698113265","640","396","f","true","img/C_ambi40.png","坏人","prac_word_first",""
"","","","","","html-keyboard-response","91","216299","0.0-9.0-0.0-1.15","null","<span style='color:GreenYellow; font-size: 70px;'>正确! </span>","null","","","","","","","","","","","","","","","","","","","","","","","feedback_test"
"","","","","","psychophysics","92","218249","0.0-9.0-0.0-0.16","795","","j","","","","","","","","","","","","","key","j","16.674724137930877","640","396","j","true","img/C_ambi40.png","常人","prac_word_first",""
"","","","","","html-keyboard-response","93","218567","0.0-9.0-0.0-1.16","null","<span style='color:GreenYellow; font-size: 70px;'>正确! </span>","null","","","","","","","","","","","","","","","","","","","","","","","feedback_test"
"","","","","","psychophysics","94","220287","0.0-9.0-0.0-0.17","566","","f","","","","","","","","","","","","","key","f","16.674568627450807","640","396","f","true","img/S_ambi40.png","好人","prac_word_first",""
"","","","","","html-keyboard-response","95","220603","0.0-9.0-0.0-1.17","null","<span style='color:GreenYellow; font-size: 70px;'>正确! </span>","null","","","","","","","","","","","","","","","","","","","","","","","feedback_test"
"","","","","","psychophysics","96","222837","0.0-9.0-0.0-0.18","1081","","j","","","","","","","","","","","","","key","j","16.674548872180424","640","396","j","true","img/S_ambi40.png","坏人","prac_word_first",""
"","","","","","html-keyboard-response","97","223146","0.0-9.0-0.0-1.18","null","<span style='color:GreenYellow; font-size: 70px;'>正确! </span>","null","","","","","","","","","","","","","","","","","","","","","","","feedback_test"
"","","","","","psychophysics","98","224890","0.0-9.0-0.0-0.19","588","","f","","","","","","","","","","","","","key","f","16.67450485436881","640","396","f","true","img/T_ambi40.png","常人","prac_word_first",""
"","","","","","html-keyboard-response","99","225207","0.0-9.0-0.0-1.19","null","<span style='color:GreenYellow; font-size: 70px;'>正确! </span>","null","","","","","","","","","","","","","","","","","","","","","","","feedback_test"
"","","","","","psychophysics","100","226983","0.0-9.0-0.0-0.20","625","","f","","","","","","","","","","","","","key","f","16.67464761904779","640","396","f","true","img/S_ambi40.png","好人","prac_word_first",""
"","","","","","html-keyboard-response","101","227301","0.0-9.0-0.0-1.20","null","<span style='color:GreenYellow; font-size: 70px;'>正确! </span>","null","","","","","","","","","","","","","","","","","","","","","","","feedback_test"
"","","","","","psychophysics","102","229096","0.0-9.0-0.0-0.21","637","","j","","","","","","","","","","","","","key","j","16.67463551401857","640","396","j","true","img/T_ambi40.png","好人","prac_word_first",""
"","","","","","html-keyboard-response","103","229408","0.0-9.0-0.0-1.21","null","<span style='color:GreenYellow; font-size: 70px;'>正确! </span>","null","","","","","","","","","","","","","","","","","","","","","","","feedback_test"
"","","","","","psychophysics","104","231373","0.0-9.0-0.0-0.22","812","","j","","","","","","","","","","","","","key","j","16.67438461538454","640","396","j","true","img/S_ambi40.png","常人","prac_word_first",""
"","","","","","html-keyboard-response","105","231683","0.0-9.0-0.0-1.22","null","<span style='color:GreenYellow; font-size: 70px;'>正确! </span>","null","","","","","","","","","","","","","","","","","","","","","","","feedback_test"
"","","","","","psychophysics","106","233750","0.0-9.0-0.0-0.23","907","","j","","","","","","","","","","","","","key","j","16.67456097560968","640","396","j","true","img/C_ambi40.png","好人","prac_word_first",""
"","","","","","html-keyboard-response","107","234058","0.0-9.0-0.0-1.23","null","<span style='color:GreenYellow; font-size: 70px;'>正确! </span>","null","","","","","","","","","","","","","","","","","","","","","","","feedback_test"
"","","","","","html-keyboard-response","108","235504","0.0-10.0","1444","<style>.context{color:white; font-size: 35px; line-height:40px}</style>                              <div><p class='context'>您正确回答了88% 的试次。</p><p class='context'>您的平均反应时为777毫秒。</p><p class='context'>恭喜您完成练习。按任意键进入<span style='color: yellow;'>图形和文字同时呈现条件</span>的练习。</p></div>"," ","","","","","","","","","","","","","","","","","","","","","","",""
"","","","","","psychophysics","109","237853","0.0-11.0-0.0-0.0","1341","","f","","","","","","","","","","","","","key","f","16.67455000000004","640","396","f","true","img/T_ambi40.png","常人","prac_simultaneous",""
"","","","","","html-keyboard-response","110","238173","0.0-11.0-0.0-1.0","null","<span style='color:GreenYellow; font-size: 70px;'>正确! </span>","null","","","","","","","","","","","","","","","","","","","","","","","feedback_test"
"","","","","","psychophysics","111","239887","0.0-11.0-0.0-0.1","707","","f","","","","","","","","","","","","","key","f","16.674539215686416","640","396","f","true","img/S_ambi40.png","好人","prac_simultaneous",""
"","","","","","html-keyboard-response","112","240205","0.0-11.0-0.0-1.1","null","<span style='color:GreenYellow; font-size: 70px;'>正确! </span>","null","","","","","","","","","","","","","","","","","","","","","","","feedback_test"
"","","","","","psychophysics","113","242104","0.0-11.0-0.0-0.2","888","","f","","","","","","","","","","","","","key","f","16.674513274336295","640","396","f","true","img/T_ambi40.png","常人","prac_simultaneous",""
"","","","","","html-keyboard-response","114","242424","0.0-11.0-0.0-1.2","null","<span style='color:GreenYellow; font-size: 70px;'>正确! </span>","null","","","","","","","","","","","","","","","","","","","","","","","feedback_test"
"","","","","","psychophysics","115","244216","0.0-11.0-0.0-0.3","784","","j","","","","","","","","","","","","","key","j","16.67452830188679","640","396","f","false","img/S_ambi40.png","好人","prac_simultaneous",""
"","","","","","html-keyboard-response","116","244522","0.0-11.0-0.0-1.3","null","<span style='color:red; font-size: 70px;'>错误! </span>","null","","","","","","","","","","","","","","","","","","","","","","","feedback_test"
"","","","","","psychophysics","117","246495","0.0-11.0-0.0-0.4","962","","j","","","","","","","","","","","","","key","j","16.674529914529774","640","396","j","true","img/S_ambi40.png","常人","prac_simultaneous",""
"","","","","","html-keyboard-response","118","246807","0.0-11.0-0.0-1.4","null","<span style='color:GreenYellow; font-size: 70px;'>正确! </span>","null","","","","","","","","","","","","","","","","","","","","","","","feedback_test"
"","","","","","psychophysics","119","248650","0.0-11.0-0.0-0.5","840","","j","","","","","","","","","","","","","key","j","16.67458715596329","640","396","j","true","img/T_ambi40.png","好人","prac_simultaneous",""
"","","","","","html-keyboard-response","120","248964","0.0-11.0-0.0-1.5","null","<span style='color:GreenYellow; font-size: 70px;'>正确! </span>","null","","","","","","","","","","","","","","","","","","","","","","","feedback_test"
"","","","","","psychophysics","121","250874","0.0-11.0-0.0-0.6","905","","f","","","","","","","","","","","","","key","f","16.674421052631498","640","396","j","false","img/C_ambi40.png","常人","prac_simultaneous",""
"","","","","","html-keyboard-response","122","251185","0.0-11.0-0.0-1.6","null","<span style='color:red; font-size: 70px;'>错误! </span>","null","","","","","","","","","","","","","","","","","","","","","","","feedback_test"
"","","","","","psychophysics","123","253574","0.0-11.0-0.0-0.7","1387","","j","","","","","","","","","","","","","key","j","16.5747535211269","640","396","j","true","img/C_ambi40.png","好人","prac_simultaneous",""
"","","","","","html-keyboard-response","124","253894","0.0-11.0-0.0-1.7","null","<span style='color:GreenYellow; font-size: 70px;'>正确! </span>","null","","","","","","","","","","","","","","","","","","","","","","","feedback_test"
"","","","","","psychophysics","125","256262","0.0-11.0-0.0-0.8","1358","","j","","","","","","","","","","","","","key","j","16.67457446808504","640","396","j","true","img/T_ambi40.png","坏人","prac_simultaneous",""
"","","","","","html-keyboard-response","126","256570","0.0-11.0-0.0-1.8","null","<span style='color:GreenYellow; font-size: 70px;'>正确! </span>","null","","","","","","","","","","","","","","","","","","","","","","","feedback_test"
"","","","","","psychophysics","127","258534","0.0-11.0-0.0-0.9","962","","f","","","","","","","","","","","","","key","f","16.674452991452682","640","396","f","true","img/C_ambi40.png","坏人","prac_simultaneous",""
"","","","","","html-keyboard-response","128","258853","0.0-11.0-0.0-1.9","null","<span style='color:GreenYellow; font-size: 70px;'>正确! </span>","null","","","","","","","","","","","","","","","","","","","","","","","feedback_test"
"","","","","","psychophysics","129","260805","0.0-11.0-0.0-0.10","947","","j","","","","","","","","","","","","","key","j","16.674551724137615","640","396","j","true","img/S_ambi40.png","坏人","prac_simultaneous",""
"","","","","","html-keyboard-response","130","261121","0.0-11.0-0.0-1.10","null","<span style='color:GreenYellow; font-size: 70px;'>正确! </span>","null","","","","","","","","","","","","","","","","","","","","","","","feedback_test"
"","","","","","psychophysics","131","263212","0.0-11.0-0.0-0.11","1088","","f","","","","","","","","","","","","","key","f","16.674459677419133","640","396","f","true","img/C_ambi40.png","坏人","prac_simultaneous",""
"","","","","","html-keyboard-response","132","263525","0.0-11.0-0.0-1.11","null","<span style='color:GreenYellow; font-size: 70px;'>正确! </span>","null","","","","","","","","","","","","","","","","","","","","","","","feedback_test"
"","","","","","psychophysics","133","265218","0.0-11.0-0.0-0.12","692","","f","","","","","","","","","","","","","key","f","16.674560000000056","640","396","f","true","img/T_ambi40.png","常人","prac_simultaneous",""
"","","","","","html-keyboard-response","134","265533","0.0-11.0-0.0-1.12","null","<span style='color:GreenYellow; font-size: 70px;'>正确! </span>","null","","","","","","","","","","","","","","","","","","","","","","","feedback_test"
"","","","","","psychophysics","135","267285","0.0-11.0-0.0-0.13","742","","f","","","","","","","","","","","","","key","f","16.674605769230627","640","396","f","true","img/S_ambi40.png","好人","prac_simultaneous",""
"","","","","","html-keyboard-response","136","267605","0.0-11.0-0.0-1.13","null","<span style='color:GreenYellow; font-size: 70px;'>正确! </span>","null","","","","","","","","","","","","","","","","","","","","","","","feedback_test"
"","","","","","psychophysics","137","269352","0.0-11.0-0.0-0.14","741","","j","","","","","","","","","","","","","key","j","16.672788461538193","640","396","j","true","img/C_ambi40.png","好人","prac_simultaneous",""
"","","","","","html-keyboard-response","138","269667","0.0-11.0-0.0-1.14","null","<span style='color:GreenYellow; font-size: 70px;'>正确! </span>","null","","","","","","","","","","","","","","","","","","","","","","","feedback_test"
"","","","","","psychophysics","139","271448","0.0-11.0-0.0-0.15","770","","f","","","","","","","","","","","","","key","f","16.67449056603759","640","396","f","true","img/T_ambi40.png","常人","prac_simultaneous",""
"","","","","","html-keyboard-response","140","271762","0.0-11.0-0.0-1.15","null","<span style='color:GreenYellow; font-size: 70px;'>正确! </span>","null","","","","","","","","","","","","","","","","","","","","","","","feedback_test"
"","","","","","psychophysics","141","273711","0.0-11.0-0.0-0.16","947","","j","","","","","","","","","","","","","key","j","16.544747826087026","640","396","j","true","img/S_ambi40.png","常人","prac_simultaneous",""
"","","","","","html-keyboard-response","142","274028","0.0-11.0-0.0-1.16","null","<span style='color:GreenYellow; font-size: 70px;'>正确! </span>","null","","","","","","","","","","","","","","","","","","","","","","","feedback_test"
"","","","","","psychophysics","143","275744","0.0-11.0-0.0-0.17","710","","f","","","","","","","","","","","","","key","f","16.674411764705678","640","396","f","true","img/S_ambi40.png","好人","prac_simultaneous",""
"","","","","","html-keyboard-response","144","276060","0.0-11.0-0.0-1.17","null","<span style='color:GreenYellow; font-size: 70px;'>正确! </span>","null","","","","","","","","","","","","","","","","","","","","","","","feedback_test"
"","","","","","psychophysics","145","278057","0.0-11.0-0.0-0.18","992","","j","","","","","","","","","","","","","key","j","16.674537815126207","640","396","j","true","img/T_ambi40.png","坏人","prac_simultaneous",""
"","","","","","html-keyboard-response","146","278373","0.0-11.0-0.0-1.18","null","<span style='color:GreenYellow; font-size: 70px;'>正确! </span>","null","","","","","","","","","","","","","","","","","","","","","","","feedback_test"
"","","","","","psychophysics","147","280277","0.0-11.0-0.0-0.19","895","","j","","","","","","","","","","","","","key","j","16.6749115044249","640","396","f","false","img/C_ambi40.png","坏人","prac_simultaneous",""
"","","","","","html-keyboard-response","148","280588","0.0-11.0-0.0-1.19","null","<span style='color:red; font-size: 70px;'>错误! </span>","null","","","","","","","","","","","","","","","","","","","","","","","feedback_test"
"","","","","","psychophysics","149","282658","0.0-11.0-0.0-0.20","1057","","j","","","","","","","","","","","","","key","j","16.674447154471505","640","396","j","true","img/S_ambi40.png","坏人","prac_simultaneous",""
"","","","","","html-keyboard-response","150","282966","0.0-11.0-0.0-1.20","null","<span style='color:GreenYellow; font-size: 70px;'>正确! </span>","null","","","","","","","","","","","","","","","","","","","","","","","feedback_test"
"","","","","","psychophysics","151","284811","0.0-11.0-0.0-0.21","830","","f","","","","","","","","","","","","","key","f","16.674554545454555","640","396","f","true","img/C_ambi40.png","坏人","prac_simultaneous",""
"","","","","","html-keyboard-response","152","285121","0.0-11.0-0.0-1.21","null","<span style='color:GreenYellow; font-size: 70px;'>正确! </span>","null","","","","","","","","","","","","","","","","","","","","","","","feedback_test"
"","","","","","psychophysics","153","287036","0.0-11.0-0.0-0.22","900","","f","","","","","","","","","","","","","key","f","16.67445132743353","640","396","j","false","img/C_ambi40.png","常人","prac_simultaneous",""
"","","","","","html-keyboard-response","154","287351","0.0-11.0-0.0-1.22","null","<span style='color:red; font-size: 70px;'>错误! </span>","null","","","","","","","","","","","","","","","","","","","","","","","feedback_test"
"","","","","","psychophysics","155","289541","0.0-11.0-0.0-0.23","1186","","j","","","","","","","","","","","","","key","j","16.674618320610687","640","396","j","true","img/T_ambi40.png","好人","prac_simultaneous",""
"","","","","","html-keyboard-response","156","289864","0.0-11.0-0.0-1.23","null","<span style='color:GreenYellow; font-size: 70px;'>正确! </span>","null","","","","","","","","","","","","","","","","","","","","","","","feedback_test"
"","","","","","html-keyboard-response","157","291362","0.0-12.0","1496","<style>.context{color:white; font-size: 35px; line-height:40px}</style>                              <div><p class='context'>您正确回答了83% 的试次。</p><p class='context'>您的平均反应时为957毫秒。</p><p class='context'>恭喜您完成练习。按任意键进入正式实验。</p><p class='footer' style='font-size: 35px; line-height:40px;'>请在进入正式实验实验之前将您的<span style='color: lightgreen;'>食指</span>放在电脑键盘的相应键位上进行按键。</p>"," ","","","","","","","","","","","","","","","","","","","","","","",""
"","","","","","html-keyboard-response","158","294490","0.0-13.0-0.0-0.0","3124","
      <p>请您将手指放在按键上，准备进入呈现顺序为<span style='color: yellow;'>先图形后文字条件</span>的正式匹配任务</p>
      <p> <div style = ""color: green""><按任意键进入下一阶段的匹配任务></div></p>
      "," ","","","","","","","","","","","","","","","","","","","","","","",""
"","","","","","psychophysics","159","297060","0.0-13.0-0.0-1.0-0.0-0.0","1418","","f","","","","","","","","","","","","","key","f","16.674411764705866","640","396","f","true","img/S_ambi40.png","好人","image_first",""
"","","","","","html-keyboard-response","160","297381","0.0-13.0-0.0-1.0-0.0-1.0","null","<span style='color:GreenYellow; font-size: 70px;'>正确! </span>","null","","","","","","","","","","","","","","","","","","","","","","","feedback_test"
"","","","","","psychophysics","161","299120","0.0-13.0-0.0-1.0-0.0-0.1","582","","f","","","","","","","","","","","","","key","f","16.674553398058176","640","396","f","true","img/S_ambi40.png","好人","image_first",""
"","","","","","html-keyboard-response","162","299440","0.0-13.0-0.0-1.0-0.0-1.1","null","<span style='color:GreenYellow; font-size: 70px;'>正确! </span>","null","","","","","","","","","","","","","","","","","","","","","","","feedback_test"
"","","","","","psychophysics","163","301150","0.0-13.0-0.0-1.0-0.0-0.2","553","","j","","","","","","","","","","","","","key","j","16.674617647058696","640","396","j","true","img/S_ambi40.png","常人","image_first",""
"","","","","","html-keyboard-response","164","301469","0.0-13.0-0.0-1.0-0.0-1.2","null","<span style='color:GreenYellow; font-size: 70px;'>正确! </span>","null","","","","","","","","","","","","","","","","","","","","","","","feedback_test"
"","","","","","psychophysics","165","303534","0.0-13.0-0.0-1.0-0.0-0.3","906","","j","","","","","","","","","","","","","key","j","16.674585365853556","640","396","j","true","img/T_ambi40.png","好人","image_first",""
"","","","","","html-keyboard-response","166","303847","0.0-13.0-0.0-1.0-0.0-1.3","null","<span style='color:GreenYellow; font-size: 70px;'>正确! </span>","null","","","","","","","","","","","","","","","","","","","","","","","feedback_test"
"","","","","","psychophysics","167","305649","0.0-13.0-0.0-1.0-0.0-0.4","652","","j","","","","","","","","","","","","","key","j","16.674411214953377","640","396","j","true","img/C_ambi40.png","好人","image_first",""
"","","","","","html-keyboard-response","168","305957","0.0-13.0-0.0-1.0-0.0-1.4","null","<span style='color:GreenYellow; font-size: 70px;'>正确! </span>","null","","","","","","","","","","","","","","","","","","","","","","","feedback_test"
"","","","","","psychophysics","169","307812","0.0-13.0-0.0-1.0-0.0-0.5","699","","f","","","","","","","","","","","","","key","f","16.674136363636617","640","396","f","true","img/T_ambi40.png","常人","image_first",""
"","","","","","html-keyboard-response","170","308126","0.0-13.0-0.0-1.0-0.0-1.5","null","<span style='color:GreenYellow; font-size: 70px;'>正确! </span>","null","","","","","","","","","","","","","","","","","","","","","","","feedback_test"
"","","","","","psychophysics","171","309874","0.0-13.0-0.0-1.0-0.0-0.6","592","","j","","","","","","","","","","","","","key","j","16.67445192307675","640","396","j","true","img/T_ambi40.png","坏人","image_first",""
"","","","","","html-keyboard-response","172","310190","0.0-13.0-0.0-1.0-0.0-1.6","null","<span style='color:GreenYellow; font-size: 70px;'>正确! </span>","null","","","","","","","","","","","","","","","","","","","","","","","feedback_test"
"","","","","","psychophysics","173","311885","0.0-13.0-0.0-1.0-0.0-0.7","537","","f","","","","","","","","","","","","","key","f","16.67450495049505","640","396","f","true","img/C_ambi40.png","坏人","image_first",""
"","","","","","html-keyboard-response","174","312205","0.0-13.0-0.0-1.0-0.0-1.7","null","<span style='color:GreenYellow; font-size: 70px;'>正确! </span>","null","","","","","","","","","","","","","","","","","","","","","","","feedback_test"
"","","","","","psychophysics","175","313944","0.0-13.0-0.0-1.0-0.0-0.8","577","","f","","","","","","","","","","","","","key","f","16.674708737864034","640","396","f","true","img/T_ambi40.png","常人","image_first",""
"","","","","","html-keyboard-response","176","314262","0.0-13.0-0.0-1.0-0.0-1.8","null","<span style='color:GreenYellow; font-size: 70px;'>正确! </span>","null","","","","","","","","","","","","","","","","","","","","","","","feedback_test"
"","","","","","psychophysics","177","316187","0.0-13.0-0.0-1.0-0.0-0.9","770","","j","","","","","","","","","","","","","key","j","16.674400000000354","640","396","j","true","img/C_ambi40.png","常人","image_first",""
"","","","","","html-keyboard-response","178","316496","0.0-13.0-0.0-1.0-0.0-1.9","null","<span style='color:GreenYellow; font-size: 70px;'>正确! </span>","null","","","","","","","","","","","","","","","","","","","","","","","feedback_test"
"","","","","","psychophysics","179","318562","0.0-13.0-0.0-1.0-0.0-0.10","910","","f","","","","","","","","","","","","","key","f","16.674756097560937","640","396","f","true","img/C_ambi40.png","坏人","image_first",""
"","","","","","html-keyboard-response","180","318880","0.0-13.0-0.0-1.0-0.0-1.10","null","<span style='color:GreenYellow; font-size: 70px;'>正确! </span>","null","","","","","","","","","","","","","","","","","","","","","","","feedback_test"
"","","","","","psychophysics","181","320748","0.0-13.0-0.0-1.0-0.0-0.11","714","","j","","","","","","","","","","","","","key","j","16.67485585585572","640","396","j","true","img/S_ambi40.png","坏人","image_first",""
"","","","","","html-keyboard-response","182","321064","0.0-13.0-0.0-1.0-0.0-1.11","null","<span style='color:GreenYellow; font-size: 70px;'>正确! </span>","null","","","","","","","","","","","","","","","","","","","","","","","feedback_test"
"","","","","","psychophysics","183","322997","0.0-13.0-0.0-1.0-0.0-0.12","777","","j","","","","","","","","","","","","","key","j","16.674747826087128","640","396","j","true","img/C_ambi40.png","常人","image_first",""
"","","","","","html-keyboard-response","184","323318","0.0-13.0-0.0-1.0-0.0-1.12","null","<span style='color:GreenYellow; font-size: 70px;'>正确! </span>","null","","","","","","","","","","","","","","","","","","","","","","","feedback_test"
"","","","","","psychophysics","185","325313","0.0-13.0-0.0-1.0-0.0-0.13","834","","j","","","","","","","","","","","","","key","j","16.674537815126207","640","396","j","true","img/C_ambi40.png","好人","image_first",""
"","","","","","html-keyboard-response","186","325629","0.0-13.0-0.0-1.0-0.0-1.13","null","<span style='color:GreenYellow; font-size: 70px;'>正确! </span>","null","","","","","","","","","","","","","","","","","","","","","","","feedback_test"
"","","","","","psychophysics","187","327570","0.0-13.0-0.0-1.0-0.0-0.14","782","","j","","","","","","","","","","","","","key","j","16.674495652173746","640","396","f","false","img/C_ambi40.png","坏人","image_first",""
"","","","","","html-keyboard-response","188","327880","0.0-13.0-0.0-1.0-0.0-1.14","null","<span style='color:red; font-size: 70px;'>错误! </span>","null","","","","","","","","","","","","","","","","","","","","","","","feedback_test"
"","","","","","psychophysics","189","329695","0.0-13.0-0.0-1.0-0.0-0.15","656","","f","","","","","","","","","","","","","key","f","16.674379629629485","640","396","f","true","img/C_ambi40.png","坏人","image_first",""
"","","","","","html-keyboard-response","190","330006","0.0-13.0-0.0-1.0-0.0-1.15","null","<span style='color:GreenYellow; font-size: 70px;'>正确! </span>","null","","","","","","","","","","","","","","","","","","","","","","","feedback_test"
"","","","","","psychophysics","191","331754","0.0-13.0-0.0-1.0-0.0-0.16","595","","f","","","","","","","","","","","","","key","f","16.537378640776474","640","396","f","true","img/S_ambi40.png","好人","image_first",""
"","","","","","html-keyboard-response","192","332066","0.0-13.0-0.0-1.0-0.0-1.16","null","<span style='color:GreenYellow; font-size: 70px;'>正确! </span>","null","","","","","","","","","","","","","","","","","","","","","","","feedback_test"
"","","","","","psychophysics","193","333666","0.0-13.0-0.0-1.0-0.0-0.17","440","","f","","","","","","","","","","","","","key","f","16.674568421052353","640","396","f","true","img/T_ambi40.png","常人","image_first",""
"","","","","","html-keyboard-response","194","333980","0.0-13.0-0.0-1.0-0.0-1.17","null","<span style='color:GreenYellow; font-size: 70px;'>正确! </span>","null","","","","","","","","","","","","","","","","","","","","","","","feedback_test"
"","","","","","psychophysics","195","335835","0.0-13.0-0.0-1.0-0.0-0.18","692","","f","","","","","","","","","","","","","key","f","16.674500000000062","640","396","f","true","img/T_ambi40.png","常人","image_first",""
"","","","","","html-keyboard-response","196","336151","0.0-13.0-0.0-1.0-0.0-1.18","null","<span style='color:GreenYellow; font-size: 70px;'>正确! </span>","null","","","","","","","","","","","","","","","","","","","","","","","feedback_test"
"","","","","","psychophysics","197","337999","0.0-13.0-0.0-1.0-0.0-0.19","689","","j","","","","","","","","","","","","","key","j","16.67449090909107","640","396","j","true","img/S_ambi40.png","常人","image_first",""
"","","","","","html-keyboard-response","198","338320","0.0-13.0-0.0-1.0-0.0-1.19","null","<span style='color:GreenYellow; font-size: 70px;'>正确! </span>","null","","","","","","","","","","","","","","","","","","","","","","","feedback_test"
"","","","","","psychophysics","199","340157","0.0-13.0-0.0-1.0-0.0-0.20","680","","j","","","","","","","","","","","","","key","j","16.67457798165173","640","396","j","true","img/T_ambi40.png","坏人","image_first",""
"","","","","","html-keyboard-response","200","340476","0.0-13.0-0.0-1.0-0.0-1.20","null","<span style='color:GreenYellow; font-size: 70px;'>正确! </span>","null","","","","","","","","","","","","","","","","","","","","","","","feedback_test"
"","","","","","psychophysics","201","342408","0.0-13.0-0.0-1.0-0.0-0.21","779","","f","","","","","","","","","","","","","key","f","16.674573913043485","640","396","f","true","img/S_ambi40.png","好人","image_first",""
"","","","","","html-keyboard-response","202","342727","0.0-13.0-0.0-1.0-0.0-1.21","null","<span style='color:GreenYellow; font-size: 70px;'>正确! </span>","null","","","","","","","","","","","","","","","","","","","","","","","feedback_test"
"","","","","","psychophysics","203","344632","0.0-13.0-0.0-1.0-0.0-0.22","750","","j","","","","","","","","","","","","","key","j","16.67466371681436","640","396","j","true","img/T_ambi40.png","好人","image_first",""
"","","","","","html-keyboard-response","204","344945","0.0-13.0-0.0-1.0-0.0-1.22","null","<span style='color:GreenYellow; font-size: 70px;'>正确! </span>","null","","","","","","","","","","","","","","","","","","","","","","","feedback_test"
"","","","","","psychophysics","205","346940","0.0-13.0-0.0-1.0-0.0-0.23","841","","f","","","","","","","","","","","","","key","f","16.674663865546","640","396","j","false","img/S_ambi40.png","坏人","image_first",""
"","","","","","html-keyboard-response","206","347257","0.0-13.0-0.0-1.0-0.0-1.23","null","<span style='color:red; font-size: 70px;'>错误! </span>","null","","","","","","","","","","","","","","","","","","","","","","","feedback_test"
"","","","","","psychophysics","207","349331","0.0-13.0-0.0-1.0-0.0-0.24","919","","j","","","","","","","","","","","","","key","j","16.67476422764215","640","396","j","true","img/T_ambi40.png","好人","image_first",""
"","","","","","html-keyboard-response","208","349648","0.0-13.0-0.0-1.0-0.0-1.24","null","<span style='color:GreenYellow; font-size: 70px;'>正确! </span>","null","","","","","","","","","","","","","","","","","","","","","","","feedback_test"
"","","","","","psychophysics","209","351667","0.0-13.0-0.0-1.0-0.0-0.25","866","","f","","","","","","","","","","","","","key","f","16.67458333333343","640","396","f","true","img/T_ambi40.png","常人","image_first",""
"","","","","","html-keyboard-response","210","351984","0.0-13.0-0.0-1.0-0.0-1.25","null","<span style='color:GreenYellow; font-size: 70px;'>正确! </span>","null","","","","","","","","","","","","","","","","","","","","","","","feedback_test"
"","","","","","psychophysics","211","353993","0.0-13.0-0.0-1.0-0.0-0.26","858","","j","","","","","","","","","","","","","key","j","16.551504201680313","640","396","j","true","img/C_ambi40.png","常人","image_first",""
"","","","","","html-keyboard-response","212","354299","0.0-13.0-0.0-1.0-0.0-1.26","null","<span style='color:GreenYellow; font-size: 70px;'>正确! </span>","null","","","","","","","","","","","","","","","","","","","","","","","feedback_test"
"","","","","","psychophysics","213","356593","0.0-13.0-0.0-1.0-0.0-0.27","1141","","f","","","","","","","","","","","","","key","f","16.67447445255468","640","396","f","true","img/C_ambi40.png","坏人","image_first",""
"","","","","","html-keyboard-response","214","356901","0.0-13.0-0.0-1.0-0.0-1.27","null","<span style='color:GreenYellow; font-size: 70px;'>正确! </span>","null","","","","","","","","","","","","","","","","","","","","","","","feedback_test"
"","","","","","psychophysics","215","358646","0.0-13.0-0.0-1.0-0.0-0.28","593","","f","","","","","","","","","","","","","key","f","16.546990291262386","640","396","f","true","img/C_ambi40.png","坏人","image_first",""
"","","","","","html-keyboard-response","216","358960","0.0-13.0-0.0-1.0-0.0-1.28","null","<span style='color:GreenYellow; font-size: 70px;'>正确! </span>","null","","","","","","","","","","","","","","","","","","","","","","","feedback_test"
"","","","","","psychophysics","217","360860","0.0-13.0-0.0-1.0-0.0-0.29","744","","j","","","","","","","","","","","","","key","j","16.674522123893464","640","396","j","true","img/S_ambi40.png","常人","image_first",""
"","","","","","html-keyboard-response","218","361181","0.0-13.0-0.0-1.0-0.0-1.29","null","<span style='color:GreenYellow; font-size: 70px;'>正确! </span>","null","","","","","","","","","","","","","","","","","","","","","","","feedback_test"
"","","","","","psychophysics","219","363314","0.0-13.0-0.0-1.0-0.0-0.30","976","","j","","","","","","","","","","","","","key","j","16.67463779527562","640","396","j","true","img/S_ambi40.png","坏人","image_first",""
"","","","","","html-keyboard-response","220","363627","0.0-13.0-0.0-1.0-0.0-1.30","null","<span style='color:GreenYellow; font-size: 70px;'>正确! </span>","null","","","","","","","","","","","","","","","","","","","","","","","feedback_test"
"","","","","","psychophysics","221","365370","0.0-13.0-0.0-1.0-0.0-0.31","583","","f","","","","","","","","","","","","","key","f","16.67462135922306","640","396","j","false","img/C_ambi40.png","好人","image_first",""
"","","","","","html-keyboard-response","222","365675","0.0-13.0-0.0-1.0-0.0-1.31","null","<span style='color:red; font-size: 70px;'>错误! </span>","null","","","","","","","","","","","","","","","","","","","","","","","feedback_test"
"","","","","","psychophysics","223","367670","0.0-13.0-0.0-1.0-0.0-0.32","835","","f","","","","","","","","","","","","","key","f","16.67437288135594","640","396","f","true","img/S_ambi40.png","好人","image_first",""
"","","","","","html-keyboard-response","224","367992","0.0-13.0-0.0-1.0-0.0-1.32","null","<span style='color:GreenYellow; font-size: 70px;'>正确! </span>","null","","","","","","","","","","","","","","","","","","","","","","","feedback_test"
"","","","","","psychophysics","225","369793","0.0-13.0-0.0-1.0-0.0-0.33","651","","f","","","","","","","","","","","","","key","f","16.67470093457916","640","396","f","true","img/T_ambi40.png","常人","image_first",""
"","","","","","html-keyboard-response","226","370101","0.0-13.0-0.0-1.0-0.0-1.33","null","<span style='color:GreenYellow; font-size: 70px;'>正确! </span>","null","","","","","","","","","","","","","","","","","","","","","","","feedback_test"
"","","","","","psychophysics","227","371909","0.0-13.0-0.0-1.0-0.0-0.34","650","","f","","","","","","","","","","","","","key","f","16.67452336448597","640","396","f","true","img/S_ambi40.png","好人","image_first",""
"","","","","","html-keyboard-response","228","372230","0.0-13.0-0.0-1.0-0.0-1.34","null","<span style='color:GreenYellow; font-size: 70px;'>正确! </span>","null","","","","","","","","","","","","","","","","","","","","","","","feedback_test"
"","","","","","psychophysics","229","373989","0.0-13.0-0.0-1.0-0.0-0.35","603","","j","","","","","","","","","","","","","key","j","16.674519230769455","640","396","j","true","img/T_ambi40.png","坏人","image_first",""
"","","","","","html-keyboard-response","230","374309","0.0-13.0-0.0-1.0-0.0-1.35","null","<span style='color:GreenYellow; font-size: 70px;'>正确! </span>","null","","","","","","","","","","","","","","","","","","","","","","","feedback_test"
"","","","","","psychophysics","231","376116","0.0-13.0-0.0-1.0-0.0-0.36","654","","f","","","","","","","","","","","","","key","f","16.67555555555521","640","396","f","true","img/S_ambi40.png","好人","image_first",""
"","","","","","html-keyboard-response","232","376418","0.0-13.0-0.0-1.0-0.0-1.36","null","<span style='color:GreenYellow; font-size: 70px;'>正确! </span>","null","","","","","","","","","","","","","","","","","","","","","","","feedback_test"
"","","","","","psychophysics","233","378236","0.0-13.0-0.0-1.0-0.0-0.37","658","","j","","","","","","","","","","","","","key","j","16.67453703703736","640","396","j","true","img/C_ambi40.png","常人","image_first",""
"","","","","","html-keyboard-response","234","378546","0.0-13.0-0.0-1.0-0.0-1.37","null","<span style='color:GreenYellow; font-size: 70px;'>正确! </span>","null","","","","","","","","","","","","","","","","","","","","","","","feedback_test"
"","","","","","psychophysics","235","380504","0.0-13.0-0.0-1.0-0.0-0.38","806","","f","","","","","","","","","","","","","key","f","16.67448275862061","640","396","j","false","img/S_ambi40.png","坏人","image_first",""
"","","","","","html-keyboard-response","236","380815","0.0-13.0-0.0-1.0-0.0-1.38","null","<span style='color:red; font-size: 70px;'>错误! </span>","null","","","","","","","","","","","","","","","","","","","","","","","feedback_test"
"","","","","","psychophysics","237","382699","0.0-13.0-0.0-1.0-0.0-0.39","726","","f","","","","","","","","","","","","","key","f","16.674616071428837","640","396","f","true","img/S_ambi40.png","好人","image_first",""
"","","","","","html-keyboard-response","238","383003","0.0-13.0-0.0-1.0-0.0-1.39","null","<span style='color:GreenYellow; font-size: 70px;'>正确! </span>","null","","","","","","","","","","","","","","","","","","","","","","","feedback_test"
"","","","","","psychophysics","239","384836","0.0-13.0-0.0-1.0-0.0-0.40","671","","j","","","","","","","","","","","","","key","j","16.674486238531845","640","396","j","true","img/S_ambi40.png","常人","image_first",""
"","","","","","html-keyboard-response","240","385160","0.0-13.0-0.0-1.0-0.0-1.40","null","<span style='color:GreenYellow; font-size: 70px;'>正确! </span>","null","","","","","","","","","","","","","","","","","","","","","","","feedback_test"
"","","","","","psychophysics","241","387033","0.0-13.0-0.0-1.0-0.0-0.41","717","","f","","","","","","","","","","","","","key","f","16.674684684684287","640","396","f","true","img/T_ambi40.png","常人","image_first",""
"","","","","","html-keyboard-response","242","387345","0.0-13.0-0.0-1.0-0.0-1.41","null","<span style='color:GreenYellow; font-size: 70px;'>正确! </span>","null","","","","","","","","","","","","","","","","","","","","","","","feedback_test"
"","","","","","psychophysics","243","389215","0.0-13.0-0.0-1.0-0.0-0.42","714","","j","","","","","","","","","","","","","key","j","16.674432432432113","640","396","j","true","img/T_ambi40.png","好人","image_first",""
"","","","","","html-keyboard-response","244","389535","0.0-13.0-0.0-1.0-0.0-1.42","null","<span style='color:GreenYellow; font-size: 70px;'>正确! </span>","null","","","","","","","","","","","","","","","","","","","","","","","feedback_test"
"","","","","","psychophysics","245","392046","0.0-13.0-0.0-1.0-0.0-0.43","1359","","j","","","","","","","","","","","","","key","j","16.674469798657615","640","396","j","true","img/T_ambi40.png","坏人","image_first",""
"","","","","","html-keyboard-response","246","392366","0.0-13.0-0.0-1.0-0.0-1.43","null","<span style='color:GreenYellow; font-size: 70px;'>正确! </span>","null","","","","","","","","","","","","","","","","","","","","","","","feedback_test"
"","","","","","psychophysics","247","394158","0.0-13.0-0.0-1.0-0.0-0.44","635","","f","","","","","","","","","","","","","key","f","16.674532710280264","640","396","f","true","img/T_ambi40.png","常人","image_first",""
"","","","","","html-keyboard-response","248","394476","0.0-13.0-0.0-1.0-0.0-1.44","null","<span style='color:GreenYellow; font-size: 70px;'>正确! </span>","null","","","","","","","","","","","","","","","","","","","","","","","feedback_test"
"","","","","","psychophysics","249","396452","0.0-13.0-0.0-1.0-0.0-0.45","819","","f","","","","","","","","","","","","","key","f","16.674820512820745","640","396","j","false","img/C_ambi40.png","好人","image_first",""
"","","","","","html-keyboard-response","250","396766","0.0-13.0-0.0-1.0-0.0-1.45","null","<span style='color:red; font-size: 70px;'>错误! </span>","null","","","","","","","","","","","","","","","","","","","","","","","feedback_test"
"","","","","","psychophysics","251","398705","0.0-13.0-0.0-1.0-0.0-0.46","783","","f","","","","","","","","","","","","","key","f","16.674243478260873","640","396","f","true","img/C_ambi40.png","坏人","image_first",""
"","","","","","html-keyboard-response","252","399022","0.0-13.0-0.0-1.0-0.0-1.46","null","<span style='color:GreenYellow; font-size: 70px;'>正确! </span>","null","","","","","","","","","","","","","","","","","","","","","","","feedback_test"
"","","","","","psychophysics","253","400831","0.0-13.0-0.0-1.0-0.0-0.47","657","","j","","","","","","","","","","","","","key","j","16.67479439252317","640","396","f","false","img/C_ambi40.png","坏人","image_first",""
"","","","","","html-keyboard-response","254","401147","0.0-13.0-0.0-1.0-0.0-1.47","null","<span style='color:red; font-size: 70px;'>错误! </span>","null","","","","","","","","","","","","","","","","","","","","","","","feedback_test"
"","","","","","psychophysics","255","403038","0.0-13.0-0.0-1.0-0.0-0.48","733","","f","","","","","","","","","","","","","key","f","16.6744375000001","640","396","f","true","img/S_ambi40.png","好人","image_first",""
"","","","","","html-keyboard-response","256","403350","0.0-13.0-0.0-1.0-0.0-1.48","null","<span style='color:GreenYellow; font-size: 70px;'>正确! </span>","null","","","","","","","","","","","","","","","","","","","","","","","feedback_test"
"","","","","","psychophysics","257","405212","0.0-13.0-0.0-1.0-0.0-0.49","704","","f","","","","","","","","","","","","","key","f","16.674657657658074","640","396","f","true","img/T_ambi40.png","常人","image_first",""
"","","","","","html-keyboard-response","258","405522","0.0-13.0-0.0-1.0-0.0-1.49","null","<span style='color:GreenYellow; font-size: 70px;'>正确! </span>","null","","","","","","","","","","","","","","","","","","","","","","","feedback_test"
"","","","","","psychophysics","259","407324","0.0-13.0-0.0-1.0-0.0-0.50","648","","f","","","","","","","","","","","","","key","f","16.674616822429986","640","396","f","true","img/T_ambi40.png","常人","image_first",""
"","","","","","html-keyboard-response","260","407631","0.0-13.0-0.0-1.0-0.0-1.50","null","<span style='color:GreenYellow; font-size: 70px;'>正确! </span>","null","","","","","","","","","","","","","","","","","","","","","","","feedback_test"
"","","","","","psychophysics","261","409615","0.0-13.0-0.0-1.0-0.0-0.51","828","","j","","","","","","","","","","","","","key","j","16.67447457627109","640","396","j","true","img/S_ambi40.png","常人","image_first",""
"","","","","","html-keyboard-response","262","409928","0.0-13.0-0.0-1.0-0.0-1.51","null","<span style='color:GreenYellow; font-size: 70px;'>正确! </span>","null","","","","","","","","","","","","","","","","","","","","","","","feedback_test"
"","","","","","psychophysics","263","412337","0.0-13.0-0.0-1.0-0.0-0.52","1256","","j","","","","","","","","","","","","","key","j","16.570811188811522","640","396","j","true","img/S_ambi40.png","坏人","image_first",""
"","","","","","html-keyboard-response","264","412646","0.0-13.0-0.0-1.0-0.0-1.52","null","<span style='color:GreenYellow; font-size: 70px;'>正确! </span>","null","","","","","","","","","","","","","","","","","","","","","","","feedback_test"
"","","","","","psychophysics","265","414427","0.0-13.0-0.0-1.0-0.0-0.53","629","","f","","","","","","","","","","","","","key","f","16.675571428571406","640","396","f","true","img/S_ambi40.png","好人","image_first",""
"","","","","","html-keyboard-response","266","414744","0.0-13.0-0.0-1.0-0.0-1.53","null","<span style='color:GreenYellow; font-size: 70px;'>正确! </span>","null","","","","","","","","","","","","","","","","","","","","","","","feedback_test"
"","","","","","psychophysics","267","416607","0.0-13.0-0.0-1.0-0.0-0.54","710","","j","","","","","","","","","","","","","key","j","16.674630630630812","640","396","j","true","img/C_ambi40.png","常人","image_first",""
"","","","","","html-keyboard-response","268","416918","0.0-13.0-0.0-1.0-0.0-1.54","null","<span style='color:GreenYellow; font-size: 70px;'>正确! </span>","null","","","","","","","","","","","","","","","","","","","","","","","feedback_test"
"","","","","","psychophysics","269","419187","0.0-13.0-0.0-1.0-0.0-0.55","1105","","j","","","","","","","","","","","","","key","j","16.675703703703928","640","396","j","true","img/C_ambi40.png","好人","image_first",""
"","","","","","html-keyboard-response","270","419498","0.0-13.0-0.0-1.0-0.0-1.55","null","<span style='color:GreenYellow; font-size: 70px;'>正确! </span>","null","","","","","","","","","","","","","","","","","","","","","","","feedback_test"
"","","","","","psychophysics","271","421613","0.0-13.0-0.0-1.0-0.0-0.56","961","","f","","","","","","","","","","","","","key","f","16.558376000000163","640","396","f","true","img/C_ambi40.png","坏人","image_first",""
"","","","","","html-keyboard-response","272","421935","0.0-13.0-0.0-1.0-0.0-1.56","null","<span style='color:GreenYellow; font-size: 70px;'>正确! </span>","null","","","","","","","","","","","","","","","","","","","","","","","feedback_test"
"","","","","","psychophysics","273","424129","0.0-13.0-0.0-1.0-0.0-0.57","1028","","j","","","","","","","","","","","","","key","j","16.672198473282588","640","396","j","true","img/T_ambi40.png","好人","image_first",""
"","","","","","html-keyboard-response","274","424444","0.0-13.0-0.0-1.0-0.0-1.57","null","<span style='color:GreenYellow; font-size: 70px;'>正确! </span>","null","","","","","","","","","","","","","","","","","","","","","","","feedback_test"
"","","","","","psychophysics","275","426631","0.0-13.0-0.0-1.0-0.0-0.58","1029","","j","","","","","","","","","","","","","key","j","16.674269230769447","640","396","f","false","img/C_ambi40.png","坏人","image_first",""
"","","","","","html-keyboard-response","276","426938","0.0-13.0-0.0-1.0-0.0-1.58","null","<span style='color:red; font-size: 70px;'>错误! </span>","null","","","","","","","","","","","","","","","","","","","","","","","feedback_test"
"","","","","","psychophysics","277","428866","0.0-13.0-0.0-1.0-0.0-0.59","771","","j","","","","","","","","","","","","","key","j","16.67558771929818","640","396","j","true","img/T_ambi40.png","坏人","image_first",""
"","","","","","html-keyboard-response","278","429177","0.0-13.0-0.0-1.0-0.0-1.59","null","<span style='color:GreenYellow; font-size: 70px;'>正确! </span>","null","","","","","","","","","","","","","","","","","","","","","","","feedback_test"
"","","","","","html-keyboard-response","279","430832","0.0-13.0-0.0-1.0-1.0","1651","<style>.context{color:white; font-size: 35px; line-height:40px}</style>                              <div><p class='context'>您正确回答了88% 的试次。</p><p class='context'>您的平均反应时为772毫秒。</p><p class='context'>请按任意键进入休息</p></div>"," ","","","","","","","","","","","","","","","","","","","","","","",""
"","","","","","html-button-response","280","496511","0.0-13.0-0.0-1.0-2.0","65671","
                      <p>您当前还剩余3组实验</p>
                      <p>现在是休息时间，当您结束休息后，您可以点击 结束休息 按钮 继续</p>
                      <p>建议休息时间还剩余<span id=""iii"">60</span>秒</p>","0","","","","","","","","","","","","","","","","","","","","","","",""
"","","","","","psychophysics","281","499171","0.0-13.0-0.0-1.0-0.1-0.60","null","","null","","","","","","","","","","","","","key","null","16.674455696202244","640","396","j","false","img/T_ambi40.png","坏人","image_first",""
"","","","","","html-keyboard-response","282","499486","0.0-13.0-0.0-1.0-0.1-1.60","null","<span class='add_' style='color:yellow; font-size: 70px;'> 太慢! </span>","null","","","","","","","","","","","","","","","","","","","","","","","feedback_test"
"","","","","","psychophysics","283","501508","0.0-13.0-0.0-1.0-0.1-0.61","871","","j","","","","","","","","","","","","","key","j","16.552958333333176","640","396","j","true","img/T_ambi40.png","好人","image_first",""
"","","","","","html-keyboard-response","284","501825","0.0-13.0-0.0-1.0-0.1-1.61","null","<span style='color:GreenYellow; font-size: 70px;'>正确! </span>","null","","","","","","","","","","","","","","","","","","","","","","","feedback_test"
"","","","","","psychophysics","285","503672","0.0-13.0-0.0-1.0-0.1-0.62","691","","f","","","","","","","","","","","","","key","f","16.673908256880786","640","396","f","true","img/S_ambi40.png","好人","image_first",""
"","","","","","html-keyboard-response","286","503986","0.0-13.0-0.0-1.0-0.1-1.62","null","<span style='color:GreenYellow; font-size: 70px;'>正确! </span>","null","","","","","","","","","","","","","","","","","","","","","","","feedback_test"
"","","","","","psychophysics","287","505655","0.0-13.0-0.0-1.0-0.1-0.63","515","","f","","","","","","","","","","","","","key","f","16.675777777777796","640","396","f","true","img/T_ambi40.png","常人","image_first",""
"","","","","","html-keyboard-response","288","505967","0.0-13.0-0.0-1.0-0.1-1.63","null","<span style='color:GreenYellow; font-size: 70px;'>正确! </span>","null","","","","","","","","","","","","","","","","","","","","","","","feedback_test"
"","","","","","psychophysics","289","507877","0.0-13.0-0.0-1.0-0.1-0.64","753","","j","","","","","","","","","","","","","key","j","16.675675438596507","640","396","j","true","img/C_ambi40.png","常人","image_first",""
"","","","","","html-keyboard-response","290","508187","0.0-13.0-0.0-1.0-0.1-1.64","null","<span style='color:GreenYellow; font-size: 70px;'>正确! </span>","null","","","","","","","","","","","","","","","","","","","","","","","feedback_test"
"","","","","","psychophysics","291","509948","0.0-13.0-0.0-1.0-0.1-0.65","606","","f","","","","","","","","","","","","","key","f","16.67515238095241","640","396","f","true","img/T_ambi40.png","常人","image_first",""
"","","","","","html-keyboard-response","292","510254","0.0-13.0-0.0-1.0-0.1-1.65","null","<span style='color:GreenYellow; font-size: 70px;'>正确! </span>","null","","","","","","","","","","","","","","","","","","","","","","","feedback_test"
"","","","","","psychophysics","293","512064","0.0-13.0-0.0-1.0-0.1-0.66","655","","j","","","","","","","","","","","","","key","j","16.67549074074055","640","396","j","true","img/S_ambi40.png","常人","image_first",""
"","","","","","html-keyboard-response","294","512372","0.0-13.0-0.0-1.0-0.1-1.66","null","<span style='color:GreenYellow; font-size: 70px;'>正确! </span>","null","","","","","","","","","","","","","","","","","","","","","","","feedback_test"
"","","","","","psychophysics","295","514434","0.0-13.0-0.0-1.0-0.1-0.67","907","","f","","","","","","","","","","","","","key","f","16.67438211382132","640","396","f","true","img/C_ambi40.png","坏人","image_first",""
"","","","","","html-keyboard-response","296","514747","0.0-13.0-0.0-1.0-0.1-1.67","null","<span style='color:GreenYellow; font-size: 70px;'>正确! </span>","null","","","","","","","","","","","","","","","","","","","","","","","feedback_test"
"","","","","","psychophysics","297","516407","0.0-13.0-0.0-1.0-0.1-0.68","501","","f","","","","","","","","","","","","","key","f","16.674081632652445","640","396","f","true","img/S_ambi40.png","好人","image_first",""
"","","","","","html-keyboard-response","298","516730","0.0-13.0-0.0-1.0-0.1-1.68","null","<span style='color:GreenYellow; font-size: 70px;'>正确! </span>","null","","","","","","","","","","","","","","","","","","","","","","","feedback_test"
"","","","","","psychophysics","299","518495","0.0-13.0-0.0-1.0-0.1-0.69","598","","j","","","","","","","","","","","","","key","j","16.673461538461897","640","396","j","true","img/C_ambi40.png","好人","image_first",""
"","","","","","html-keyboard-response","300","518805","0.0-13.0-0.0-1.0-0.1-1.69","null","<span style='color:GreenYellow; font-size: 70px;'>正确! </span>","null","","","","","","","","","","","","","","","","","","","","","","","feedback_test"
"","","","","","psychophysics","301","521065","0.0-13.0-0.0-1.0-0.1-0.70","1100","","j","","","","","","","","","","","","","key","j","16.67461481481463","640","396","j","true","img/S_ambi40.png","坏人","image_first",""
"","","","","","html-keyboard-response","302","521377","0.0-13.0-0.0-1.0-0.1-1.70","null","<span style='color:GreenYellow; font-size: 70px;'>正确! </span>","null","","","","","","","","","","","","","","","","","","","","","","","feedback_test"
"","","","","","psychophysics","303","523255","0.0-13.0-0.0-1.0-0.1-0.71","722","","j","","","","","","","","","","","","","key","j","16.674571428570612","640","396","f","false","img/C_ambi40.png","坏人","image_first",""
"","","","","","html-keyboard-response","304","523566","0.0-13.0-0.0-1.0-0.1-1.71","null","<span style='color:red; font-size: 70px;'>错误! </span>","null","","","","","","","","","","","","","","","","","","","","","","","feedback_test"
"","","","","","psychophysics","305","525472","0.0-13.0-0.0-1.0-0.1-0.72","747","","j","","","","","","","","","","","","","key","j","16.6742300884963","640","396","j","true","img/C_ambi40.png","常人","image_first",""
"","","","","","html-keyboard-response","306","525789","0.0-13.0-0.0-1.0-0.1-1.72","null","<span style='color:GreenYellow; font-size: 70px;'>正确! </span>","null","","","","","","","","","","","","","","","","","","","","","","","feedback_test"
"","","","","","psychophysics","307","527876","0.0-13.0-0.0-1.0-0.1-0.73","930","","j","","","","","","","","","","","","","key","j","16.67466935483859","640","396","j","true","img/S_ambi40.png","常人","image_first",""
"","","","","","html-keyboard-response","308","528188","0.0-13.0-0.0-1.0-0.1-1.73","null","<span style='color:GreenYellow; font-size: 70px;'>正确! </span>","null","","","","","","","","","","","","","","","","","","","","","","","feedback_test"
"","","","","","psychophysics","309","529939","0.0-13.0-0.0-1.0-0.1-0.74","588","","f","","","","","","","","","","","","","key","f","16.67462499999965","640","396","f","true","img/C_ambi40.png","坏人","image_first",""
"","","","","","html-keyboard-response","310","530245","0.0-13.0-0.0-1.0-0.1-1.74","null","<span style='color:GreenYellow; font-size: 70px;'>正确! </span>","null","","","","","","","","","","","","","","","","","","","","","","","feedback_test"
"","","","","","psychophysics","311","532063","0.0-13.0-0.0-1.0-0.1-0.75","661","","f","","","","","","","","","","","","","key","f","16.675388888889252","640","396","f","true","img/T_ambi40.png","常人","image_first",""
"","","","","","html-keyboard-response","312","532379","0.0-13.0-0.0-1.0-0.1-1.75","null","<span style='color:GreenYellow; font-size: 70px;'>正确! </span>","null","","","","","","","","","","","","","","","","","","","","","","","feedback_test"
"","","","","","psychophysics","313","534145","0.0-13.0-0.0-1.0-0.1-0.76","608","","f","","","","","","","","","","","","","key","f","16.675590476189697","640","396","f","true","img/C_ambi40.png","坏人","image_first",""
"","","","","","html-keyboard-response","314","534462","0.0-13.0-0.0-1.0-0.1-1.76","null","<span style='color:GreenYellow; font-size: 70px;'>正确! </span>","null","","","","","","","","","","","","","","","","","","","","","","","feedback_test"
"","","","","","psychophysics","315","536252","0.0-13.0-0.0-1.0-0.1-0.77","632","","j","","","","","","","","","","","","","key","j","16.674952830189074","640","396","j","true","img/S_ambi40.png","坏人","image_first",""
"","","","","","html-keyboard-response","316","536558","0.0-13.0-0.0-1.0-0.1-1.77","null","<span style='color:GreenYellow; font-size: 70px;'>正确! </span>","null","","","","","","","","","","","","","","","","","","","","","","","feedback_test"
"","","","","","psychophysics","317","538379","0.0-13.0-0.0-1.0-0.1-0.78","647","","f","","","","","","","","","","","","","key","f","16.643574074074557","640","396","f","true","img/S_ambi40.png","好人","image_first",""
"","","","","","html-keyboard-response","318","538695","0.0-13.0-0.0-1.0-0.1-1.78","null","<span style='color:GreenYellow; font-size: 70px;'>正确! </span>","null","","","","","","","","","","","","","","","","","","","","","","","feedback_test"
"","","","","","psychophysics","319","540523","0.0-13.0-0.0-1.0-0.1-0.79","669","","f","","","","","","","","","","","","","key","f","16.675731481481947","640","396","f","true","img/T_ambi40.png","常人","image_first",""
"","","","","","html-keyboard-response","320","540837","0.0-13.0-0.0-1.0-0.1-1.79","null","<span style='color:GreenYellow; font-size: 70px;'>正确! </span>","null","","","","","","","","","","","","","","","","","","","","","","","feedback_test"
"","","","","","psychophysics","321","543115","0.0-13.0-0.0-1.0-0.1-0.80","1125","","f","","","","","","","","","","","","","key","f","16.67439705882348","640","396","f","true","img/S_ambi40.png","好人","image_first",""
"","","","","","html-keyboard-response","322","543430","0.0-13.0-0.0-1.0-0.1-1.80","null","<span style='color:GreenYellow; font-size: 70px;'>正确! </span>","null","","","","","","","","","","","","","","","","","","","","","","","feedback_test"
"","","","","","psychophysics","323","545252","0.0-13.0-0.0-1.0-0.1-0.81","665","","j","","","","","","","","","","","","","key","j","16.674416666667202","640","396","j","true","img/T_ambi40.png","坏人","image_first",""
"","","","","","html-keyboard-response","324","545568","0.0-13.0-0.0-1.0-0.1-1.81","null","<span style='color:GreenYellow; font-size: 70px;'>正确! </span>","null","","","","","","","","","","","","","","","","","","","","","","","feedback_test"
"","","","","","psychophysics","325","547648","0.0-13.0-0.0-1.0-0.1-0.82","922","","j","","","","","","","","","","","","","key","j","16.67433064516198","640","396","j","true","img/C_ambi40.png","好人","image_first",""
"","","","","","html-keyboard-response","326","547964","0.0-13.0-0.0-1.0-0.1-1.82","null","<span style='color:GreenYellow; font-size: 70px;'>正确! </span>","null","","","","","","","","","","","","","","","","","","","","","","","feedback_test"
"","","","","","psychophysics","327","549778","0.0-13.0-0.0-1.0-0.1-0.83","651","","j","","","","","","","","","","","","","key","j","16.675018691589454","640","396","j","true","img/T_ambi40.png","好人","image_first",""
"","","","","","html-keyboard-response","328","550095","0.0-13.0-0.0-1.0-0.1-1.83","null","<span style='color:GreenYellow; font-size: 70px;'>正确! </span>","null","","","","","","","","","","","","","","","","","","","","","","","feedback_test"
"","","","","","psychophysics","329","551918","0.0-13.0-0.0-1.0-0.1-0.84","661","","j","","","","","","","","","","","","","key","j","16.673166666667115","640","396","j","true","img/T_ambi40.png","坏人","image_first",""
"","","","","","html-keyboard-response","330","552231","0.0-13.0-0.0-1.0-0.1-1.84","null","<span style='color:GreenYellow; font-size: 70px;'>正确! </span>","null","","","","","","","","","","","","","","","","","","","","","","","feedback_test"
"","","","","","psychophysics","331","554165","0.0-13.0-0.0-1.0-0.1-0.85","776","","j","","","","","","","","","","","","","key","j","16.67460869565181","640","396","j","true","img/S_ambi40.png","常人","image_first",""
"","","","","","html-keyboard-response","332","554483","0.0-13.0-0.0-1.0-0.1-1.85","null","<span style='color:GreenYellow; font-size: 70px;'>正确! </span>","null","","","","","","","","","","","","","","","","","","","","","","","feedback_test"
"","","","","","psychophysics","333","556260","0.0-13.0-0.0-1.0-0.1-0.86","613","","j","","","","","","","","","","","","","key","j","16.673752380952994","640","396","j","true","img/T_ambi40.png","好人","image_first",""
"","","","","","html-keyboard-response","334","556563","0.0-13.0-0.0-1.0-0.1-1.86","null","<span style='color:GreenYellow; font-size: 70px;'>正确! </span>","null","","","","","","","","","","","","","","","","","","","","","","","feedback_test"
"","","","","","psychophysics","335","558618","0.0-13.0-0.0-1.0-0.1-0.87","902","","j","","","","","","","","","","","","","key","j","16.558851239669774","640","396","j","true","img/S_ambi40.png","坏人","image_first",""
"","","","","","html-keyboard-response","336","558930","0.0-13.0-0.0-1.0-0.1-1.87","null","<span style='color:GreenYellow; font-size: 70px;'>正确! </span>","null","","","","","","","","","","","","","","","","","","","","","","","feedback_test"
"","","","","","psychophysics","337","561013","0.0-13.0-0.0-1.0-0.1-0.88","931","","f","","","","","","","","","","","","","key","f","16.675306451613","640","396","f","true","img/C_ambi40.png","坏人","image_first",""
"","","","","","html-keyboard-response","338","561331","0.0-13.0-0.0-1.0-0.1-1.88","null","<span style='color:GreenYellow; font-size: 70px;'>正确! </span>","null","","","","","","","","","","","","","","","","","","","","","","","feedback_test"
"","","","","","psychophysics","339","563191","0.0-13.0-0.0-1.0-0.1-0.89","707","","f","","","","","","","","","","","","","key","f","16.674675675675374","640","396","f","true","img/S_ambi40.png","好人","image_first",""
"","","","","","html-keyboard-response","340","563501","0.0-13.0-0.0-1.0-0.1-1.89","null","<span style='color:GreenYellow; font-size: 70px;'>正确! </span>","null","","","","","","","","","","","","","","","","","","","","","","","feedback_test"
"","","","","","psychophysics","341","565091","0.0-13.0-0.0-1.0-0.1-0.90","423","","f","","","","","","","","","","","","","key","f","16.674999999999503","640","396","f","true","img/T_ambi40.png","常人","image_first",""
"","","","","","html-keyboard-response","342","565404","0.0-13.0-0.0-1.0-0.1-1.90","null","<span style='color:GreenYellow; font-size: 70px;'>正确! </span>","null","","","","","","","","","","","","","","","","","","","","","","","feedback_test"
"","","","","","psychophysics","343","567269","0.0-13.0-0.0-1.0-0.1-0.91","697","","f","","","","","","","","","","","","","key","f","16.674800000000026","640","396","f","true","img/S_ambi40.png","好人","image_first",""
"","","","","","html-keyboard-response","344","567587","0.0-13.0-0.0-1.0-0.1-1.91","null","<span style='color:GreenYellow; font-size: 70px;'>正确! </span>","null","","","","","","","","","","","","","","","","","","","","","","","feedback_test"
"","","","","","psychophysics","345","569200","0.0-13.0-0.0-1.0-0.1-0.92","452","","f","","","","","","","","","","","","","key","f","16.67468421052602","640","396","f","true","img/C_ambi40.png","坏人","image_first",""
"","","","","","html-keyboard-response","346","569513","0.0-13.0-0.0-1.0-0.1-1.92","null","<span style='color:GreenYellow; font-size: 70px;'>正确! </span>","null","","","","","","","","","","","","","","","","","","","","","","","feedback_test"
"","","","","","psychophysics","347","571277","0.0-13.0-0.0-1.0-0.1-0.93","609","","j","","","","","","","","","","","","","key","j","16.674495238095655","640","396","j","true","img/C_ambi40.png","常人","image_first",""
"","","","","","html-keyboard-response","348","571592","0.0-13.0-0.0-1.0-0.1-1.93","null","<span style='color:GreenYellow; font-size: 70px;'>正确! </span>","null","","","","","","","","","","","","","","","","","","","","","","","feedback_test"
"","","","","","psychophysics","349","573512","0.0-13.0-0.0-1.0-0.1-0.94","762","","j","","","","","","","","","","","","","key","j","16.67474561403485","640","396","j","true","img/C_ambi40.png","好人","image_first",""
"","","","","","html-keyboard-response","350","573827","0.0-13.0-0.0-1.0-0.1-1.94","null","<span style='color:GreenYellow; font-size: 70px;'>正确! </span>","null","","","","","","","","","","","","","","","","","","","","","","","feedback_test"
"","","","","","psychophysics","351","575480","0.0-13.0-0.0-1.0-0.1-0.95","490","","f","","","","","","","","","","","","","key","f","16.673346938775634","640","396","f","true","img/T_ambi40.png","常人","image_first",""
"","","","","","html-keyboard-response","352","575794","0.0-13.0-0.0-1.0-0.1-1.95","null","<span style='color:GreenYellow; font-size: 70px;'>正确! </span>","null","","","","","","","","","","","","","","","","","","","","","","","feedback_test"
"","","","","","psychophysics","353","577586","0.0-13.0-0.0-1.0-0.1-0.96","633","","j","","","","","","","","","","","","","key","j","16.675537735849776","640","396","j","true","img/C_ambi40.png","常人","image_first",""
"","","","","","html-keyboard-response","354","577896","0.0-13.0-0.0-1.0-0.1-1.96","null","<span style='color:GreenYellow; font-size: 70px;'>正确! </span>","null","","","","","","","","","","","","","","","","","","","","","","","feedback_test"
"","","","","","psychophysics","355","579719","0.0-13.0-0.0-1.0-0.1-0.97","664","","j","","","","","","","","","","","","","key","j","16.673805555556168","640","396","j","true","img/T_ambi40.png","好人","image_first",""
"","","","","","html-keyboard-response","356","580040","0.0-13.0-0.0-1.0-0.1-1.97","null","<span style='color:GreenYellow; font-size: 70px;'>正确! </span>","null","","","","","","","","","","","","","","","","","","","","","","","feedback_test"
"","","","","","psychophysics","357","582367","0.0-13.0-0.0-1.0-0.1-0.98","1175","","j","","","","","","","","","","","","","key","j","16.674582733812898","640","396","j","true","img/S_ambi40.png","坏人","image_first",""
"","","","","","html-keyboard-response","358","582679","0.0-13.0-0.0-1.0-0.1-1.98","null","<span style='color:GreenYellow; font-size: 70px;'>正确! </span>","null","","","","","","","","","","","","","","","","","","","","","","","feedback_test"
"","","","","","psychophysics","359","584537","0.0-13.0-0.0-1.0-0.1-0.99","701","","f","","","","","","","","","","","","","key","f","16.673818181818138","640","396","f","true","img/T_ambi40.png","常人","image_first",""
"","","","","","html-keyboard-response","360","584852","0.0-13.0-0.0-1.0-0.1-1.99","null","<span style='color:GreenYellow; font-size: 70px;'>正确! </span>","null","","","","","","","","","","","","","","","","","","","","","","","feedback_test"
"","","","","","psychophysics","361","586790","0.0-13.0-0.0-1.0-0.1-0.100","778","","f","","","","","","","","","","","","","key","f","16.673339130434854","640","396","f","true","img/C_ambi40.png","坏人","image_first",""
"","","","","","html-keyboard-response","362","587110","0.0-13.0-0.0-1.0-0.1-1.100","null","<span style='color:GreenYellow; font-size: 70px;'>正确! </span>","null","","","","","","","","","","","","","","","","","","","","","","","feedback_test"
"","","","","","psychophysics","363","588945","0.0-13.0-0.0-1.0-0.1-0.101","681","","f","","","","","","","","","","","","","key","f","16.54504629629621","640","396","f","true","img/S_ambi40.png","好人","image_first",""
"","","","","","html-keyboard-response","364","589252","0.0-13.0-0.0-1.0-0.1-1.101","null","<span style='color:GreenYellow; font-size: 70px;'>正确! </span>","null","","","","","","","","","","","","","","","","","","","","","","","feedback_test"
"","","","","","psychophysics","365","591330","0.0-13.0-0.0-1.0-0.1-0.102","911","","j","","","","","","","","","","","","","key","j","16.67378861788562","640","396","j","true","img/T_ambi40.png","坏人","image_first",""
"","","","","","html-keyboard-response","366","591640","0.0-13.0-0.0-1.0-0.1-1.102","null","<span style='color:GreenYellow; font-size: 70px;'>正确! </span>","null","","","","","","","","","","","","","","","","","","","","","","","feedback_test"
"","","","","","psychophysics","367","593727","0.0-13.0-0.0-1.0-0.1-0.103","929","","f","","","","","","","","","","","","","key","f","16.675096774193076","640","396","f","true","img/C_ambi40.png","坏人","image_first",""
"","","","","","html-keyboard-response","368","594043","0.0-13.0-0.0-1.0-0.1-1.103","null","<span style='color:GreenYellow; font-size: 70px;'>正确! </span>","null","","","","","","","","","","","","","","","","","","","","","","","feedback_test"
"","","","","","psychophysics","369","595845","0.0-13.0-0.0-1.0-0.1-0.104","646","","f","","","","","","","","","","","","","key","f","16.6742336448591","640","396","f","true","img/S_ambi40.png","好人","image_first",""
"","","","","","html-keyboard-response","370","596168","0.0-13.0-0.0-1.0-0.1-1.104","null","<span style='color:GreenYellow; font-size: 70px;'>正确! </span>","null","","","","","","","","","","","","","","","","","","","","","","","feedback_test"
"","","","","","psychophysics","371","598506","0.0-13.0-0.0-1.0-0.1-0.105","1174","","j","","","","","","","","","","","","","key","j","16.674971223022393","640","396","j","true","img/C_ambi40.png","好人","image_first",""
"","","","","","html-keyboard-response","372","598814","0.0-13.0-0.0-1.0-0.1-1.105","null","<span style='color:GreenYellow; font-size: 70px;'>正确! </span>","null","","","","","","","","","","","","","","","","","","","","","","","feedback_test"
"","","","","","psychophysics","373","600599","0.0-13.0-0.0-1.0-0.1-0.106","630","","f","","","","","","","","","","","","","key","f","16.670533333332944","640","396","f","true","img/T_ambi40.png","常人","image_first",""
"","","","","","html-keyboard-response","374","600913","0.0-13.0-0.0-1.0-0.1-1.106","null","<span style='color:GreenYellow; font-size: 70px;'>正确! </span>","null","","","","","","","","","","","","","","","","","","","","","","","feedback_test"
"","","","","","psychophysics","375","602823","0.0-13.0-0.0-1.0-0.1-0.107","753","","j","","","","","","","","","","","","","key","j","16.675219298246432","640","396","j","true","img/S_ambi40.png","常人","image_first",""
"","","","","","html-keyboard-response","376","603140","0.0-13.0-0.0-1.0-0.1-1.107","null","<span style='color:GreenYellow; font-size: 70px;'>正确! </span>","null","","","","","","","","","","","","","","","","","","","","","","","feedback_test"
"","","","","","psychophysics","377","605614","0.0-13.0-0.0-1.0-0.1-0.108","1315","","f","","","","","","","","","","","","","key","f","16.675102040816263","640","396","f","true","img/S_ambi40.png","好人","image_first",""
"","","","","","html-keyboard-response","378","605934","0.0-13.0-0.0-1.0-0.1-1.108","null","<span style='color:GreenYellow; font-size: 70px;'>正确! </span>","null","","","","","","","","","","","","","","","","","","","","","","","feedback_test"
"","","","","","psychophysics","379","607594","0.0-13.0-0.0-1.0-0.1-0.109","502","","f","","","","","","","","","","","","","key","f","16.67503030303127","640","396","f","true","img/S_ambi40.png","好人","image_first",""
"","","","","","html-keyboard-response","380","607908","0.0-13.0-0.0-1.0-0.1-1.109","null","<span style='color:GreenYellow; font-size: 70px;'>正确! </span>","null","","","","","","","","","","","","","","","","","","","","","","","feedback_test"
"","","","","","psychophysics","381","609583","0.0-13.0-0.0-1.0-0.1-0.110","514","","f","","","","","","","","","","","","","key","f","16.673585858586424","640","396","f","true","img/C_ambi40.png","坏人","image_first",""
"","","","","","html-keyboard-response","382","609901","0.0-13.0-0.0-1.0-0.1-1.110","null","<span style='color:GreenYellow; font-size: 70px;'>正确! </span>","null","","","","","","","","","","","","","","","","","","","","","","","feedback_test"
"","","","","","psychophysics","383","611755","0.0-13.0-0.0-1.0-0.1-0.111","698","","j","","","","","","","","","","","","","key","j","16.673372727272692","640","396","j","true","img/S_ambi40.png","常人","image_first",""
"","","","","","html-keyboard-response","384","612067","0.0-13.0-0.0-1.0-0.1-1.111","null","<span style='color:GreenYellow; font-size: 70px;'>正确! </span>","null","","","","","","","","","","","","","","","","","","","","","","","feedback_test"
"","","","","","psychophysics","385","613991","0.0-13.0-0.0-1.0-0.1-0.112","766","","j","","","","","","","","","","","","","key","j","16.675052631578996","640","396","j","true","img/S_ambi40.png","坏人","image_first",""
"","","","","","html-keyboard-response","386","614312","0.0-13.0-0.0-1.0-0.1-1.112","null","<span style='color:GreenYellow; font-size: 70px;'>正确! </span>","null","","","","","","","","","","","","","","","","","","","","","","","feedback_test"
"","","","","","psychophysics","387","616207","0.0-13.0-0.0-1.0-0.1-0.113","737","","j","","","","","","","","","","","","","key","j","16.674785714285722","640","396","j","true","img/T_ambi40.png","坏人","image_first",""
"","","","","","html-keyboard-response","388","616524","0.0-13.0-0.0-1.0-0.1-1.113","null","<span style='color:GreenYellow; font-size: 70px;'>正确! </span>","null","","","","","","","","","","","","","","","","","","","","","","","feedback_test"
"","","","","","psychophysics","389","618489","0.0-13.0-0.0-1.0-0.1-0.114","812","","f","","","","","","","","","","","","","key","f","16.67582051282048","640","396","f","true","img/C_ambi40.png","坏人","image_first",""
"","","","","","html-keyboard-response","390","618807","0.0-13.0-0.0-1.0-0.1-1.114","null","<span style='color:GreenYellow; font-size: 70px;'>正确! </span>","null","","","","","","","","","","","","","","","","","","","","","","","feedback_test"
"","","","","","psychophysics","391","620572","0.0-13.0-0.0-1.0-0.1-0.115","611","","f","","","","","","","","","","","","","key","f","16.67440000000033","640","396","f","true","img/T_ambi40.png","常人","image_first",""
"","","","","","html-keyboard-response","392","620889","0.0-13.0-0.0-1.0-0.1-1.115","null","<span style='color:GreenYellow; font-size: 70px;'>正确! </span>","null","","","","","","","","","","","","","","","","","","","","","","","feedback_test"
"","","","","","psychophysics","393","622638","0.0-13.0-0.0-1.0-0.1-0.116","593","","f","","","","","","","","","","","","","key","f","16.674163461538576","640","396","f","true","img/T_ambi40.png","常人","image_first",""
"","","","","","html-keyboard-response","394","622954","0.0-13.0-0.0-1.0-0.1-1.116","null","<span style='color:GreenYellow; font-size: 70px;'>正确! </span>","null","","","","","","","","","","","","","","","","","","","","","","","feedback_test"
"","","","","","psychophysics","395","624699","0.0-13.0-0.0-1.0-0.1-0.117","587","","j","","","","","","","","","","","","","key","j","16.67490384615443","640","396","j","true","img/T_ambi40.png","好人","image_first",""
"","","","","","html-keyboard-response","396","625006","0.0-13.0-0.0-1.0-0.1-1.117","null","<span style='color:GreenYellow; font-size: 70px;'>正确! </span>","null","","","","","","","","","","","","","","","","","","","","","","","feedback_test"
"","","","","","psychophysics","397","627217","0.0-13.0-0.0-1.0-0.1-0.118","1053","","j","","","","","","","","","","","","","key","j","16.67513636363649","640","396","j","true","img/C_ambi40.png","常人","image_first",""
"","","","","","html-keyboard-response","398","627529","0.0-13.0-0.0-1.0-0.1-1.118","null","<span style='color:GreenYellow; font-size: 70px;'>正确! </span>","null","","","","","","","","","","","","","","","","","","","","","","","feedback_test"
"","","","","","psychophysics","399","629447","0.0-13.0-0.0-1.0-0.1-0.119","765","","f","","","","","","","","","","","","","key","f","16.672324561403673","640","396","j","false","img/C_ambi40.png","好人","image_first",""
"","","","","","html-keyboard-response","400","629764","0.0-13.0-0.0-1.0-0.1-1.119","null","<span style='color:red; font-size: 70px;'>错误! </span>","null","","","","","","","","","","","","","","","","","","","","","","","feedback_test"
"","","","","","html-keyboard-response","401","631055","0.0-13.0-0.0-1.0-1.1","1287","<style>.context{color:white; font-size: 35px; line-height:40px}</style>                              <div><p class='context'>您正确回答了95% 的试次。</p><p class='context'>您的平均反应时为736毫秒。</p><p class='context'>请按任意键进入休息</p></div>"," ","","","","","","","","","","","","","","","","","","","","","","",""
"","","","","","html-button-response","402","694071","0.0-13.0-0.0-1.0-2.1","63010","
                      <p>您当前还剩余2组实验</p>
                      <p>现在是休息时间，当您结束休息后，您可以点击 结束休息 按钮 继续</p>
                      <p>建议休息时间还剩余<span id=""iii"">60</span>秒</p>","0","","","","","","","","","","","","","","","","","","","","","","",""
"","","","","","psychophysics","403","696043","0.0-13.0-0.0-1.0-0.2-0.120","814","","f","","","","","","","","","","","","","key","f","16.676060344827167","640","396","f","true","img/T_ambi40.png","常人","image_first",""
"","","","","","html-keyboard-response","404","696345","0.0-13.0-0.0-1.0-0.2-1.120","null","<span style='color:GreenYellow; font-size: 70px;'>正确! </span>","null","","","","","","","","","","","","","","","","","","","","","","","feedback_test"
"","","","","","psychophysics","405","698998","0.0-13.0-0.0-1.0-0.2-0.121","null","","null","","","","","","","","","","","","","key","null","16.673904458598447","640","396","j","false","img/S_ambi40.png","常人","image_first",""
"","","","","","html-keyboard-response","406","699314","0.0-13.0-0.0-1.0-0.2-1.121","null","<span class='add_' style='color:yellow; font-size: 70px;'> 太慢! </span>","null","","","","","","","","","","","","","","","","","","","","","","","feedback_test"
"","","","","","psychophysics","407","701152","0.0-13.0-0.0-1.0-0.2-0.122","687","","f","","","","","","","","","","","","","key","f","16.53696296296268","640","396","f","true","img/S_ambi40.png","好人","image_first",""
"","","","","","html-keyboard-response","408","701467","0.0-13.0-0.0-1.0-0.2-1.122","null","<span style='color:GreenYellow; font-size: 70px;'>正确! </span>","null","","","","","","","","","","","","","","","","","","","","","","","feedback_test"
"","","","","","psychophysics","409","703239","0.0-13.0-0.0-1.0-0.2-0.123","610","","f","","","","","","","","","","","","","key","f","16.674561904761052","640","396","f","true","img/C_ambi40.png","坏人","image_first",""
"","","","","","html-keyboard-response","410","703554","0.0-13.0-0.0-1.0-0.2-1.123","null","<span style='color:GreenYellow; font-size: 70px;'>正确! </span>","null","","","","","","","","","","","","","","","","","","","","","","","feedback_test"
"","","","","","psychophysics","411","705490","0.0-13.0-0.0-1.0-0.2-0.124","772","","j","","","","","","","","","","","","","key","j","16.674443478260756","640","396","j","true","img/S_ambi40.png","坏人","image_first",""
"","","","","","html-keyboard-response","412","705806","0.0-13.0-0.0-1.0-0.2-1.124","null","<span style='color:GreenYellow; font-size: 70px;'>正确! </span>","null","","","","","","","","","","","","","","","","","","","","","","","feedback_test"
"","","","","","psychophysics","413","707518","0.0-13.0-0.0-1.0-0.2-0.125","555","","f","","","","","","","","","","","","","key","f","16.66378217821798","640","396","f","true","img/T_ambi40.png","常人","image_first",""
"","","","","","html-keyboard-response","414","707839","0.0-13.0-0.0-1.0-0.2-1.125","null","<span style='color:GreenYellow; font-size: 70px;'>正确! </span>","null","","","","","","","","","","","","","","","","","","","","","","","feedback_test"
"","","","","","psychophysics","415","709620","0.0-13.0-0.0-1.0-0.2-0.126","617","","f","","","","","","","","","","","","","key","f","16.67488571428583","640","396","f","true","img/S_ambi40.png","好人","image_first",""
"","","","","","html-keyboard-response","416","709932","0.0-13.0-0.0-1.0-0.2-1.126","null","<span style='color:GreenYellow; font-size: 70px;'>正确! </span>","null","","","","","","","","","","","","","","","","","","","","","","","feedback_test"
"","","","","","psychophysics","417","711484","0.0-13.0-0.0-1.0-0.2-0.127","396","","f","","","","","","","","","","","","","key","f","16.67510869565202","640","396","f","true","img/C_ambi40.png","坏人","image_first",""
"","","","","","html-keyboard-response","418","711795","0.0-13.0-0.0-1.0-0.2-1.127","null","<span style='color:GreenYellow; font-size: 70px;'>正确! </span>","null","","","","","","","","","","","","","","","","","","","","","","","feedback_test"
"","","","","","psychophysics","419","713592","0.0-13.0-0.0-1.0-0.2-0.128","635","","j","","","","","","","","","","","","","key","j","16.67557943925244","640","396","j","true","img/C_ambi40.png","常人","image_first",""
"","","","","","html-keyboard-response","420","713907","0.0-13.0-0.0-1.0-0.2-1.128","null","<span style='color:GreenYellow; font-size: 70px;'>正确! </span>","null","","","","","","","","","","","","","","","","","","","","","","","feedback_test"
"","","","","","psychophysics","421","716162","0.0-13.0-0.0-1.0-0.2-0.129","1089","","j","","","","","","","","","","","","","key","j","16.673716417910818","640","396","j","true","img/T_ambi40.png","坏人","image_first",""
"","","","","","html-keyboard-response","422","716481","0.0-13.0-0.0-1.0-0.2-1.129","null","<span style='color:GreenYellow; font-size: 70px;'>正确! </span>","null","","","","","","","","","","","","","","","","","","","","","","","feedback_test"
"","","","","","psychophysics","423","718447","0.0-13.0-0.0-1.0-0.2-0.130","807","","j","","","","","","","","","","","","","key","j","16.671615384615617","640","396","j","true","img/C_ambi40.png","好人","image_first",""
"","","","","","html-keyboard-response","424","718765","0.0-13.0-0.0-1.0-0.2-1.130","null","<span style='color:GreenYellow; font-size: 70px;'>正确! </span>","null","","","","","","","","","","","","","","","","","","","","","","","feedback_test"
"","","","","","psychophysics","425","720501","0.0-13.0-0.0-1.0-0.2-0.131","576","","j","","","","","","","","","","","","","key","j","16.67441747572784","640","396","j","true","img/T_ambi40.png","好人","image_first",""
"","","","","","html-keyboard-response","426","720823","0.0-13.0-0.0-1.0-0.2-1.131","null","<span style='color:GreenYellow; font-size: 70px;'>正确! </span>","null","","","","","","","","","","","","","","","","","","","","","","","feedback_test"
"","","","","","psychophysics","427","722525","0.0-13.0-0.0-1.0-0.2-0.132","549","","j","","","","","","","","","","","","","key","j","16.675188118812056","640","396","j","true","img/C_ambi40.png","好人","image_first",""
"","","","","","html-keyboard-response","428","722840","0.0-13.0-0.0-1.0-0.2-1.132","null","<span style='color:GreenYellow; font-size: 70px;'>正确! </span>","null","","","","","","","","","","","","","","","","","","","","","","","feedback_test"
"","","","","","psychophysics","429","724688","0.0-13.0-0.0-1.0-0.2-0.133","695","","j","","","","","","","","","","","","","key","j","16.674636363637084","640","396","j","true","img/S_ambi40.png","坏人","image_first",""
"","","","","","html-keyboard-response","430","725006","0.0-13.0-0.0-1.0-0.2-1.133","null","<span style='color:GreenYellow; font-size: 70px;'>正确! </span>","null","","","","","","","","","","","","","","","","","","","","","","","feedback_test"
"","","","","","psychophysics","431","726734","0.0-13.0-0.0-1.0-0.2-0.134","572","","f","","","","","","","","","","","","","key","f","16.673553398058715","640","396","f","true","img/C_ambi40.png","坏人","image_first",""
