"success","timeout","failed_images","failed_audio","failed_video","trial_type","trial_index","time_elapsed","internal_node_id","rt","stimulus","response","value","item_width_mm","item_height_mm","item_width_px","px2mm","view_dist_mm","item_width_deg","px2deg","scale_factor","win_width_deg","win_height_deg","view_history","response_type","key_press","avg_frame_time","center_x","center_y","correct_response","correct","Image","word","condition","screen_id"
"true","false","[]","[]","[]","preload","0","1761","0.0-0.0","","","","","","","","","","","","","","","","","","","","","","","","","",""
"","","","","","html-keyboard-response","1","6426","0.0-1.0","4665","
     <p>您好，欢迎参加本次实验。</p>
     <p>为充分保障您的权利，请确保您已经知晓并同意《参与实验同意书》以及《数据公开知情同意书》。</p>
     <p>如果您未见过上述内容，请咨询实验员。</p>
     <p>如果您选择继续实验，则表示您已经清楚两份知情同意书的内容并同意。</p>
     <p> <div style = ""color: green""><按任意键至下页></div> </p>
     ","l","","","","","","","","","","","","","","","","","","","","","","",""
"","","","","","html-keyboard-response","2","8946","0.0-2.0","2519","
     <p>本实验首先需要您填写一些基本个人信息。</p>
     <p> <div style = ""color: green""><按任意键至下页></div></p>
     ","l","","","","","","","","","","","","","","","","","","","","","","",""
"","","","","","call-function","3","8946","0.0-3.0-0.0","","","","","","","","","","","","","","","","","","","","","","","","","",""
"","","","","","survey-html-form","4","16758","0.0-3.0-1.0","7811","","{""Q0"":""39""}","","","","","","","","","","","","","","","","","","","","","","",""
"","","","","","html-button-response","5","17946","0.0-3.0-2.0","1187","<p style = 'color : white'>您的性别</p>","1","","","","","","","","","","","","","","","","","","","","","","",""
"","","","","","survey-html-form","6","25034","0.0-3.0-3.0","7087","","{""Q0"":""2000""}","","","","","","","","","","","","","","","","","","","","","","",""
"","","","","","survey-html-form","7","27912","0.0-3.0-4.0","2877","","{""Q0"":""5""}","","","","","","","","","","","","","","","","","","","","","","",""
"","","","","","virtual-chinrest","8","94765","0.0-4.0","66851","","","","85.6","53.98","454.9365503952164","5.311501477552397","537.9","9.098731007904327","50","0.8528661846645061","30.72","14.44","","","","","","","","","","","",""
"true","","","","","fullscreen","9","102587","0.0-5.0","","","","","","","","","","","","","","","","","","","","","","","","","",""
"","","","","","instructions","10","165421","0.0-6.0","62833","","","","","","","","","","","","","","[{""page_index"":0,""viewing_time"":7052},{""page_index"":1,""viewing_time"":38912},{""page_index"":2,""viewing_time"":13272},{""page_index"":3,""viewing_time"":3597}]","","","","","","","","","","",""
"","","","","","psychophysics","11","168085","0.0-7.0-0.0-0.0","null","","null","","","","","","","","","","","","","key","null","16.669417721518872","768","428","f","false","img/T_ambi40.png","坏人","prac_image_first",""
"","","","","","html-keyboard-response","12","168390","0.0-7.0-0.0-1.0","null","<span class='add_' style='color:yellow; font-size: 70px;'> 太慢! </span>","null","","","","","","","","","","","","","","","","","","","","","","","feedback_test"
"","","","","","psychophysics","13","170660","0.0-7.0-0.0-0.1","1107","","j","","","","","","","","","","","","","key","j","16.669511111111042","768","428","j","true","img/C_ambi40.png","常人","prac_image_first",""
"","","","","","html-keyboard-response","14","170965","0.0-7.0-0.0-1.1","null","<span style='color:GreenYellow; font-size: 70px;'>正确! </span>","null","","","","","","","","","","","","","","","","","","","","","","","feedback_test"
"","","","","","psychophysics","15","172631","0.0-7.0-0.0-0.2","513","","j","","","","","","","","","","","","","key","j","16.668404040403953","768","428","j","true","img/C_ambi40.png","常人","prac_image_first",""
"","","","","","html-keyboard-response","16","172945","0.0-7.0-0.0-1.2","null","<span style='color:GreenYellow; font-size: 70px;'>正确! </span>","null","","","","","","","","","","","","","","","","","","","","","","","feedback_test"
"","","","","","psychophysics","17","174696","0.0-7.0-0.0-0.3","594","","f","","","","","","","","","","","","","key","f","16.66830769230756","768","428","j","false","img/S_ambi40.png","坏人","prac_image_first",""
"","","","","","html-keyboard-response","18","175001","0.0-7.0-0.0-1.3","null","<span style='color:red; font-size: 70px;'>错误! </span>","null","","","","","","","","","","","","","","","","","","","","","","","feedback_test"
"","","","","","psychophysics","19","177081","0.0-7.0-0.0-0.4","929","","f","","","","","","","","","","","","","key","f","16.55585365853655","768","428","f","true","img/S_ambi40.png","好人","prac_image_first",""
"","","","","","html-keyboard-response","20","177402","0.0-7.0-0.0-1.4","null","<span style='color:GreenYellow; font-size: 70px;'>正确! </span>","null","","","","","","","","","","","","","","","","","","","","","","","feedback_test"
"","","","","","psychophysics","21","179301","0.0-7.0-0.0-0.5","732","","j","","","","","","","","","","","","","key","j","16.671116071428383","768","428","f","false","img/T_ambi40.png","常人","prac_image_first",""
"","","","","","html-keyboard-response","22","179614","0.0-7.0-0.0-1.5","null","<span style='color:red; font-size: 70px;'>错误! </span>","null","","","","","","","","","","","","","","","","","","","","","","","feedback_test"
"","","","","","psychophysics","23","181864","0.0-7.0-0.0-0.6","1095","","f","","","","","","","","","","","","","key","f","16.667611940298446","768","428","f","true","img/C_ambi40.png","好人","prac_image_first",""
"","","","","","html-keyboard-response","24","182165","0.0-7.0-0.0-1.6","null","<span style='color:GreenYellow; font-size: 70px;'>正确! </span>","null","","","","","","","","","","","","","","","","","","","","","","","feedback_test"
"","","","","","psychophysics","25","184435","0.0-7.0-0.0-0.7","1116","","f","","","","","","","","","","","","","key","f","16.668044444444348","768","428","f","true","img/S_ambi40.png","常人","prac_image_first",""
"","","","","","html-keyboard-response","26","184741","0.0-7.0-0.0-1.7","null","<span style='color:GreenYellow; font-size: 70px;'>正确! </span>","null","","","","","","","","","","","","","","","","","","","","","","","feedback_test"
"","","","","","psychophysics","27","186673","0.0-7.0-0.0-0.8","778","","f","","","","","","","","","","","","","key","f","16.667982608695645","768","428","f","true","img/C_ambi40.png","坏人","prac_image_first",""
"","","","","","html-keyboard-response","28","186994","0.0-7.0-0.0-1.8","null","<span style='color:GreenYellow; font-size: 70px;'>正确! </span>","null","","","","","","","","","","","","","","","","","","","","","","","feedback_test"
"","","","","","psychophysics","29","188983","0.0-7.0-0.0-0.9","830","","j","","","","","","","","","","","","","key","j","16.667313559322174","768","428","j","true","img/T_ambi40.png","好人","prac_image_first",""
"","","","","","html-keyboard-response","30","189289","0.0-7.0-0.0-1.9","null","<span style='color:GreenYellow; font-size: 70px;'>正确! </span>","null","","","","","","","","","","","","","","","","","","","","","","","feedback_test"
"","","","","","psychophysics","31","191026","0.0-7.0-0.0-0.10","579","","j","","","","","","","","","","","","","key","j","16.66693203883484","768","428","j","true","img/T_ambi40.png","好人","prac_image_first",""
"","","","","","html-keyboard-response","32","191347","0.0-7.0-0.0-1.10","null","<span style='color:GreenYellow; font-size: 70px;'>正确! </span>","null","","","","","","","","","","","","","","","","","","","","","","","feedback_test"
"","","","","","psychophysics","33","193066","0.0-7.0-0.0-0.11","563","","f","","","","","","","","","","","","","key","f","16.667852941176605","768","428","j","false","img/S_ambi40.png","坏人","prac_image_first",""
"","","","","","html-keyboard-response","34","193378","0.0-7.0-0.0-1.11","null","<span style='color:red; font-size: 70px;'>错误! </span>","null","","","","","","","","","","","","","","","","","","","","","","","feedback_test"
"","","","","","psychophysics","35","195383","0.0-7.0-0.0-0.12","848","","f","","","","","","","","","","","","","key","f","16.667537815126096","768","428","f","true","img/T_ambi40.png","常人","prac_image_first",""
"","","","","","html-keyboard-response","36","195686","0.0-7.0-0.0-1.12","null","<span style='color:GreenYellow; font-size: 70px;'>正确! </span>","null","","","","","","","","","","","","","","","","","","","","","","","feedback_test"
"","","","","","psychophysics","37","197533","0.0-7.0-0.0-0.13","696","","j","","","","","","","","","","","","","key","j","16.66736697247695","768","428","j","true","img/T_ambi40.png","好人","prac_image_first",""
"","","","","","html-keyboard-response","38","197844","0.0-7.0-0.0-1.13","null","<span style='color:GreenYellow; font-size: 70px;'>正确! </span>","null","","","","","","","","","","","","","","","","","","","","","","","feedback_test"
"","","","","","psychophysics","39","199478","0.0-7.0-0.0-0.14","480","","f","","","","","","","","","","","","","key","f","16.667618556700937","768","428","j","false","img/S_ambi40.png","坏人","prac_image_first",""
"","","","","","html-keyboard-response","40","199786","0.0-7.0-0.0-1.14","null","<span style='color:red; font-size: 70px;'>错误! </span>","null","","","","","","","","","","","","","","","","","","","","","","","feedback_test"
"","","","","","psychophysics","41","201975","0.0-7.0-0.0-0.15","1037","","f","","","","","","","","","","","","","key","f","16.66768461538461","768","428","f","true","img/C_ambi40.png","好人","prac_image_first",""
"","","","","","html-keyboard-response","42","202290","0.0-7.0-0.0-1.15","null","<span style='color:GreenYellow; font-size: 70px;'>正确! </span>","null","","","","","","","","","","","","","","","","","","","","","","","feedback_test"
"","","","","","psychophysics","43","204797","0.0-7.0-0.0-0.16","1346","","j","","","","","","","","","","","","","key","j","16.66720134228188","768","428","f","false","img/S_ambi40.png","常人","prac_image_first",""
"","","","","","html-keyboard-response","44","205114","0.0-7.0-0.0-1.16","null","<span style='color:red; font-size: 70px;'>错误! </span>","null","","","","","","","","","","","","","","","","","","","","","","","feedback_test"
"","","","","","psychophysics","45","207548","0.0-7.0-0.0-0.17","1278","","f","","","","","","","","","","","","","key","f","16.66754482758637","768","428","j","false","img/T_ambi40.png","好人","prac_image_first",""
"","","","","","html-keyboard-response","46","207856","0.0-7.0-0.0-1.17","null","<span style='color:red; font-size: 70px;'>错误! </span>","null","","","","","","","","","","","","","","","","","","","","","","","feedback_test"
"","","","","","psychophysics","47","210216","0.0-7.0-0.0-0.18","1195","","j","","","","","","","","","","","","","key","j","16.667821428571397","768","428","j","true","img/S_ambi40.png","坏人","prac_image_first",""
"","","","","","html-keyboard-response","48","210528","0.0-7.0-0.0-1.18","null","<span style='color:GreenYellow; font-size: 70px;'>正确! </span>","null","","","","","","","","","","","","","","","","","","","","","","","feedback_test"
"","","","","","psychophysics","49","213187","0.0-7.0-0.0-0.19","null","","null","","","","","","","","","","","","","key","null","16.667335443037874","768","428","f","false","img/S_ambi40.png","好人","prac_image_first",""
"","","","","","html-keyboard-response","50","213493","0.0-7.0-0.0-1.19","null","<span class='add_' style='color:yellow; font-size: 70px;'> 太慢! </span>","null","","","","","","","","","","","","","","","","","","","","","","","feedback_test"
"","","","","","psychophysics","51","215713","0.0-7.0-0.0-0.20","1066","","f","","","","","","","","","","","","","key","f","16.66738636363637","768","428","j","false","img/C_ambi40.png","常人","prac_image_first",""
"","","","","","html-keyboard-response","52","216024","0.0-7.0-0.0-1.20","null","<span style='color:red; font-size: 70px;'>错误! </span>","null","","","","","","","","","","","","","","","","","","","","","","","feedback_test"
"","","","","","psychophysics","53","218293","0.0-7.0-0.0-0.21","1105","","j","","","","","","","","","","","","","key","j","16.66772592592579","768","428","j","true","img/C_ambi40.png","常人","prac_image_first",""
"","","","","","html-keyboard-response","54","218598","0.0-7.0-0.0-1.21","null","<span style='color:GreenYellow; font-size: 70px;'>正确! </span>","null","","","","","","","","","","","","","","","","","","","","","","","feedback_test"
"","","","","","psychophysics","55","220398","0.0-7.0-0.0-0.22","644","","f","","","","","","","","","","","","","key","f","16.667467289719575","768","428","f","true","img/C_ambi40.png","坏人","prac_image_first",""
"","","","","","html-keyboard-response","56","220707","0.0-7.0-0.0-1.22","null","<span style='color:GreenYellow; font-size: 70px;'>正确! </span>","null","","","","","","","","","","","","","","","","","","","","","","","feedback_test"
"","","","","","psychophysics","57","222483","0.0-7.0-0.0-0.23","612","","f","","","","","","","","","","","","","key","f","16.66969523809523","768","428","f","true","img/T_ambi40.png","坏人","prac_image_first",""
"","","","","","html-keyboard-response","58","222789","0.0-7.0-0.0-1.23","null","<span style='color:GreenYellow; font-size: 70px;'>正确! </span>","null","","","","","","","","","","","","","","","","","","","","","","","feedback_test"
"","","","","","html-keyboard-response","59","229289","0.0-8.0","6498","<style>.context{color:white; font-size: 35px; line-height:40px}</style>                              <div><p class='context'>您正确回答了63% 的试次。</p><p class='context'>您的平均反应时为872毫秒。</p><p class='context'>恭喜您完成这一阶段的练习。按任意键进入<span style='color: yellow;'>先文字后图形条件</span>的练习。</p></div>","j","","","","","","","","","","","","","","","","","","","","","","",""
"","","","","","psychophysics","60","231206","0.0-9.0-0.0-0.0","755","","f","","","","","","","","","","","","","key","f","16.667964912280585","768","428","f","true","img/C_ambi40.png","好人","prac_word_first",""
"","","","","","html-keyboard-response","61","231517","0.0-9.0-0.0-1.0","null","<span style='color:GreenYellow; font-size: 70px;'>正确! </span>","null","","","","","","","","","","","","","","","","","","","","","","","feedback_test"
"","","","","","psychophysics","62","233468","0.0-9.0-0.0-0.1","796","","f","","","","","","","","","","","","","key","f","16.66824137931012","768","428","f","true","img/S_ambi40.png","好人","prac_word_first",""
"","","","","","html-keyboard-response","63","233780","0.0-9.0-0.0-1.1","null","<span style='color:GreenYellow; font-size: 70px;'>正确! </span>","null","","","","","","","","","","","","","","","","","","","","","","","feedback_test"
"","","","","","psychophysics","64","236043","0.0-9.0-0.0-0.2","1109","","f","","","","","","","","","","","","","key","f","16.667488888888922","768","428","f","true","img/S_ambi40.png","常人","prac_word_first",""
"","","","","","html-keyboard-response","65","236357","0.0-9.0-0.0-1.2","null","<span style='color:GreenYellow; font-size: 70px;'>正确! </span>","null","","","","","","","","","","","","","","","","","","","","","","","feedback_test"
"","","","","","psychophysics","66","238408","0.0-9.0-0.0-0.3","886","","f","","","","","","","","","","","","","key","f","16.669672131147397","768","428","f","true","img/T_ambi40.png","常人","prac_word_first",""
"","","","","","html-keyboard-response","67","238712","0.0-9.0-0.0-1.3","null","<span style='color:GreenYellow; font-size: 70px;'>正确! </span>","null","","","","","","","","","","","","","","","","","","","","","","","feedback_test"
"","","","","","psychophysics","68","240423","0.0-9.0-0.0-0.4","551","","f","","","","","","","","","","","","","key","f","16.66749019607817","768","428","f","true","img/C_ambi40.png","坏人","prac_word_first",""
"","","","","","html-keyboard-response","69","240735","0.0-9.0-0.0-1.4","null","<span style='color:GreenYellow; font-size: 70px;'>正确! </span>","null","","","","","","","","","","","","","","","","","","","","","","","feedback_test"
"","","","","","psychophysics","70","242482","0.0-9.0-0.0-0.5","593","","j","","","","","","","","","","","","","key","j","16.66751923076943","768","428","j","true","img/T_ambi40.png","好人","prac_word_first",""
"","","","","","html-keyboard-response","71","242802","0.0-9.0-0.0-1.5","null","<span style='color:GreenYellow; font-size: 70px;'>正确! </span>","null","","","","","","","","","","","","","","","","","","","","","","","feedback_test"
"","","","","","psychophysics","72","245042","0.0-9.0-0.0-0.6","1086","","j","","","","","","","","","","","","","key","j","16.66797761194023","768","428","j","true","img/T_ambi40.png","好人","prac_word_first",""
"","","","","","html-keyboard-response","73","245364","0.0-9.0-0.0-1.6","null","<span style='color:GreenYellow; font-size: 70px;'>正确! </span>","null","","","","","","","","","","","","","","","","","","","","","","","feedback_test"
"","","","","","psychophysics","74","247584","0.0-9.0-0.0-0.7","1066","","f","","","","","","","","","","","","","key","f","16.667181818181813","768","428","j","false","img/S_ambi40.png","坏人","prac_word_first",""
"","","","","","html-keyboard-response","75","247891","0.0-9.0-0.0-1.7","null","<span style='color:red; font-size: 70px;'>错误! </span>","null","","","","","","","","","","","","","","","","","","","","","","","feedback_test"
"","","","","","psychophysics","76","249977","0.0-9.0-0.0-0.8","921","","f","","","","","","","","","","","","","key","f","16.666588709677473","768","428","f","true","img/T_ambi40.png","坏人","prac_word_first",""
"","","","","","html-keyboard-response","77","250291","0.0-9.0-0.0-1.8","null","<span style='color:GreenYellow; font-size: 70px;'>正确! </span>","null","","","","","","","","","","","","","","","","","","","","","","","feedback_test"
"","","","","","psychophysics","78","252067","0.0-9.0-0.0-0.9","618","","j","","","","","","","","","","","","","key","j","16.66819999999993","768","428","j","true","img/C_ambi40.png","常人","prac_word_first",""
"","","","","","html-keyboard-response","79","252377","0.0-9.0-0.0-1.9","null","<span style='color:GreenYellow; font-size: 70px;'>正确! </span>","null","","","","","","","","","","","","","","","","","","","","","","","feedback_test"
"","","","","","psychophysics","80","254085","0.0-9.0-0.0-0.10","545","","f","","","","","","","","","","","","","key","f","16.667831683168327","768","428","j","false","img/S_ambi40.png","坏人","prac_word_first",""
"","","","","","html-keyboard-response","81","254404","0.0-9.0-0.0-1.10","null","<span style='color:red; font-size: 70px;'>错误! </span>","null","","","","","","","","","","","","","","","","","","","","","","","feedback_test"
"","","","","","psychophysics","82","255968","0.0-9.0-0.0-0.11","411","","j","","","","","","","","","","","","","key","j","16.668118279569992","768","428","j","true","img/C_ambi40.png","常人","prac_word_first",""
"","","","","","html-keyboard-response","83","256281","0.0-9.0-0.0-1.11","null","<span style='color:GreenYellow; font-size: 70px;'>正确! </span>","null","","","","","","","","","","","","","","","","","","","","","","","feedback_test"
"","","","","","psychophysics","84","257847","0.0-9.0-0.0-0.12","408","","f","","","","","","","","","","","","","key","f","16.6692365591398","768","428","j","false","img/S_ambi40.png","坏人","prac_word_first",""
"","","","","","html-keyboard-response","85","258164","0.0-9.0-0.0-1.12","null","<span style='color:red; font-size: 70px;'>错误! </span>","null","","","","","","","","","","","","","","","","","","","","","","","feedback_test"
"","","","","","psychophysics","86","259748","0.0-9.0-0.0-0.13","424","","j","","","","","","","","","","","","","key","j","16.66755319148936","768","428","f","false","img/S_ambi40.png","好人","prac_word_first",""
"","","","","","html-keyboard-response","87","260068","0.0-9.0-0.0-1.13","null","<span style='color:red; font-size: 70px;'>错误! </span>","null","","","","","","","","","","","","","","","","","","","","","","","feedback_test"
"","","","","","psychophysics","88","261851","0.0-9.0-0.0-0.14","627","","f","","","","","","","","","","","","","key","f","16.668499999999767","768","428","f","true","img/C_ambi40.png","好人","prac_word_first",""
"","","","","","html-keyboard-response","89","262158","0.0-9.0-0.0-1.14","null","<span style='color:GreenYellow; font-size: 70px;'>正确! </span>","null","","","","","","","","","","","","","","","","","","","","","","","feedback_test"
"","","","","","psychophysics","90","264111","0.0-9.0-0.0-0.15","797","","j","","","","","","","","","","","","","key","j","16.667327586206675","768","428","j","true","img/T_ambi40.png","好人","prac_word_first",""
"","","","","","html-keyboard-response","91","264424","0.0-9.0-0.0-1.15","null","<span style='color:GreenYellow; font-size: 70px;'>正确! </span>","null","","","","","","","","","","","","","","","","","","","","","","","feedback_test"
"","","","","","psychophysics","92","265928","0.0-9.0-0.0-0.16","353","","j","","","","","","","","","","","","","key","j","16.66760674157256","768","428","f","false","img/S_ambi40.png","常人","prac_word_first",""
"","","","","","html-keyboard-response","93","266232","0.0-9.0-0.0-1.16","null","<span style='color:red; font-size: 70px;'>错误! </span>","null","","","","","","","","","","","","","","","","","","","","","","","feedback_test"
"","","","","","psychophysics","94","267852","0.0-9.0-0.0-0.17","461","","f","","","","","","","","","","","","","key","f","16.667281250000087","768","428","f","true","img/T_ambi40.png","坏人","prac_word_first",""
"","","","","","html-keyboard-response","95","268159","0.0-9.0-0.0-1.17","null","<span style='color:GreenYellow; font-size: 70px;'>正确! </span>","null","","","","","","","","","","","","","","","","","","","","","","","feedback_test"
"","","","","","psychophysics","96","269738","0.0-9.0-0.0-0.18","415","","j","","","","","","","","","","","","","key","j","16.66823655913987","768","428","j","true","img/C_ambi40.png","常人","prac_word_first",""
"","","","","","html-keyboard-response","97","270049","0.0-9.0-0.0-1.18","null","<span style='color:GreenYellow; font-size: 70px;'>正确! </span>","null","","","","","","","","","","","","","","","","","","","","","","","feedback_test"
"","","","","","psychophysics","98","271781","0.0-9.0-0.0-0.19","574","","j","","","","","","","","","","","","","key","j","16.66793203883515","768","428","j","true","img/C_ambi40.png","常人","prac_word_first",""
"","","","","","html-keyboard-response","99","272096","0.0-9.0-0.0-1.19","null","<span style='color:GreenYellow; font-size: 70px;'>正确! </span>","null","","","","","","","","","","","","","","","","","","","","","","","feedback_test"
"","","","","","psychophysics","100","274173","0.0-9.0-0.0-0.20","916","","f","","","","","","","","","","","","","key","f","16.667170731707124","768","428","f","true","img/C_ambi40.png","坏人","prac_word_first",""
"","","","","","html-keyboard-response","101","274488","0.0-9.0-0.0-1.20","null","<span style='color:GreenYellow; font-size: 70px;'>正确! </span>","null","","","","","","","","","","","","","","","","","","","","","","","feedback_test"
"","","","","","psychophysics","102","276791","0.0-9.0-0.0-0.21","1150","","f","","","","","","","","","","","","","key","f","16.66739416058408","768","428","f","true","img/T_ambi40.png","常人","prac_word_first",""
"","","","","","html-keyboard-response","103","277107","0.0-9.0-0.0-1.21","null","<span style='color:GreenYellow; font-size: 70px;'>正确! </span>","null","","","","","","","","","","","","","","","","","","","","","","","feedback_test"
"","","","","","psychophysics","104","279179","0.0-9.0-0.0-0.22","914","","j","","","","","","","","","","","","","key","j","16.556593495935044","768","428","j","true","img/S_ambi40.png","坏人","prac_word_first",""
"","","","","","html-keyboard-response","105","279483","0.0-9.0-0.0-1.22","null","<span style='color:GreenYellow; font-size: 70px;'>正确! </span>","null","","","","","","","","","","","","","","","","","","","","","","","feedback_test"
"","","","","","psychophysics","106","281449","0.0-9.0-0.0-0.23","809","","j","","","","","","","","","","","","","key","j","16.667393162393342","768","428","j","true","img/T_ambi40.png","好人","prac_word_first",""
"","","","","","html-keyboard-response","107","281765","0.0-9.0-0.0-1.23","null","<span style='color:GreenYellow; font-size: 70px;'>正确! </span>","null","","","","","","","","","","","","","","","","","","","","","","","feedback_test"
"","","","","","html-keyboard-response","108","295586","0.0-10.0","13818","<style>.context{color:white; font-size: 35px; line-height:40px}</style>                              <div><p class='context'>您正确回答了79% 的试次。</p><p class='context'>您的平均反应时为757毫秒。</p><p class='context'>恭喜您完成练习。按任意键进入<span style='color: yellow;'>图形和文字同时呈现条件</span>的练习。</p></div>","l","","","","","","","","","","","","","","","","","","","","","","",""
"","","","","","psychophysics","109","298110","0.0-11.0-0.0-0.0","null","","null","","","","","","","","","","","","","key","null","16.66748666666681","768","428","f","false","img/T_ambi40.png","坏人","prac_simultaneous",""
"","","","","","html-keyboard-response","110","298415","0.0-11.0-0.0-1.0","null","<span class='add_' style='color:yellow; font-size: 70px;'> 太慢! </span>","null","","","","","","","","","","","","","","","","","","","","","","","feedback_test"
"","","","","","psychophysics","111","300322","0.0-11.0-0.0-0.1","897","","f","","","","","","","","","","","","","key","f","16.66825663716794","768","428","f","true","img/C_ambi40.png","好人","prac_simultaneous",""
"","","","","","html-keyboard-response","112","300638","0.0-11.0-0.0-1.1","null","<span style='color:GreenYellow; font-size: 70px;'>正确! </span>","null","","","","","","","","","","","","","","","","","","","","","","","feedback_test"
"","","","","","psychophysics","113","302912","0.0-11.0-0.0-0.2","1270","","f","","","","","","","","","","","","","key","f","16.66762500000015","768","428","j","false","img/S_ambi40.png","坏人","prac_simultaneous",""
"","","","","","html-keyboard-response","114","303222","0.0-11.0-0.0-1.2","null","<span style='color:red; font-size: 70px;'>错误! </span>","null","","","","","","","","","","","","","","","","","","","","","","","feedback_test"
"","","","","","psychophysics","115","304863","0.0-11.0-0.0-0.3","637","","j","","","","","","","","","","","","","key","j","16.66706122448953","768","428","j","true","img/S_ambi40.png","坏人","prac_simultaneous",""
"","","","","","html-keyboard-response","116","305176","0.0-11.0-0.0-1.3","null","<span style='color:GreenYellow; font-size: 70px;'>正确! </span>","null","","","","","","","","","","","","","","","","","","","","","","","feedback_test"
"","","","","","psychophysics","117","306972","0.0-11.0-0.0-0.4","795","","f","","","","","","","","","","","","","key","f","16.66783962264176","768","428","j","false","img/T_ambi40.png","好人","prac_simultaneous",""
"","","","","","html-keyboard-response","118","307287","0.0-11.0-0.0-1.4","null","<span style='color:red; font-size: 70px;'>错误! </span>","null","","","","","","","","","","","","","","","","","","","","","","","feedback_test"
"","","","","","psychophysics","119","309209","0.0-11.0-0.0-0.5","916","","f","","","","","","","","","","","","","key","f","16.667754385965008","768","428","f","true","img/T_ambi40.png","常人","prac_simultaneous",""
"","","","","","html-keyboard-response","120","309517","0.0-11.0-0.0-1.5","null","<span style='color:GreenYellow; font-size: 70px;'>正确! </span>","null","","","","","","","","","","","","","","","","","","","","","","","feedback_test"
"","","","","","psychophysics","121","311777","0.0-11.0-0.0-0.6","1251","","f","","","","","","","","","","","","","key","f","16.66794814814822","768","428","j","false","img/T_ambi40.png","好人","prac_simultaneous",""
"","","","","","html-keyboard-response","122","312096","0.0-11.0-0.0-1.6","null","<span style='color:red; font-size: 70px;'>错误! </span>","null","","","","","","","","","","","","","","","","","","","","","","","feedback_test"
"","","","","","psychophysics","123","313862","0.0-11.0-0.0-0.7","752","","f","","","","","","","","","","","","","key","f","16.667828571428878","768","428","f","true","img/S_ambi40.png","常人","prac_simultaneous",""
"","","","","","html-keyboard-response","124","314180","0.0-11.0-0.0-1.7","null","<span style='color:GreenYellow; font-size: 70px;'>正确! </span>","null","","","","","","","","","","","","","","","","","","","","","","","feedback_test"
"","","","","","psychophysics","125","316416","0.0-11.0-0.0-0.8","1232","","j","","","","","","","","","","","","","key","j","16.66745864661652","768","428","j","true","img/C_ambi40.png","常人","prac_simultaneous",""
"","","","","","html-keyboard-response","126","316735","0.0-11.0-0.0-1.8","null","<span style='color:GreenYellow; font-size: 70px;'>正确! </span>","null","","","","","","","","","","","","","","","","","","","","","","","feedback_test"
"","","","","","psychophysics","127","318603","0.0-11.0-0.0-0.9","860","","f","","","","","","","","","","","","","key","f","16.667981981982052","768","428","f","true","img/S_ambi40.png","好人","prac_simultaneous",""
"","","","","","html-keyboard-response","128","318924","0.0-11.0-0.0-1.9","null","<span style='color:GreenYellow; font-size: 70px;'>正确! </span>","null","","","","","","","","","","","","","","","","","","","","","","","feedback_test"
"","","","","","psychophysics","129","320852","0.0-11.0-0.0-0.10","925","","f","","","","","","","","","","","","","key","f","16.667852173913168","768","428","f","true","img/C_ambi40.png","坏人","prac_simultaneous",""
"","","","","","html-keyboard-response","130","321162","0.0-11.0-0.0-1.10","null","<span style='color:GreenYellow; font-size: 70px;'>正确! </span>","null","","","","","","","","","","","","","","","","","","","","","","","feedback_test"
"","","","","","psychophysics","131","322833","0.0-11.0-0.0-0.11","663","","j","","","","","","","","","","","","","key","j","16.667686868687113","768","428","j","true","img/C_ambi40.png","常人","prac_simultaneous",""
"","","","","","html-keyboard-response","132","323145","0.0-11.0-0.0-1.11","null","<span style='color:GreenYellow; font-size: 70px;'>正确! </span>","null","","","","","","","","","","","","","","","","","","","","","","","feedback_test"
"","","","","","psychophysics","133","325029","0.0-11.0-0.0-0.12","879","","f","","","","","","","","","","","","","key","f","16.668428571428585","768","428","f","true","img/S_ambi40.png","好人","prac_simultaneous",""
"","","","","","html-keyboard-response","134","325338","0.0-11.0-0.0-1.12","null","<span style='color:GreenYellow; font-size: 70px;'>正确! </span>","null","","","","","","","","","","","","","","","","","","","","","","","feedback_test"
"","","","","","psychophysics","135","327002","0.0-11.0-0.0-0.13","658","","j","","","","","","","","","","","","","key","j","16.668111111111514","768","428","j","true","img/S_ambi40.png","坏人","prac_simultaneous",""
"","","","","","html-keyboard-response","136","327321","0.0-11.0-0.0-1.13","null","<span style='color:GreenYellow; font-size: 70px;'>正确! </span>","null","","","","","","","","","","","","","","","","","","","","","","","feedback_test"
"","","","","","psychophysics","137","329468","0.0-11.0-0.0-0.14","1140","","f","","","","","","","","","","","","","key","f","16.66707812499999","768","428","f","true","img/C_ambi40.png","好人","prac_simultaneous",""
"","","","","","html-keyboard-response","138","329788","0.0-11.0-0.0-1.14","null","<span style='color:GreenYellow; font-size: 70px;'>正确! </span>","null","","","","","","","","","","","","","","","","","","","","","","","feedback_test"
"","","","","","psychophysics","139","331932","0.0-11.0-0.0-0.15","1138","","f","","","","","","","","","","","","","key","f","16.66803125000024","768","428","f","true","img/T_ambi40.png","常人","prac_simultaneous",""
"","","","","","html-keyboard-response","140","332240","0.0-11.0-0.0-1.15","null","<span style='color:GreenYellow; font-size: 70px;'>正确! </span>","null","","","","","","","","","","","","","","","","","","","","","","","feedback_test"
"","","","","","psychophysics","141","333885","0.0-11.0-0.0-0.16","641","","f","","","","","","","","","","","","","key","f","16.667816326530573","768","428","f","true","img/S_ambi40.png","常人","prac_simultaneous",""
"","","","","","html-keyboard-response","142","334190","0.0-11.0-0.0-1.16","null","<span style='color:GreenYellow; font-size: 70px;'>正确! </span>","null","","","","","","","","","","","","","","","","","","","","","","","feedback_test"
"","","","","","psychophysics","143","335918","0.0-11.0-0.0-0.17","724","","j","","","","","","","","","","","","","key","j","16.667611650485675","768","428","j","true","img/T_ambi40.png","好人","prac_simultaneous",""
"","","","","","html-keyboard-response","144","336232","0.0-11.0-0.0-1.17","null","<span style='color:GreenYellow; font-size: 70px;'>正确! </span>","null","","","","","","","","","","","","","","","","","","","","","","","feedback_test"
"","","","","","psychophysics","145","337971","0.0-11.0-0.0-0.18","726","","f","","","","","","","","","","","","","key","f","16.667252427184597","768","428","f","true","img/T_ambi40.png","坏人","prac_simultaneous",""
"","","","","","html-keyboard-response","146","338287","0.0-11.0-0.0-1.18","null","<span style='color:GreenYellow; font-size: 70px;'>正确! </span>","null","","","","","","","","","","","","","","","","","","","","","","","feedback_test"
"","","","","","psychophysics","147","339997","0.0-11.0-0.0-0.19","702","","f","","","","","","","","","","","","","key","f","16.667813725489896","768","428","j","false","img/S_ambi40.png","坏人","prac_simultaneous",""
"","","","","","html-keyboard-response","148","340311","0.0-11.0-0.0-1.19","null","<span style='color:red; font-size: 70px;'>错误! </span>","null","","","","","","","","","","","","","","","","","","","","","","","feedback_test"
"","","","","","psychophysics","149","342039","0.0-11.0-0.0-0.20","718","","j","","","","","","","","","","","","","key","j","16.66816666666658","768","428","j","true","img/C_ambi40.png","常人","prac_simultaneous",""
"","","","","","html-keyboard-response","150","342356","0.0-11.0-0.0-1.20","null","<span style='color:GreenYellow; font-size: 70px;'>正确! </span>","null","","","","","","","","","","","","","","","","","","","","","","","feedback_test"
"","","","","","psychophysics","151","344204","0.0-11.0-0.0-0.21","842","","f","","","","","","","","","","","","","key","f","16.66743636363641","768","428","j","false","img/T_ambi40.png","好人","prac_simultaneous",""
"","","","","","html-keyboard-response","152","344523","0.0-11.0-0.0-1.21","null","<span style='color:red; font-size: 70px;'>错误! </span>","null","","","","","","","","","","","","","","","","","","","","","","","feedback_test"
"","","","","","psychophysics","153","346320","0.0-11.0-0.0-0.22","792","","j","","","","","","","","","","","","","key","j","16.667747663551612","768","428","j","true","img/C_ambi40.png","常人","prac_simultaneous",""
"","","","","","html-keyboard-response","154","346623","0.0-11.0-0.0-1.22","null","<span style='color:GreenYellow; font-size: 70px;'>正确! </span>","null","","","","","","","","","","","","","","","","","","","","","","","feedback_test"
"","","","","","psychophysics","155","348203","0.0-11.0-0.0-0.23","574","","f","","","","","","","","","","","","","key","f","16.671382978723255","768","428","f","true","img/C_ambi40.png","坏人","prac_simultaneous",""
"","","","","","html-keyboard-response","156","348522","0.0-11.0-0.0-1.23","null","<span style='color:GreenYellow; font-size: 70px;'>正确! </span>","null","","","","","","","","","","","","","","","","","","","","","","","feedback_test"
"","","","","","html-keyboard-response","157","350204","0.0-12.0","1680","<style>.context{color:white; font-size: 35px; line-height:40px}</style>                              <div><p class='context'>您正确回答了75% 的试次。</p><p class='context'>您的平均反应时为826毫秒。</p><p class='context'>恭喜您完成练习。按任意键进入正式实验。</p><p class='footer' style='font-size: 35px; line-height:40px;'>请在进入正式实验实验之前将您的<span style='color: lightgreen;'>食指</span>放在电脑键盘的相应键位上进行按键。</p>",";","","","","","","","","","","","","","","","","","","","","","","",""
"","","","","","html-keyboard-response","158","352491","0.0-13.0-2.0-0.0","2283","
      <p>请您将手指放在按键上，准备进入呈现顺序为<span style='color: yellow;'>图形和文字同时呈现条件</span>的正式匹配任务</p>
      <p> <div style = ""color: green""><按任意键进入下一阶段的匹配任务></div></p>
      ",";","","","","","","","","","","","","","","","","","","","","","","",""
"","","","","","psychophysics","159","354822","0.0-13.0-2.0-1.0-0.0-0.0","1327","","f","","","","","","","","","","","","","key","f","16.669964028776977","768","428","j","false","img/T_ambi40.png","好人","simultaneous",""
"","","","","","html-keyboard-response","160","355135","0.0-13.0-2.0-1.0-0.0-1.0","null","<span style='color:red; font-size: 70px;'>错误! </span>","null","","","","","","","","","","","","","","","","","","","","","","","feedback_test"
"","","","","","psychophysics","161","357044","0.0-13.0-2.0-1.0-0.0-0.1","898","","j","","","","","","","","","","","","","key","j","16.66414159292044","768","428","j","true","img/C_ambi40.png","常人","simultaneous",""
"","","","","","html-keyboard-response","162","357351","0.0-13.0-2.0-1.0-0.0-1.1","null","<span style='color:GreenYellow; font-size: 70px;'>正确! </span>","null","","","","","","","","","","","","","","","","","","","","","","","feedback_test"
"","","","","","psychophysics","163","359312","0.0-13.0-2.0-1.0-0.0-0.2","950","","f","","","","","","","","","","","","","key","f","16.670913793103455","768","428","f","true","img/T_ambi40.png","坏人","simultaneous",""
"","","","","","html-keyboard-response","164","359625","0.0-13.0-2.0-1.0-0.0-1.2","null","<span style='color:GreenYellow; font-size: 70px;'>正确! </span>","null","","","","","","","","","","","","","","","","","","","","","","","feedback_test"
"","","","","","psychophysics","165","361256","0.0-13.0-2.0-1.0-0.0-0.3","627","","j","","","","","","","","","","","","","key","j","16.671969072165368","768","428","j","true","img/S_ambi40.png","坏人","simultaneous",""
"","","","","","html-keyboard-response","166","361579","0.0-13.0-2.0-1.0-0.0-1.3","null","<span style='color:GreenYellow; font-size: 70px;'>正确! </span>","null","","","","","","","","","","","","","","","","","","","","","","","feedback_test"
"","","","","","psychophysics","167","362939","0.0-13.0-2.0-1.0-0.0-0.4","358","","f","","","","","","","","","","","","","key","f","16.667475000000557","768","428","f","true","img/S_ambi40.png","好人","simultaneous",""
"","","","","","html-keyboard-response","168","363261","0.0-13.0-2.0-1.0-0.0-1.4","null","<span style='color:GreenYellow; font-size: 70px;'>正确! </span>","null","","","","","","","","","","","","","","","","","","","","","","","feedback_test"
"","","","","","psychophysics","169","364579","0.0-13.0-2.0-1.0-0.0-0.5","316","","j","","","","","","","","","","","","","key","j","16.667961538461103","768","428","f","false","img/C_ambi40.png","好人","simultaneous",""
"","","","","","html-keyboard-response","170","364892","0.0-13.0-2.0-1.0-0.0-1.5","null","<span style='color:red; font-size: 70px;'>错误! </span>","null","","","","","","","","","","","","","","","","","","","","","","","feedback_test"
"","","","","","psychophysics","171","366477","0.0-13.0-2.0-1.0-0.0-0.6","581","","f","","","","","","","","","","","","","key","f","16.668680851063517","768","428","f","true","img/S_ambi40.png","常人","simultaneous",""
"","","","","","html-keyboard-response","172","366795","0.0-13.0-2.0-1.0-0.0-1.6","null","<span style='color:GreenYellow; font-size: 70px;'>正确! </span>","null","","","","","","","","","","","","","","","","","","","","","","","feedback_test"
"","","","","","psychophysics","173","368671","0.0-13.0-2.0-1.0-0.0-0.7","875","","j","","","","","","","","","","","","","key","j","16.55152252252289","768","428","f","false","img/C_ambi40.png","坏人","simultaneous",""
"","","","","","html-keyboard-response","174","368981","0.0-13.0-2.0-1.0-0.0-1.7","null","<span style='color:red; font-size: 70px;'>错误! </span>","null","","","","","","","","","","","","","","","","","","","","","","","feedback_test"
"","","","","","psychophysics","175","370676","0.0-13.0-2.0-1.0-0.0-0.8","679","","f","","","","","","","","","","","","","key","f","16.667939999999945","768","428","j","false","img/T_ambi40.png","好人","simultaneous",""
"","","","","","html-keyboard-response","176","370996","0.0-13.0-2.0-1.0-0.0-1.8","null","<span style='color:red; font-size: 70px;'>错误! </span>","null","","","","","","","","","","","","","","","","","","","","","","","feedback_test"
"","","","","","psychophysics","177","372558","0.0-13.0-2.0-1.0-0.0-0.9","562","","j","","","","","","","","","","","","","key","j","16.66845652173873","768","428","f","false","img/T_ambi40.png","常人","simultaneous",""
"","","","","","html-keyboard-response","178","372865","0.0-13.0-2.0-1.0-0.0-1.9","null","<span style='color:red; font-size: 70px;'>错误! </span>","null","","","","","","","","","","","","","","","","","","","","","","","feedback_test"
"","","","","","psychophysics","179","375380","0.0-13.0-2.0-1.0-0.0-0.10","null","","null","","","","","","","","","","","","","key","null","16.667666666666822","768","428","j","false","img/C_ambi40.png","常人","simultaneous",""
"","","","","","html-keyboard-response","180","375693","0.0-13.0-2.0-1.0-0.0-1.10","null","<span class='add_' style='color:yellow; font-size: 70px;'> 太慢! </span>","null","","","","","","","","","","","","","","","","","","","","","","","feedback_test"
"","","","","","psychophysics","181","377748","0.0-13.0-2.0-1.0-0.0-0.11","1051","","j","","","","","","","","","","","","","key","j","16.66791869918683","768","428","j","true","img/S_ambi40.png","坏人","simultaneous",""
"","","","","","html-keyboard-response","182","378060","0.0-13.0-2.0-1.0-0.0-1.11","null","<span style='color:GreenYellow; font-size: 70px;'>正确! </span>","null","","","","","","","","","","","","","","","","","","","","","","","feedback_test"
"","","","","","psychophysics","183","379839","0.0-13.0-2.0-1.0-0.0-0.12","775","","f","","","","","","","","","","","","","key","f","16.668603773585208","768","428","f","true","img/C_ambi40.png","坏人","simultaneous",""
"","","","","","html-keyboard-response","184","380151","0.0-13.0-2.0-1.0-0.0-1.12","null","<span style='color:GreenYellow; font-size: 70px;'>正确! </span>","null","","","","","","","","","","","","","","","","","","","","","","","feedback_test"
"","","","","","psychophysics","185","382138","0.0-13.0-2.0-1.0-0.0-0.13","974","","j","","","","","","","","","","","","","key","j","16.667957627118795","768","428","j","true","img/T_ambi40.png","好人","simultaneous",""
"","","","","","html-keyboard-response","186","382454","0.0-13.0-2.0-1.0-0.0-1.13","null","<span style='color:GreenYellow; font-size: 70px;'>正确! </span>","null","","","","","","","","","","","","","","","","","","","","","","","feedback_test"
"","","","","","psychophysics","187","384572","0.0-13.0-2.0-1.0-0.0-0.14","1108","","f","","","","","","","","","","","","","key","f","16.667388888889008","768","428","f","true","img/S_ambi40.png","好人","simultaneous",""
"","","","","","html-keyboard-response","188","384891","0.0-13.0-2.0-1.0-0.0-1.14","null","<span style='color:GreenYellow; font-size: 70px;'>正确! </span>","null","","","","","","","","","","","","","","","","","","","","","","","feedback_test"
"","","","","","psychophysics","189","386645","0.0-13.0-2.0-1.0-0.0-0.15","748","","j","","","","","","","","","","","","","key","j","16.666346153846042","768","428","j","true","img/C_ambi40.png","常人","simultaneous",""
"","","","","","html-keyboard-response","190","386958","0.0-13.0-2.0-1.0-0.0-1.15","null","<span style='color:GreenYellow; font-size: 70px;'>正确! </span>","null","","","","","","","","","","","","","","","","","","","","","","","feedback_test"
"","","","","","psychophysics","191","388895","0.0-13.0-2.0-1.0-0.0-0.16","931","","f","","","","","","","","","","","","","key","f","16.66890434782608","768","428","j","false","img/S_ambi40.png","坏人","simultaneous",""
"","","","","","html-keyboard-response","192","389201","0.0-13.0-2.0-1.0-0.0-1.16","null","<span style='color:red; font-size: 70px;'>错误! </span>","null","","","","","","","","","","","","","","","","","","","","","","","feedback_test"
"","","","","","psychophysics","193","391331","0.0-13.0-2.0-1.0-0.0-0.17","1117","","f","","","","","","","","","","","","","key","f","16.665685039369745","768","428","f","true","img/S_ambi40.png","常人","simultaneous",""
"","","","","","html-keyboard-response","194","391648","0.0-13.0-2.0-1.0-0.0-1.17","null","<span style='color:GreenYellow; font-size: 70px;'>正确! </span>","null","","","","","","","","","","","","","","","","","","","","","","","feedback_test"
"","","","","","psychophysics","195","394159","0.0-13.0-2.0-1.0-0.0-0.18","null","","null","","","","","","","","","","","","","key","null","16.668302013422753","768","428","f","false","img/T_ambi40.png","坏人","simultaneous",""
"","","","","","html-keyboard-response","196","394466","0.0-13.0-2.0-1.0-0.0-1.18","null","<span class='add_' style='color:yellow; font-size: 70px;'> 太慢! </span>","null","","","","","","","","","","","","","","","","","","","","","","","feedback_test"
"","","","","","psychophysics","197","396088","0.0-13.0-2.0-1.0-0.0-0.19","607","","j","","","","","","","","","","","","","key","j","16.666875000000193","768","428","j","true","img/T_ambi40.png","好人","simultaneous",""
"","","","","","html-keyboard-response","198","396399","0.0-13.0-2.0-1.0-0.0-1.19","null","<span style='color:GreenYellow; font-size: 70px;'>正确! </span>","null","","","","","","","","","","","","","","","","","","","","","","","feedback_test"
"","","","","","psychophysics","199","398497","0.0-13.0-2.0-1.0-0.0-0.20","1085","","j","","","","","","","","","","","","","key","j","16.66651612903262","768","428","j","true","img/C_ambi40.png","常人","simultaneous",""
"","","","","","html-keyboard-response","200","398808","0.0-13.0-2.0-1.0-0.0-1.20","null","<span style='color:GreenYellow; font-size: 70px;'>正确! </span>","null","","","","","","","","","","","","","","","","","","","","","","","feedback_test"
"","","","","","psychophysics","201","400433","0.0-13.0-2.0-1.0-0.0-0.21","618","","j","","","","","","","","","","","","","key","j","16.666391752577464","768","428","f","false","img/C_ambi40.png","好人","simultaneous",""
"","","","","","html-keyboard-response","202","400752","0.0-13.0-2.0-1.0-0.0-1.21","null","<span style='color:red; font-size: 70px;'>错误! </span>","null","","","","","","","","","","","","","","","","","","","","","","","feedback_test"
"","","","","","psychophysics","203","402923","0.0-13.0-2.0-1.0-0.0-0.22","1158","","f","","","","","","","","","","","","","key","f","16.667837209302423","768","428","f","true","img/T_ambi40.png","常人","simultaneous",""
"","","","","","html-keyboard-response","204","403243","0.0-13.0-2.0-1.0-0.0-1.22","null","<span style='color:GreenYellow; font-size: 70px;'>正确! </span>","null","","","","","","","","","","","","","","","","","","","","","","","feedback_test"
"","","","","","psychophysics","205","405359","0.0-13.0-2.0-1.0-0.0-0.23","1111","","f","","","","","","","","","","","","","key","f","16.67254761904746","768","428","j","false","img/S_ambi40.png","坏人","simultaneous",""
"","","","","","html-keyboard-response","206","405662","0.0-13.0-2.0-1.0-0.0-1.23","null","<span style='color:red; font-size: 70px;'>错误! </span>","null","","","","","","","","","","","","","","","","","","","","","","","feedback_test"
"","","","","","psychophysics","207","407249","0.0-13.0-2.0-1.0-0.0-0.24","584","","j","","","","","","","","","","","","","key","j","16.666800000000205","768","428","j","true","img/T_ambi40.png","好人","simultaneous",""
"","","","","","html-keyboard-response","208","407570","0.0-13.0-2.0-1.0-0.0-1.24","null","<span style='color:GreenYellow; font-size: 70px;'>正确! </span>","null","","","","","","","","","","","","","","","","","","","","","","","feedback_test"
"","","","","","psychophysics","209","409255","0.0-13.0-2.0-1.0-0.0-0.25","673","","j","","","","","","","","","","","","","key","j","16.66994000000006","768","428","j","true","img/T_ambi40.png","好人","simultaneous",""
"","","","","","html-keyboard-response","210","409565","0.0-13.0-2.0-1.0-0.0-1.25","null","<span style='color:GreenYellow; font-size: 70px;'>正确! </span>","null","","","","","","","","","","","","","","","","","","","","","","","feedback_test"
"","","","","","psychophysics","211","411356","0.0-13.0-2.0-1.0-0.0-0.26","791","","f","","","","","","","","","","","","","key","f","16.667820754716885","768","428","f","true","img/T_ambi40.png","常人","simultaneous",""
"","","","","","html-keyboard-response","212","411676","0.0-13.0-2.0-1.0-0.0-1.26","null","<span style='color:GreenYellow; font-size: 70px;'>正确! </span>","null","","","","","","","","","","","","","","","","","","","","","","","feedback_test"
"","","","","","psychophysics","213","414182","0.0-13.0-2.0-1.0-0.0-0.27","null","","null","","","","","","","","","","","","","key","null","16.667519999999787","768","428","f","false","img/C_ambi40.png","坏人","simultaneous",""
"","","","","","html-keyboard-response","214","414500","0.0-13.0-2.0-1.0-0.0-1.27","null","<span class='add_' style='color:yellow; font-size: 70px;'> 太慢! </span>","null","","","","","","","","","","","","","","","","","","","","","","","feedback_test"
"","","","","","psychophysics","215","416912","0.0-13.0-2.0-1.0-0.0-0.28","1398","","f","","","","","","","","","","","","","key","f","16.66722377622378","768","428","f","true","img/S_ambi40.png","好人","simultaneous",""
"","","","","","html-keyboard-response","216","417219","0.0-13.0-2.0-1.0-0.0-1.28","null","<span style='color:GreenYellow; font-size: 70px;'>正确! </span>","null","","","","","","","","","","","","","","","","","","","","","","","feedback_test"
"","","","","","psychophysics","217","419606","0.0-13.0-2.0-1.0-0.0-0.29","1374","","j","","","","","","","","","","","","","key","j","16.669725352112845","768","428","j","true","img/C_ambi40.png","常人","simultaneous",""
"","","","","","html-keyboard-response","218","419924","0.0-13.0-2.0-1.0-0.0-1.29","null","<span style='color:GreenYellow; font-size: 70px;'>正确! </span>","null","","","","","","","","","","","","","","","","","","","","","","","feedback_test"
"","","","","","psychophysics","219","422093","0.0-13.0-2.0-1.0-0.0-0.30","1161","","j","","","","","","","","","","","","","key","j","16.668023255813864","768","428","j","true","img/S_ambi40.png","坏人","simultaneous",""
"","","","","","html-keyboard-response","220","422399","0.0-13.0-2.0-1.0-0.0-1.30","null","<span style='color:GreenYellow; font-size: 70px;'>正确! </span>","null","","","","","","","","","","","","","","","","","","","","","","","feedback_test"
"","","","","","psychophysics","221","424153","0.0-13.0-2.0-1.0-0.0-0.31","740","","f","","","","","","","","","","","","","key","f","16.668846153846133","768","428","j","false","img/C_ambi40.png","常人","simultaneous",""
"","","","","","html-keyboard-response","222","424475","0.0-13.0-2.0-1.0-0.0-1.31","null","<span style='color:red; font-size: 70px;'>错误! </span>","null","","","","","","","","","","","","","","","","","","","","","","","feedback_test"
"","","","","","psychophysics","223","426212","0.0-13.0-2.0-1.0-0.0-0.32","730","","j","","","","","","","","","","","","","key","j","16.665398058252073","768","428","f","false","img/T_ambi40.png","坏人","simultaneous",""
"","","","","","html-keyboard-response","224","426520","0.0-13.0-2.0-1.0-0.0-1.32","null","<span style='color:red; font-size: 70px;'>错误! </span>","null","","","","","","","","","","","","","","","","","","","","","","","feedback_test"
"","","","","","psychophysics","225","428377","0.0-13.0-2.0-1.0-0.0-0.33","845","","f","","","","","","","","","","","","","key","f","16.668518181818282","768","428","j","false","img/S_ambi40.png","坏人","simultaneous",""
"","","","","","html-keyboard-response","226","428690","0.0-13.0-2.0-1.0-0.0-1.33","null","<span style='color:red; font-size: 70px;'>错误! </span>","null","","","","","","","","","","","","","","","","","","","","","","","feedback_test"
"","","","","","psychophysics","227","430807","0.0-13.0-2.0-1.0-0.0-0.34","1107","","j","","","","","","","","","","","","","key","j","16.665246031746","768","428","f","false","img/S_ambi40.png","常人","simultaneous",""
"","","","","","html-keyboard-response","228","431119","0.0-13.0-2.0-1.0-0.0-1.34","null","<span style='color:red; font-size: 70px;'>错误! </span>","null","","","","","","","","","","","","","","","","","","","","","","","feedback_test"
"","","","","","psychophysics","229","433403","0.0-13.0-2.0-1.0-0.0-0.35","1269","","f","","","","","","","","","","","","","key","f","16.669529411764575","768","428","f","true","img/C_ambi40.png","好人","simultaneous",""
"","","","","","html-keyboard-response","230","433719","0.0-13.0-2.0-1.0-0.0-1.35","null","<span style='color:GreenYellow; font-size: 70px;'>正确! </span>","null","","","","","","","","","","","","","","","","","","","","","","","feedback_test"
"","","","","","psychophysics","231","435672","0.0-13.0-2.0-1.0-0.0-0.36","940","","f","","","","","","","","","","","","","key","f","16.668689655172155","768","428","f","true","img/T_ambi40.png","常人","simultaneous",""
"","","","","","html-keyboard-response","232","435990","0.0-13.0-2.0-1.0-0.0-1.36","null","<span style='color:GreenYellow; font-size: 70px;'>正确! </span>","null","","","","","","","","","","","","","","","","","","","","","","","feedback_test"
"","","","","","psychophysics","233","438298","0.0-13.0-2.0-1.0-0.0-0.37","1298","","j","","","","","","","","","","","","","key","j","16.667102189780888","768","428","j","true","img/S_ambi40.png","坏人","simultaneous",""
"","","","","","html-keyboard-response","234","438620","0.0-13.0-2.0-1.0-0.0-1.37","null","<span style='color:GreenYellow; font-size: 70px;'>正确! </span>","null","","","","","","","","","","","","","","","","","","","","","","","feedback_test"
"","","","","","psychophysics","235","440457","0.0-13.0-2.0-1.0-0.0-0.38","834","","j","","","","","","","","","","","","","key","j","16.664247706421936","768","428","j","true","img/C_ambi40.png","常人","simultaneous",""
"","","","","","html-keyboard-response","236","440775","0.0-13.0-2.0-1.0-0.0-1.38","null","<span style='color:GreenYellow; font-size: 70px;'>正确! </span>","null","","","","","","","","","","","","","","","","","","","","","","","feedback_test"
"","","","","","psychophysics","237","442768","0.0-13.0-2.0-1.0-0.0-0.39","984","","f","","","","","","","","","","","","","key","f","16.665436974789717","768","428","f","true","img/C_ambi40.png","好人","simultaneous",""
"","","","","","html-keyboard-response","238","443080","0.0-13.0-2.0-1.0-0.0-1.39","null","<span style='color:GreenYellow; font-size: 70px;'>正确! </span>","null","","","","","","","","","","","","","","","","","","","","","","","feedback_test"
"","","","","","psychophysics","239","445145","0.0-13.0-2.0-1.0-0.0-0.40","1062","","j","","","","","","","","","","","","","key","j","16.66809756097543","768","428","f","false","img/T_ambi40.png","坏人","simultaneous",""
"","","","","","html-keyboard-response","240","445467","0.0-13.0-2.0-1.0-0.0-1.40","null","<span style='color:red; font-size: 70px;'>错误! </span>","null","","","","","","","","","","","","","","","","","","","","","","","feedback_test"
"","","","","","psychophysics","241","447279","0.0-13.0-2.0-1.0-0.0-0.41","800","","f","","","","","","","","","","","","","key","f","16.668710280374068","768","428","j","false","img/C_ambi40.png","常人","simultaneous",""
"","","","","","html-keyboard-response","242","447582","0.0-13.0-2.0-1.0-0.0-1.41","null","<span style='color:red; font-size: 70px;'>错误! </span>","null","","","","","","","","","","","","","","","","","","","","","","","feedback_test"
"","","","","","psychophysics","243","449435","0.0-13.0-2.0-1.0-0.0-0.42","851","","j","","","","","","","","","","","","","key","j","16.669882882883048","768","428","j","true","img/T_ambi40.png","好人","simultaneous",""
"","","","","","html-keyboard-response","244","449742","0.0-13.0-2.0-1.0-0.0-1.42","null","<span style='color:GreenYellow; font-size: 70px;'>正确! </span>","null","","","","","","","","","","","","","","","","","","","","","","","feedback_test"
"","","","","","psychophysics","245","451367","0.0-13.0-2.0-1.0-0.0-0.43","616","","f","","","","","","","","","","","","","key","f","16.665062500000204","768","428","f","true","img/S_ambi40.png","常人","simultaneous",""
"","","","","","html-keyboard-response","246","451672","0.0-13.0-2.0-1.0-0.0-1.43","null","<span style='color:GreenYellow; font-size: 70px;'>正确! </span>","null","","","","","","","","","","","","","","","","","","","","","","","feedback_test"
"","","","","","psychophysics","247","453371","0.0-13.0-2.0-1.0-0.0-0.44","687","","j","","","","","","","","","","","","","key","j","16.6638613861385","768","428","f","false","img/S_ambi40.png","好人","simultaneous",""
"","","","","","html-keyboard-response","248","453686","0.0-13.0-2.0-1.0-0.0-1.44","null","<span style='color:red; font-size: 70px;'>错误! </span>","null","","","","","","","","","","","","","","","","","","","","","","","feedback_test"
"","","","","","psychophysics","249","455454","0.0-13.0-2.0-1.0-0.0-0.45","755","","f","","","","","","","","","","","","","key","f","16.67208571428588","768","428","j","false","img/S_ambi40.png","坏人","simultaneous",""
"","","","","","html-keyboard-response","250","455761","0.0-13.0-2.0-1.0-0.0-1.45","null","<span style='color:red; font-size: 70px;'>错误! </span>","null","","","","","","","","","","","","","","","","","","","","","","","feedback_test"
"","","","","","psychophysics","251","458268","0.0-13.0-2.0-1.0-0.0-0.46","null","","null","","","","","","","","","","","","","key","null","16.666919463087144","768","428","f","false","img/C_ambi40.png","坏人","simultaneous",""
"","","","","","html-keyboard-response","252","458574","0.0-13.0-2.0-1.0-0.0-1.46","null","<span class='add_' style='color:yellow; font-size: 70px;'> 太慢! </span>","null","","","","","","","","","","","","","","","","","","","","","","","feedback_test"
"","","","","","psychophysics","253","460270","0.0-13.0-2.0-1.0-0.0-0.47","685","","j","","","","","","","","","","","","","key","j","16.665861386138978","768","428","j","true","img/T_ambi40.png","好人","simultaneous",""
"","","","","","html-keyboard-response","254","460574","0.0-13.0-2.0-1.0-0.0-1.47","null","<span style='color:GreenYellow; font-size: 70px;'>正确! </span>","null","","","","","","","","","","","","","","","","","","","","","","","feedback_test"
"","","","","","psychophysics","255","462179","0.0-13.0-2.0-1.0-0.0-0.48","595","","f","","","","","","","","","","","","","key","f","16.664157894737162","768","428","j","false","img/C_ambi40.png","常人","simultaneous",""
"","","","","","html-keyboard-response","256","462497","0.0-13.0-2.0-1.0-0.0-1.48","null","<span style='color:red; font-size: 70px;'>错误! </span>","null","","","","","","","","","","","","","","","","","","","","","","","feedback_test"
"","","","","","psychophysics","257","464658","0.0-13.0-2.0-1.0-0.0-0.49","1157","","j","","","","","","","","","","","","","key","j","16.667968992248102","768","428","f","false","img/C_ambi40.png","坏人","simultaneous",""
"","","","","","html-keyboard-response","258","464973","0.0-13.0-2.0-1.0-0.0-1.49","null","<span style='color:red; font-size: 70px;'>错误! </span>","null","","","","","","","","","","","","","","","","","","","","","","","feedback_test"
"","","","","","psychophysics","259","467485","0.0-13.0-2.0-1.0-0.0-0.50","null","","null","","","","","","","","","","","","","key","null","16.667219999999894","768","428","j","false","img/S_ambi40.png","坏人","simultaneous",""
"","","","","","html-keyboard-response","260","467802","0.0-13.0-2.0-1.0-0.0-1.50","null","<span class='add_' style='color:yellow; font-size: 70px;'> 太慢! </span>","null","","","","","","","","","","","","","","","","","","","","","","","feedback_test"
"","","","","","psychophysics","261","470239","0.0-13.0-2.0-1.0-0.0-0.51","1424","","j","","","","","","","","","","","","","key","j","16.666489655172438","768","428","j","true","img/S_ambi40.png","坏人","simultaneous",""
"","","","","","html-keyboard-response","262","470557","0.0-13.0-2.0-1.0-0.0-1.51","null","<span style='color:GreenYellow; font-size: 70px;'>正确! </span>","null","","","","","","","","","","","","","","","","","","","","","","","feedback_test"
"","","","","","psychophysics","263","472425","0.0-13.0-2.0-1.0-0.0-0.52","859","","f","","","","","","","","","","","","","key","f","16.667252252252272","768","428","f","true","img/S_ambi40.png","常人","simultaneous",""
"","","","","","html-keyboard-response","264","472748","0.0-13.0-2.0-1.0-0.0-1.52","null","<span style='color:GreenYellow; font-size: 70px;'>正确! </span>","null","","","","","","","","","","","","","","","","","","","","","","","feedback_test"
"","","","","","psychophysics","265","474492","0.0-13.0-2.0-1.0-0.0-0.53","740","","f","","","","","","","","","","","","","key","f","16.672846153846386","768","428","f","true","img/T_ambi40.png","坏人","simultaneous",""
"","","","","","html-keyboard-response","266","474811","0.0-13.0-2.0-1.0-0.0-1.53","null","<span style='color:GreenYellow; font-size: 70px;'>正确! </span>","null","","","","","","","","","","","","","","","","","","","","","","","feedback_test"
"","","","","","psychophysics","267","476699","0.0-13.0-2.0-1.0-0.0-0.54","879","","f","","","","","","","","","","","","","key","f","16.671071428571718","768","428","f","true","img/S_ambi40.png","好人","simultaneous",""
"","","","","","html-keyboard-response","268","477021","0.0-13.0-2.0-1.0-0.0-1.54","null","<span style='color:GreenYellow; font-size: 70px;'>正确! </span>","null","","","","","","","","","","","","","","","","","","","","","","","feedback_test"
"","","","","","psychophysics","269","478897","0.0-13.0-2.0-1.0-0.0-0.55","862","","j","","","","","","","","","","","","","key","j","16.665909909910148","768","428","f","false","img/C_ambi40.png","好人","simultaneous",""
"","","","","","html-keyboard-response","270","479220","0.0-13.0-2.0-1.0-0.0-1.55","null","<span style='color:red; font-size: 70px;'>错误! </span>","null","","","","","","","","","","","","","","","","","","","","","","","feedback_test"
"","","","","","psychophysics","271","481069","0.0-13.0-2.0-1.0-0.0-0.56","839","","f","","","","","","","","","","","","","key","f","16.671174311926567","768","428","j","false","img/T_ambi40.png","好人","simultaneous",""
"","","","","","html-keyboard-response","272","481387","0.0-13.0-2.0-1.0-0.0-1.56","null","<span style='color:red; font-size: 70px;'>错误! </span>","null","","","","","","","","","","","","","","","","","","","","","","","feedback_test"
"","","","","","psychophysics","273","483149","0.0-13.0-2.0-1.0-0.0-0.57","752","","j","","","","","","","","","","","","","key","j","16.667086538461334","768","428","j","true","img/C_ambi40.png","常人","simultaneous",""
"","","","","","html-keyboard-response","274","483457","0.0-13.0-2.0-1.0-0.0-1.57","null","<span style='color:GreenYellow; font-size: 70px;'>正确! </span>","null","","","","","","","","","","","","","","","","","","","","","","","feedback_test"
"","","","","","psychophysics","275","485231","0.0-13.0-2.0-1.0-0.0-0.58","761","","j","","","","","","","","","","","","","key","j","16.670809523809503","768","428","j","true","img/T_ambi40.png","好人","simultaneous",""
"","","","","","html-keyboard-response","276","485548","0.0-13.0-2.0-1.0-0.0-1.58","null","<span style='color:GreenYellow; font-size: 70px;'>正确! </span>","null","","","","","","","","","","","","","","","","","","","","","","","feedback_test"
"","","","","","psychophysics","277","487252","0.0-13.0-2.0-1.0-0.0-0.59","698","","f","","","","","","","","","","","","","key","f","16.67142574257381","768","428","f","true","img/T_ambi40.png","常人","simultaneous",""
"","","","","","html-keyboard-response","278","487563","0.0-13.0-2.0-1.0-0.0-1.59","null","<span style='color:GreenYellow; font-size: 70px;'>正确! </span>","null","","","","","","","","","","","","","","","","","","","","","","","feedback_test"
"","","","","","html-keyboard-response","279","490419","0.0-13.0-2.0-1.0-1.0","2854","<style>.context{color:white; font-size: 35px; line-height:40px}</style>                              <div><p class='context'>您正确回答了58% 的试次。</p><p class='context'>您的平均反应时为903毫秒。</p><p class='context'>请按任意键进入休息</p></div>","o","","","","","","","","","","","","","","","","","","","","","","",""
"","","","","","html-button-response","280","536195","0.0-13.0-2.0-1.0-2.0","45774","
                      <p>您当前还剩余3组实验</p>
                      <p>现在是休息时间，当您结束休息后，您可以点击 结束休息 按钮 继续</p>
                      <p>建议休息时间还剩余<span id=""iii"">60</span>秒</p>","0","","","","","","","","","","","","","","","","","","","","","","",""
"","","","","","psychophysics","281","538130","0.0-13.0-2.0-1.0-0.1-0.60","933","","f","","","","","","","","","","","","","key","f","16.667678260870034","768","428","f","true","img/S_ambi40.png","好人","simultaneous",""
"","","","","","html-keyboard-response","282","538443","0.0-13.0-2.0-1.0-0.1-1.60","null","<span style='color:GreenYellow; font-size: 70px;'>正确! </span>","null","","","","","","","","","","","","","","","","","","","","","","","feedback_test"
"","","","","","psychophysics","283","540683","0.0-13.0-2.0-1.0-0.1-0.61","1229","","f","","","","","","","","","","","","","key","f","16.66529323308312","768","428","f","true","img/S_ambi40.png","常人","simultaneous",""
"","","","","","html-keyboard-response","284","540995","0.0-13.0-2.0-1.0-0.1-1.61","null","<span style='color:GreenYellow; font-size: 70px;'>正确! </span>","null","","","","","","","","","","","","","","","","","","","","","","","feedback_test"
"","","","","","psychophysics","285","542734","0.0-13.0-2.0-1.0-0.1-0.62","728","","f","","","","","","","","","","","","","key","f","16.664300970873317","768","428","j","false","img/C_ambi40.png","常人","simultaneous",""
"","","","","","html-keyboard-response","286","543038","0.0-13.0-2.0-1.0-0.1-1.62","null","<span style='color:red; font-size: 70px;'>错误! </span>","null","","","","","","","","","","","","","","","","","","","","","","","feedback_test"
"","","","","","psychophysics","287","545184","0.0-13.0-2.0-1.0-0.1-0.63","1144","","f","","","","","","","","","","","","","key","f","16.66709448818913","768","428","j","false","img/S_ambi40.png","坏人","simultaneous",""
"","","","","","html-keyboard-response","288","545500","0.0-13.0-2.0-1.0-0.1-1.63","null","<span style='color:red; font-size: 70px;'>错误! </span>","null","","","","","","","","","","","","","","","","","","","","","","","feedback_test"
"","","","","","psychophysics","289","547357","0.0-13.0-2.0-1.0-0.1-0.64","851","","f","","","","","","","","","","","","","key","f","16.667153153153187","768","428","f","true","img/C_ambi40.png","坏人","simultaneous",""
"","","","","","html-keyboard-response","290","547667","0.0-13.0-2.0-1.0-0.1-1.64","null","<span style='color:GreenYellow; font-size: 70px;'>正确! </span>","null","","","","","","","","","","","","","","","","","","","","","","","feedback_test"
"","","","","","psychophysics","291","549476","0.0-13.0-2.0-1.0-0.1-0.65","803","","j","","","","","","","","","","","","","key","j","16.67009259259255","768","428","j","true","img/T_ambi40.png","好人","simultaneous",""
"","","","","","html-keyboard-response","292","549792","0.0-13.0-2.0-1.0-0.1-1.65","null","<span style='color:GreenYellow; font-size: 70px;'>正确! </span>","null","","","","","","","","","","","","","","","","","","","","","","","feedback_test"
"","","","","","psychophysics","293","551739","0.0-13.0-2.0-1.0-0.1-0.66","936","","j","","","","","","","","","","","","","key","j","16.667669565217448","768","428","j","true","img/S_ambi40.png","坏人","simultaneous",""
"","","","","","html-keyboard-response","294","552051","0.0-13.0-2.0-1.0-0.1-1.66","null","<span style='color:GreenYellow; font-size: 70px;'>正确! </span>","null","","","","","","","","","","","","","","","","","","","","","","","feedback_test"
"","","","","","psychophysics","295","553891","0.0-13.0-2.0-1.0-0.1-0.67","835","","j","","","","","","","","","","","","","key","j","16.667636363635857","768","428","j","true","img/T_ambi40.png","好人","simultaneous",""
"","","","","","html-keyboard-response","296","554203","0.0-13.0-2.0-1.0-0.1-1.67","null","<span style='color:GreenYellow; font-size: 70px;'>正确! </span>","null","","","","","","","","","","","","","","","","","","","","","","","feedback_test"
"","","","","","psychophysics","297","555939","0.0-13.0-2.0-1.0-0.1-0.68","732","","f","","","","","","","","","","","","","key","f","16.671737864076665","768","428","f","true","img/T_ambi40.png","常人","simultaneous",""
"","","","","","html-keyboard-response","298","556245","0.0-13.0-2.0-1.0-0.1-1.68","null","<span style='color:GreenYellow; font-size: 70px;'>正确! </span>","null","","","","","","","","","","","","","","","","","","","","","","","feedback_test"
"","","","","","psychophysics","299","558173","0.0-13.0-2.0-1.0-0.1-0.69","917","","f","","","","","","","","","","","","","key","f","16.663860869565575","768","428","f","true","img/C_ambi40.png","好人","simultaneous",""
"","","","","","html-keyboard-response","300","558486","0.0-13.0-2.0-1.0-0.1-1.69","null","<span style='color:GreenYellow; font-size: 70px;'>正确! </span>","null","","","","","","","","","","","","","","","","","","","","","","","feedback_test"
"","","","","","psychophysics","301","560688","0.0-13.0-2.0-1.0-0.1-0.70","1197","","f","","","","","","","","","","","","","key","f","16.667366412214097","768","428","f","true","img/T_ambi40.png","坏人","simultaneous",""
"","","","","","html-keyboard-response","302","560990","0.0-13.0-2.0-1.0-0.1-1.70","null","<span style='color:GreenYellow; font-size: 70px;'>正确! </span>","null","","","","","","","","","","","","","","","","","","","","","","","feedback_test"
"","","","","","psychophysics","303","562805","0.0-13.0-2.0-1.0-0.1-0.71","814","","f","","","","","","","","","","","","","key","f","16.67182242990663","768","428","j","false","img/C_ambi40.png","常人","simultaneous",""
"","","","","","html-keyboard-response","304","563123","0.0-13.0-2.0-1.0-0.1-1.71","null","<span style='color:red; font-size: 70px;'>错误! </span>","null","","","","","","","","","","","","","","","","","","","","","","","feedback_test"
"","","","","","psychophysics","305","565171","0.0-13.0-2.0-1.0-0.1-0.72","1047","","j","","","","","","","","","","","","","key","j","16.66774380165306","768","428","j","true","img/S_ambi40.png","坏人","simultaneous",""
"","","","","","html-keyboard-response","306","565479","0.0-13.0-2.0-1.0-0.1-1.72","null","<span style='color:GreenYellow; font-size: 70px;'>正确! </span>","null","","","","","","","","","","","","","","","","","","","","","","","feedback_test"
"","","","","","psychophysics","307","567944","0.0-13.0-2.0-1.0-0.1-0.73","1453","","j","","","","","","","","","","","","","key","j","16.66479591836719","768","428","j","true","img/T_ambi40.png","好人","simultaneous",""
"","","","","","html-keyboard-response","308","568246","0.0-13.0-2.0-1.0-0.1-1.73","null","<span style='color:GreenYellow; font-size: 70px;'>正确! </span>","null","","","","","","","","","","","","","","","","","","","","","","","feedback_test"
"","","","","","psychophysics","309","570042","0.0-13.0-2.0-1.0-0.1-0.74","784","","f","","","","","","","","","","","","","key","f","16.66744859813099","768","428","f","true","img/C_ambi40.png","好人","simultaneous",""
"","","","","","html-keyboard-response","310","570354","0.0-13.0-2.0-1.0-0.1-1.74","null","<span style='color:GreenYellow; font-size: 70px;'>正确! </span>","null","","","","","","","","","","","","","","","","","","","","","","","feedback_test"
"","","","","","psychophysics","311","572621","0.0-13.0-2.0-1.0-0.1-0.75","1263","","j","","","","","","","","","","","","","key","j","16.670918518518683","768","428","f","false","img/S_ambi40.png","常人","simultaneous",""
"","","","","","html-keyboard-response","312","572939","0.0-13.0-2.0-1.0-0.1-1.75","null","<span style='color:red; font-size: 70px;'>错误! </span>","null","","","","","","","","","","","","","","","","","","","","","","","feedback_test"
"","","","","","psychophysics","313","575118","0.0-13.0-2.0-1.0-0.1-0.76","1177","","j","","","","","","","","","","","","","key","j","16.565062015504186","768","428","f","false","img/T_ambi40.png","坏人","simultaneous",""
"","","","","","html-keyboard-response","314","575423","0.0-13.0-2.0-1.0-0.1-1.76","null","<span style='color:red; font-size: 70px;'>错误! </span>","null","","","","","","","","","","","","","","","","","","","","","","","feedback_test"
"","","","","","psychophysics","315","577939","0.0-13.0-2.0-1.0-0.1-0.77","null","","null","","","","","","","","","","","","","key","null","16.66728187919494","768","428","j","false","img/C_ambi40.png","常人","simultaneous",""
"","","","","","html-keyboard-response","316","578247","0.0-13.0-2.0-1.0-0.1-1.77","null","<span class='add_' style='color:yellow; font-size: 70px;'> 太慢! </span>","null","","","","","","","","","","","","","","","","","","","","","","","feedback_test"
"","","","","","psychophysics","317","580633","0.0-13.0-2.0-1.0-0.1-0.78","1375","","f","","","","","","","","","","","","","key","f","16.667211267606085","768","428","f","true","img/C_ambi40.png","坏人","simultaneous",""
"","","","","","html-keyboard-response","318","580944","0.0-13.0-2.0-1.0-0.1-1.78","null","<span style='color:GreenYellow; font-size: 70px;'>正确! </span>","null","","","","","","","","","","","","","","","","","","","","","","","feedback_test"
"","","","","","psychophysics","319","582550","0.0-13.0-2.0-1.0-0.1-0.79","592","","j","","","","","","","","","","","","","key","j","16.664273684209604","768","428","j","true","img/T_ambi40.png","好人","simultaneous",""
"","","","","","html-keyboard-response","320","582866","0.0-13.0-2.0-1.0-0.1-1.79","null","<span style='color:GreenYellow; font-size: 70px;'>正确! </span>","null","","","","","","","","","","","","","","","","","","","","","","","feedback_test"
"","","","","","psychophysics","321","584719","0.0-13.0-2.0-1.0-0.1-0.80","849","","f","","","","","","","","","","","","","key","f","16.667736363636372","768","428","f","true","img/S_ambi40.png","好人","simultaneous",""
"","","","","","html-keyboard-response","322","585028","0.0-13.0-2.0-1.0-0.1-1.80","null","<span style='color:GreenYellow; font-size: 70px;'>正确! </span>","null","","","","","","","","","","","","","","","","","","","","","","","feedback_test"
"","","","","","psychophysics","323","586802","0.0-13.0-2.0-1.0-0.1-0.81","761","","f","","","","","","","","","","","","","key","f","16.66959047619076","768","428","j","false","img/S_ambi40.png","坏人","simultaneous",""
"","","","","","html-keyboard-response","324","587119","0.0-13.0-2.0-1.0-0.1-1.81","null","<span style='color:red; font-size: 70px;'>错误! </span>","null","","","","","","","","","","","","","","","","","","","","","","","feedback_test"
"","","","","","psychophysics","325","589097","0.0-13.0-2.0-1.0-0.1-0.82","972","","f","","","","","","","","","","","","","key","f","16.667906779660726","768","428","j","false","img/C_ambi40.png","常人","simultaneous",""
"","","","","","html-keyboard-response","326","589413","0.0-13.0-2.0-1.0-0.1-1.82","null","<span style='color:red; font-size: 70px;'>错误! </span>","null","","","","","","","","","","","","","","","","","","","","","","","feedback_test"
"","","","","","psychophysics","327","591856","0.0-13.0-2.0-1.0-0.1-0.83","1431","","f","","","","","","","","","","","","","key","f","16.66624827586227","768","428","f","true","img/T_ambi40.png","常人","simultaneous",""
"","","","","","html-keyboard-response","328","592168","0.0-13.0-2.0-1.0-0.1-1.83","null","<span style='color:GreenYellow; font-size: 70px;'>正确! </span>","null","","","","","","","","","","","","","","","","","","","","","","","feedback_test"
"","","","","","psychophysics","329","594675","0.0-13.0-2.0-1.0-0.1-0.84","null","","null","","","","","","","","","","","","","key","null","16.668386666666095","768","428","j","false","img/S_ambi40.png","坏人","simultaneous",""
"","","","","","html-keyboard-response","330","594981","0.0-13.0-2.0-1.0-0.1-1.84","null","<span class='add_' style='color:yellow; font-size: 70px;'> 太慢! </span>","null","","","","","","","","","","","","","","","","","","","","","","","feedback_test"
"","","","","","psychophysics","331","597440","0.0-13.0-2.0-1.0-0.1-0.85","1447","","f","","","","","","","","","","","","","key","f","16.665616438356516","768","428","f","true","img/S_ambi40.png","常人","simultaneous",""
"","","","","","html-keyboard-response","332","597754","0.0-13.0-2.0-1.0-0.1-1.85","null","<span style='color:GreenYellow; font-size: 70px;'>正确! </span>","null","","","","","","","","","","","","","","","","","","","","","","","feedback_test"
"","","","","","psychophysics","333","600008","0.0-13.0-2.0-1.0-0.1-0.86","1249","","j","","","","","","","","","","","","","key","j","16.670440298506865","768","428","j","true","img/S_ambi40.png","坏人","simultaneous",""
"","","","","","html-keyboard-response","334","600326","0.0-13.0-2.0-1.0-0.1-1.86","null","<span style='color:GreenYellow; font-size: 70px;'>正确! </span>","null","","","","","","","","","","","","","","","","","","","","","","","feedback_test"
"","","","","","psychophysics","335","602339","0.0-13.0-2.0-1.0-0.1-0.87","1000","","f","","","","","","","","","","","","","key","f","16.671294117647715","768","428","f","true","img/S_ambi40.png","好人","simultaneous",""
"","","","","","html-keyboard-response","336","602657","0.0-13.0-2.0-1.0-0.1-1.87","null","<span style='color:GreenYellow; font-size: 70px;'>正确! </span>","null","","","","","","","","","","","","","","","","","","","","","","","feedback_test"
"","","","","","psychophysics","337","604651","0.0-13.0-2.0-1.0-0.1-0.88","992","","f","","","","","","","","","","","","","key","f","16.667512605042088","768","428","j","false","img/C_ambi40.png","常人","simultaneous",""
"","","","","","html-keyboard-response","338","604966","0.0-13.0-2.0-1.0-0.1-1.88","null","<span style='color:red; font-size: 70px;'>错误! </span>","null","","","","","","","","","","","","","","","","","","","","","","","feedback_test"
"","","","","","psychophysics","339","606797","0.0-13.0-2.0-1.0-0.1-0.89","821","","j","","","","","","","","","","","","","key","j","16.66786238532022","768","428","f","false","img/T_ambi40.png","常人","simultaneous",""
"","","","","","html-keyboard-response","340","607114","0.0-13.0-2.0-1.0-0.1-1.89","null","<span style='color:red; font-size: 70px;'>错误! </span>","null","","","","","","","","","","","","","","","","","","","","","","","feedback_test"
"","","","","","psychophysics","341","609606","0.0-13.0-2.0-1.0-0.1-0.90","1479","","f","","","","","","","","","","","","","key","f","16.667500000000253","768","428","j","false","img/C_ambi40.png","常人","simultaneous",""
"","","","","","html-keyboard-response","342","609916","0.0-13.0-2.0-1.0-0.1-1.90","null","<span style='color:red; font-size: 70px;'>错误! </span>","null","","","","","","","","","","","","","","","","","","","","","","","feedback_test"
"","","","","","psychophysics","343","611993","0.0-13.0-2.0-1.0-0.1-0.91","1066","","j","","","","","","","","","","","","","key","j","16.667362903226017","768","428","j","true","img/T_ambi40.png","好人","simultaneous",""
"","","","","","html-keyboard-response","344","612314","0.0-13.0-2.0-1.0-0.1-1.91","null","<span style='color:GreenYellow; font-size: 70px;'>正确! </span>","null","","","","","","","","","","","","","","","","","","","","","","","feedback_test"
"","","","","","psychophysics","345","614161","0.0-13.0-2.0-1.0-0.1-0.92","844","","j","","","","","","","","","","","","","key","j","16.66779090909139","768","428","j","true","img/T_ambi40.png","好人","simultaneous",""
"","","","","","html-keyboard-response","346","614475","0.0-13.0-2.0-1.0-0.1-1.92","null","<span style='color:GreenYellow; font-size: 70px;'>正确! </span>","null","","","","","","","","","","","","","","","","","","","","","","","feedback_test"
"","","","","","psychophysics","347","616537","0.0-13.0-2.0-1.0-0.1-0.93","1060","","f","","","","","","","","","","","","","key","f","16.565868852459673","768","428","f","true","img/C_ambi40.png","好人","simultaneous",""
"","","","","","html-keyboard-response","348","616860","0.0-13.0-2.0-1.0-0.1-1.93","null","<span style='color:GreenYellow; font-size: 70px;'>正确! </span>","null","","","","","","","","","","","","","","","","","","","","","","","feedback_test"
"","","","","","psychophysics","349","619098","0.0-13.0-2.0-1.0-0.1-0.94","1236","","f","","","","","","","","","","","","","key","f","16.667721804510627","768","428","f","true","img/C_ambi40.png","坏人","simultaneous",""
"","","","","","html-keyboard-response","350","619411","0.0-13.0-2.0-1.0-0.1-1.94","null","<span style='color:GreenYellow; font-size: 70px;'>正确! </span>","null","","","","","","","","","","","","","","","","","","","","","","","feedback_test"
"","","","","","psychophysics","351","621427","0.0-13.0-2.0-1.0-0.1-0.95","1010","","f","","","","","","","","","","","","","key","f","16.668258333333263","768","428","f","true","img/T_ambi40.png","坏人","simultaneous",""
"","","","","","html-keyboard-response","352","621736","0.0-13.0-2.0-1.0-0.1-1.95","null","<span style='color:GreenYellow; font-size: 70px;'>正确! </span>","null","","","","","","","","","","","","","","","","","","","","","","","feedback_test"
"","","","","","psychophysics","353","624243","0.0-13.0-2.0-1.0-0.1-0.96","null","","null","","","","","","","","","","","","","key","null","16.66670469798682","768","428","j","false","img/C_ambi40.png","常人","simultaneous",""
"","","","","","html-keyboard-response","354","624550","0.0-13.0-2.0-1.0-0.1-1.96","null","<span class='add_' style='color:yellow; font-size: 70px;'> 太慢! </span>","null","","","","","","","","","","","","","","","","","","","","","","","feedback_test"
"","","","","","psychophysics","355","626757","0.0-13.0-2.0-1.0-0.1-0.97","1196","","f","","","","","","","","","","","","","key","f","16.666656488549133","768","428","f","true","img/S_ambi40.png","好人","simultaneous",""
"","","","","","html-keyboard-response","356","627061","0.0-13.0-2.0-1.0-0.1-1.97","null","<span style='color:GreenYellow; font-size: 70px;'>正确! </span>","null","","","","","","","","","","","","","","","","","","","","","","","feedback_test"
"","","","","","psychophysics","357","628851","0.0-13.0-2.0-1.0-0.1-0.98","778","","f","","","","","","","","","","","","","key","f","16.667283018868645","768","428","j","false","img/T_ambi40.png","好人","simultaneous",""
"","","","","","html-keyboard-response","358","629166","0.0-13.0-2.0-1.0-0.1-1.98","null","<span style='color:red; font-size: 70px;'>错误! </span>","null","","","","","","","","","","","","","","","","","","","","","","","feedback_test"
"","","","","","psychophysics","359","631362","0.0-13.0-2.0-1.0-0.1-0.99","1185","","j","","","","","","","","","","","","","key","j","16.67114503816826","768","428","f","false","img/C_ambi40.png","坏人","simultaneous",""
"","","","","","html-keyboard-response","360","631671","0.0-13.0-2.0-1.0-0.1-1.99","null","<span style='color:red; font-size: 70px;'>错误! </span>","null","","","","","","","","","","","","","","","","","","","","","","","feedback_test"
"","","","","","psychophysics","361","633853","0.0-13.0-2.0-1.0-0.1-0.100","1175","","f","","","","","","","","","","","","","key","f","16.667392307692744","768","428","f","true","img/T_ambi40.png","常人","simultaneous",""
"","","","","","html-keyboard-response","362","634163","0.0-13.0-2.0-1.0-0.1-1.100","null","<span style='color:GreenYellow; font-size: 70px;'>正确! </span>","null","","","","","","","","","","","","","","","","","","","","","","","feedback_test"
"","","","","","psychophysics","363","636554","0.0-13.0-2.0-1.0-0.1-0.101","1382","","j","","","","","","","","","","","","","key","j","16.667774647886663","768","428","j","true","img/S_ambi40.png","坏人","simultaneous",""
"","","","","","html-keyboard-response","364","636866","0.0-13.0-2.0-1.0-0.1-1.101","null","<span style='color:GreenYellow; font-size: 70px;'>正确! </span>","null","","","","","","","","","","","","","","","","","","","","","","","feedback_test"
"","","","","","psychophysics","365","638692","0.0-13.0-2.0-1.0-0.1-0.102","816","","f","","","","","","","","","","","","","key","f","16.66625925925931","768","428","f","true","img/S_ambi40.png","常人","simultaneous",""
"","","","","","html-keyboard-response","366","638999","0.0-13.0-2.0-1.0-0.1-1.102","null","<span style='color:GreenYellow; font-size: 70px;'>正确! </span>","null","","","","","","","","","","","","","","","","","","","","","","","feedback_test"
"","","","","","psychophysics","367","640890","0.0-13.0-2.0-1.0-0.1-0.103","879","","f","","","","","","","","","","","","","key","f","16.667928571428224","768","428","j","false","img/C_ambi40.png","常人","simultaneous",""
"","","","","","html-keyboard-response","368","641204","0.0-13.0-2.0-1.0-0.1-1.103","null","<span style='color:red; font-size: 70px;'>错误! </span>","null","","","","","","","","","","","","","","","","","","","","","","","feedback_test"
"","","","","","psychophysics","369","643330","0.0-13.0-2.0-1.0-0.1-0.104","1118","","j","","","","","","","","","","","","","key","j","16.667811023622317","768","428","f","false","img/C_ambi40.png","好人","simultaneous",""
"","","","","","html-keyboard-response","370","643650","0.0-13.0-2.0-1.0-0.1-1.104","null","<span style='color:red; font-size: 70px;'>错误! </span>","null","","","","","","","","","","","","","","","","","","","","","","","feedback_test"
"","","","","","psychophysics","371","645671","0.0-13.0-2.0-1.0-0.1-0.105","1010","","j","","","","","","","","","","","","","key","j","16.667858333333665","768","428","j","true","img/T_ambi40.png","好人","simultaneous",""
"","","","","","html-keyboard-response","372","645975","0.0-13.0-2.0-1.0-0.1-1.105","null","<span style='color:GreenYellow; font-size: 70px;'>正确! </span>","null","","","","","","","","","","","","","","","","","","","","","","","feedback_test"
"","","","","","psychophysics","373","648418","0.0-13.0-2.0-1.0-0.1-0.106","1440","","j","","","","","","","","","","","","","key","j","16.667739726027335","768","428","j","true","img/S_ambi40.png","坏人","simultaneous",""
"","","","","","html-keyboard-response","374","648737","0.0-13.0-2.0-1.0-0.1-1.106","null","<span style='color:GreenYellow; font-size: 70px;'>正确! </span>","null","","","","","","","","","","","","","","","","","","","","","","","feedback_test"
"","","","","","psychophysics","375","650911","0.0-13.0-2.0-1.0-0.1-0.107","1166","","f","","","","","","","","","","","","","key","f","16.67106201550418","768","428","f","true","img/T_ambi40.png","坏人","simultaneous",""
"","","","","","html-keyboard-response","376","651215","0.0-13.0-2.0-1.0-0.1-1.107","null","<span style='color:GreenYellow; font-size: 70px;'>正确! </span>","null","","","","","","","","","","","","","","","","","","","","","","","feedback_test"
"","","","","","psychophysics","377","653019","0.0-13.0-2.0-1.0-0.1-0.108","790","","j","","","","","","","","","","","","","key","j","16.668757009346074","768","428","j","true","img/S_ambi40.png","坏人","simultaneous",""
"","","","","","html-keyboard-response","378","653328","0.0-13.0-2.0-1.0-0.1-1.108","null","<span style='color:GreenYellow; font-size: 70px;'>正确! </span>","null","","","","","","","","","","","","","","","","","","","","","","","feedback_test"
"","","","","","psychophysics","379","655228","0.0-13.0-2.0-1.0-0.1-0.109","899","","f","","","","","","","","","","","","","key","f","16.663142857142834","768","428","f","true","img/C_ambi40.png","好人","simultaneous",""
"","","","","","html-keyboard-response","380","655540","0.0-13.0-2.0-1.0-0.1-1.109","null","<span style='color:GreenYellow; font-size: 70px;'>正确! </span>","null","","","","","","","","","","","","","","","","","","","","","","","feedback_test"
"","","","","","psychophysics","381","658046","0.0-13.0-2.0-1.0-0.1-0.110","null","","null","","","","","","","","","","","","","key","null","16.670120805369116","768","428","f","false","img/T_ambi40.png","坏人","simultaneous",""
"","","","","","html-keyboard-response","382","658364","0.0-13.0-2.0-1.0-0.1-1.110","null","<span class='add_' style='color:yellow; font-size: 70px;'> 太慢! </span>","null","","","","","","","","","","","","","","","","","","","","","","","feedback_test"
"","","","","","psychophysics","383","660587","0.0-13.0-2.0-1.0-0.1-0.111","1209","","f","","","","","","","","","","","","","key","f","16.667909090909014","768","428","f","true","img/S_ambi40.png","常人","simultaneous",""
"","","","","","html-keyboard-response","384","660901","0.0-13.0-2.0-1.0-0.1-1.111","null","<span style='color:GreenYellow; font-size: 70px;'>正确! </span>","null","","","","","","","","","","","","","","","","","","","","","","","feedback_test"
"","","","","","psychophysics","385","663229","0.0-13.0-2.0-1.0-0.1-0.112","1317","","j","","","","","","","","","","","","","key","j","16.667826086955916","768","428","j","true","img/T_ambi40.png","好人","simultaneous",""
"","","","","","html-keyboard-response","386","663534","0.0-13.0-2.0-1.0-0.1-1.112","null","<span style='color:GreenYellow; font-size: 70px;'>正确! </span>","null","","","","","","","","","","","","","","","","","","","","","","","feedback_test"
"","","","","","psychophysics","387","665442","0.0-13.0-2.0-1.0-0.1-0.113","895","","f","","","","","","","","","","","","","key","f","16.66715044247716","768","428","j","false","img/C_ambi40.png","常人","simultaneous",""
"","","","","","html-keyboard-response","388","665762","0.0-13.0-2.0-1.0-0.1-1.113","null","<span style='color:red; font-size: 70px;'>错误! </span>","null","","","","","","","","","","","","","","","","","","","","","","","feedback_test"
"","","","","","psychophysics","389","667673","0.0-13.0-2.0-1.0-0.1-0.114","910","","j","","","","","","","","","","","","","key","j","16.54926548672601","768","428","j","true","img/T_ambi40.png","好人","simultaneous",""
"","","","","","html-keyboard-response","390","667997","0.0-13.0-2.0-1.0-0.1-1.114","null","<span style='color:GreenYellow; font-size: 70px;'>正确! </span>","null","","","","","","","","","","","","","","","","","","","","","","","feedback_test"
"","","","","","psychophysics","391","669891","0.0-13.0-2.0-1.0-0.1-0.115","883","","j","","","","","","","","","","","","","key","j","16.66952678571397","768","428","j","true","img/S_ambi40.png","坏人","simultaneous",""
"","","","","","html-keyboard-response","392","670214","0.0-13.0-2.0-1.0-0.1-1.115","null","<span style='color:GreenYellow; font-size: 70px;'>正确! </span>","null","","","","","","","","","","","","","","","","","","","","","","","feedback_test"
"","","","","","psychophysics","393","672207","0.0-13.0-2.0-1.0-0.1-0.116","981","","f","","","","","","","","","","","","","key","f","16.668872881356144","768","428","f","true","img/C_ambi40.png","坏人","simultaneous",""
"","","","","","html-keyboard-response","394","672518","0.0-13.0-2.0-1.0-0.1-1.116","null","<span style='color:GreenYellow; font-size: 70px;'>正确! </span>","null","","","","","","","","","","","","","","","","","","","","","","","feedback_test"
"","","","","","psychophysics","395","674547","0.0-13.0-2.0-1.0-0.1-0.117","1017","","f","","","","","","","","","","","","","key","f","16.666561983470913","768","428","f","true","img/S_ambi40.png","好人","simultaneous",""
"","","","","","html-keyboard-response","396","674864","0.0-13.0-2.0-1.0-0.1-1.117","null","<span style='color:GreenYellow; font-size: 70px;'>正确! </span>","null","","","","","","","","","","","","","","","","","","","","","","","feedback_test"
"","","","","","psychophysics","397","677206","0.0-13.0-2.0-1.0-0.1-0.118","1325","","f","","","","","","","","","","","","","key","f","16.66928057553893","768","428","j","false","img/C_ambi40.png","常人","simultaneous",""
"","","","","","html-keyboard-response","398","677517","0.0-13.0-2.0-1.0-0.1-1.118","null","<span style='color:red; font-size: 70px;'>错误! </span>","null","","","","","","","","","","","","","","","","","","","","","","","feedback_test"
"","","","","","psychophysics","399","679502","0.0-13.0-2.0-1.0-0.1-0.119","974","","f","","","","","","","","","","","","","key","f","16.664881355932252","768","428","f","true","img/T_ambi40.png","常人","simultaneous",""
"","","","","","html-keyboard-response","400","679808","0.0-13.0-2.0-1.0-0.1-1.119","null","<span style='color:GreenYellow; font-size: 70px;'>正确! </span>","null","","","","","","","","","","","","","","","","","","","","","","","feedback_test"
"","","","","","html-keyboard-response","401","684917","0.0-13.0-2.0-1.0-1.1","5107","<style>.context{color:white; font-size: 35px; line-height:40px}</style>                              <div><p class='context'>您正确回答了67% 的试次。</p><p class='context'>您的平均反应时为1051毫秒。</p><p class='context'>请按任意键进入休息</p></div>","j","","","","","","","","","","","","","","","","","","","","","","",""
"","","","","","html-button-response","402","735729","0.0-13.0-2.0-1.0-2.1","50809","
                      <p>您当前还剩余2组实验</p>
                      <p>现在是休息时间，当您结束休息后，您可以点击 结束休息 按钮 继续</p>
                      <p>建议休息时间还剩余<span id=""iii"">60</span>秒</p>","0","","","","","","","","","","","","","","","","","","","","","","",""
"","","","","","psychophysics","403","737460","0.0-13.0-2.0-1.0-0.2-0.120","726","","j","","","","","","","","","","","","","key","j","16.66763106796063","768","428","j","true","img/T_ambi40.png","好人","simultaneous",""
"","","","","","html-keyboard-response","404","737775","0.0-13.0-2.0-1.0-0.2-1.120","null","<span style='color:GreenYellow; font-size: 70px;'>正确! </span>","null","","","","","","","","","","","","","","","","","","","","","","","feedback_test"
"","","","","","psychophysics","405","739690","0.0-13.0-2.0-1.0-0.2-0.121","908","","f","","","","","","","","","","","","","key","f","16.669824561403388","768","428","f","true","img/C_ambi40.png","好人","simultaneous",""
"","","","","","html-keyboard-response","406","739999","0.0-13.0-2.0-1.0-0.2-1.121","null","<span style='color:GreenYellow; font-size: 70px;'>正确! </span>","null","","","","","","","","","","","","","","","","","","","","","","","feedback_test"
"","","","","","psychophysics","407","741808","0.0-13.0-2.0-1.0-0.2-0.122","807","","j","","","","","","","","","","","","","key","j","16.53776635513989","768","428","j","true","img/T_ambi40.png","好人","simultaneous",""
"","","","","","html-keyboard-response","408","742120","0.0-13.0-2.0-1.0-0.2-1.122","null","<span style='color:GreenYellow; font-size: 70px;'>正确! </span>","null","","","","","","","","","","","","","","","","","","","","","","","feedback_test"
"","","","","","psychophysics","409","744399","0.0-13.0-2.0-1.0-0.2-0.123","1265","","f","","","","","","","","","","","","","key","f","16.668103703702972","768","428","j","false","img/C_ambi40.png","常人","simultaneous",""
"","","","","","html-keyboard-response","410","744717","0.0-13.0-2.0-1.0-0.2-1.123","null","<span style='color:red; font-size: 70px;'>错误! </span>","null","","","","","","","","","","","","","","","","","","","","","","","feedback_test"
"","","","","","psychophysics","411","746675","0.0-13.0-2.0-1.0-0.2-0.124","957","","f","","","","","","","","","","","","","key","f","16.55021551724098","768","428","f","true","img/S_ambi40.png","好人","simultaneous",""
"","","","","","html-keyboard-response","412","746985","0.0-13.0-2.0-1.0-0.2-1.124","null","<span style='color:GreenYellow; font-size: 70px;'>正确! </span>","null","","","","","","","","","","","","","","","","","","","","","","","feedback_test"
"","","","","","psychophysics","413","749281","0.0-13.0-2.0-1.0-0.2-0.125","1295","","j","","","","","","","","","","","","","key","j","16.671360294118024","768","428","j","true","img/C_ambi40.png","常人","simultaneous",""
"","","","","","html-keyboard-response","414","749595","0.0-13.0-2.0-1.0-0.2-1.125","null","<span style='color:GreenYellow; font-size: 70px;'>正确! </span>","null","","","","","","","","","","","","","","","","","","","","","","","feedback_test"
"","","","","","psychophysics","415","751876","0.0-13.0-2.0-1.0-0.2-0.126","1275","","j","","","","","","","","","","","","","key","j","16.670867647058913","768","428","j","true","img/S_ambi40.png","坏人","simultaneous",""
"","","","","","html-keyboard-response","416","752187","0.0-13.0-2.0-1.0-0.2-1.126","null","<span style='color:GreenYellow; font-size: 70px;'>正确! </span>","null","","","","","","","","","","","","","","","","","","","","","","","feedback_test"
"","","","","","psychophysics","417","754629","0.0-13.0-2.0-1.0-0.2-0.127","1428","","j","","","","","","","","","","","","","key","j","16.67217241379288","768","428","j","true","img/S_ambi40.png","坏人","simultaneous",""
"","","","","","html-keyboard-response","418","754933","0.0-13.0-2.0-1.0-0.2-1.127","null","<span style='color:GreenYellow; font-size: 70px;'>正确! </span>","null","","","","","","","","","","","","","","","","","","","","","","","feedback_test"
"","","","","","psychophysics","419","756695","0.0-13.0-2.0-1.0-0.2-0.128","760","","f","","","","","","","","","","","","","key","f","16.667447619047017","768","428","f","true","img/S_ambi40.png","常人","simultaneous",""
"","","","","","html-keyboard-response","420","757013","0.0-13.0-2.0-1.0-0.2-1.128","null","<span style='color:GreenYellow; font-size: 70px;'>正确! </span>","null","","","","","","","","","","","","","","","","","","","","","","","feedback_test"
"","","","","","psychophysics","421","758953","0.0-13.0-2.0-1.0-0.2-0.129","935","","f","","","","","","","","","","","","","key","f","16.667568965516946","768","428","f","true","img/T_ambi40.png","坏人","simultaneous",""
"","","","","","html-keyboard-response","422","759275","0.0-13.0-2.0-1.0-0.2-1.129","null","<span style='color:GreenYellow; font-size: 70px;'>正确! </span>","null","","","","","","","","","","","","","","","","","","","","","","","feedback_test"
"","","","","","psychophysics","423","761784","0.0-13.0-2.0-1.0-0.2-0.130","null","","null","","","","","","","","","","","","","key","null","16.66493288590651","768","428","f","false","img/C_ambi40.png","坏人","simultaneous",""
"","","","","","html-keyboard-response","424","762090","0.0-13.0-2.0-1.0-0.2-1.130","null","<span class='add_' style='color:yellow; font-size: 70px;'> 太慢! </span>","null","","","","","","","","","","","","","","","","","","","","","","","feedback_test"
"","","","","","psychophysics","425","764211","0.0-13.0-2.0-1.0-0.2-0.131","1109","","f","","","","","","","","","","","","","key","f","16.667539682539573","768","428","f","true","img/T_ambi40.png","常人","simultaneous",""
"","","","","","html-keyboard-response","426","764519","0.0-13.0-2.0-1.0-0.2-1.131","null","<span style='color:GreenYellow; font-size: 70px;'>正确! </span>","null","","","","","","","","","","","","","","","","","","","","","","","feedback_test"
"","","","","","psychophysics","427","766765","0.0-13.0-2.0-1.0-0.2-0.132","1232","","f","","","","","","","","","","","","","key","f","16.66687218045126","768","428","j","false","img/C_ambi40.png","常人","simultaneous",""
"","","","","","html-keyboard-response","428","767071","0.0-13.0-2.0-1.0-0.2-1.132","null","<span style='color:red; font-size: 70px;'>错误! </span>","null","","","","","","","","","","","","","","","","","","","","","","","feedback_test"
"","","","","","psychophysics","429","769067","0.0-13.0-2.0-1.0-0.2-0.133","981","","f","","","","","","","","","","","","","key","f","16.663991525423935","768","428","f","true","img/S_ambi40.png","好人","simultaneous",""
"","","","","","html-keyboard-response","430","769374","0.0-13.0-2.0-1.0-0.2-1.133","null","<span style='color:GreenYellow; font-size: 70px;'>正确! </span>","null","","","","","","","","","","","","","","","","","","","","","","","feedback_test"
"","","","","","psychophysics","431","771522","0.0-13.0-2.0-1.0-0.2-0.134","1136","","f","","","","","","","","","","","","","key","f","16.666335937499753","768","428","f","true","img/C_ambi40.png","好人","simultaneous",""
