"success","timeout","failed_images","failed_audio","failed_video","trial_type","trial_index","time_elapsed","internal_node_id","rt","stimulus","response","value","item_width_mm","item_height_mm","item_width_px","px2mm","view_dist_mm","item_width_deg","px2deg","scale_factor","win_width_deg","win_height_deg","view_history","response_type","key_press","avg_frame_time","center_x","center_y","correct_response","correct","Image","word","condition","screen_id"
"true","false","[]","[]","[]","preload","0","265","0.0-0.0","","","","","","","","","","","","","","","","","","","","","","","","","",""
"","","","","","html-keyboard-response","1","5377","0.0-1.0","5109","
     <p>您好，欢迎参加本次实验。</p>
     <p>为充分保障您的权利，请确保您已经知晓并同意《参与实验同意书》以及《数据公开知情同意书》。</p>
     <p>如果您未见过上述内容，请咨询实验员。</p>
     <p>如果您选择继续实验，则表示您已经清楚两份知情同意书的内容并同意。</p>
     <p> <div style = ""color: green""><按任意键至下页></div> </p>
     ","j","","","","","","","","","","","","","","","","","","","","","","",""
"","","","","","html-keyboard-response","2","6580","0.0-2.0","1203","
     <p>本实验首先需要您填写一些基本个人信息。</p>
     <p> <div style = ""color: green""><按任意键至下页></div></p>
     ","j","","","","","","","","","","","","","","","","","","","","","","",""
"","","","","","call-function","3","6584","0.0-3.0-0.0","","","","","","","","","","","","","","","","","","","","","","","","","",""
"","","","","","survey-html-form","4","13819","0.0-3.0-1.0","7232","","{""Q0"":""20""}","","","","","","","","","","","","","","","","","","","","","","",""
"","","","","","html-button-response","5","14899","0.0-3.0-2.0","1077","<p style = 'color : white'>您的性别</p>","1","","","","","","","","","","","","","","","","","","","","","","",""
"","","","","","survey-html-form","6","19305","0.0-3.0-3.0","4405","","{""Q0"":""2001""}","","","","","","","","","","","","","","","","","","","","","","",""
"","","","","","survey-html-form","7","22095","0.0-3.0-4.0","2789","","{""Q0"":""5""}","","","","","","","","","","","","","","","","","","","","","","",""
"","","","","","virtual-chinrest","8","88060","0.0-4.0","65962","","","","85.6","53.98","437.47400259280266","5.115436749894677","559.46","8.749480051856052","50","0.8640513442163086","29.8","15.08","","","","","","","","","","","",""
"true","","","","","fullscreen","9","91989","0.0-5.0","","","","","","","","","","","","","","","","","","","","","","","","","",""
"","","","","","instructions","10","136811","0.0-6.0","44822","","","","","","","","","","","","","","[{""page_index"":0,""viewing_time"":7806},{""page_index"":1,""viewing_time"":27547},{""page_index"":2,""viewing_time"":6318},{""page_index"":3,""viewing_time"":3150}]","","","","","","","","","","",""
"","","","","","psychophysics","11","139485","0.0-7.0-0.0-0.0","null","","null","","","","","","","","","","","","","key","null","16.6490000000001","768","428","j","false","img/T_ambi40.png","常人","prac_image_first",""
"","","","","","html-keyboard-response","12","139788","0.0-7.0-0.0-1.0","null","<span class='add_' style='color:yellow; font-size: 70px;'> 太慢! </span>","null","","","","","","","","","","","","","","","","","","","","","","","feedback_test"
"","","","","","psychophysics","13","142453","0.0-7.0-0.0-0.1","null","","null","","","","","","","","","","","","","key","null","16.557373417721532","768","428","f","false","img/S_ambi40.png","好人","prac_image_first",""
"","","","","","html-keyboard-response","14","142763","0.0-7.0-0.0-1.1","null","<span class='add_' style='color:yellow; font-size: 70px;'> 太慢! </span>","null","","","","","","","","","","","","","","","","","","","","","","","feedback_test"
"","","","","","psychophysics","15","145417","0.0-7.0-0.0-0.2","null","","null","","","","","","","","","","","","","key","null","16.648664556962036","768","428","f","false","img/T_ambi40.png","坏人","prac_image_first",""
"","","","","","html-keyboard-response","16","145727","0.0-7.0-0.0-1.2","null","<span class='add_' style='color:yellow; font-size: 70px;'> 太慢! </span>","null","","","","","","","","","","","","","","","","","","","","","","","feedback_test"
"","","","","","psychophysics","17","147872","0.0-7.0-0.0-0.3","989","","j","","","","","","","","","","","","","key","j","16.648617187500122","768","428","j","true","img/S_ambi40.png","坏人","prac_image_first",""
"","","","","","html-keyboard-response","18","148191","0.0-7.0-0.0-1.3","null","<span style='color:GreenYellow; font-size: 70px;'>正确! </span>","null","","","","","","","","","","","","","","","","","","","","","","","feedback_test"
"","","","","","psychophysics","19","150258","0.0-7.0-0.0-0.4","912","","f","","","","","","","","","","","","","key","f","16.65200813008142","768","428","f","true","img/C_ambi40.png","常人","prac_image_first",""
"","","","","","html-keyboard-response","20","150569","0.0-7.0-0.0-1.4","null","<span style='color:GreenYellow; font-size: 70px;'>正确! </span>","null","","","","","","","","","","","","","","","","","","","","","","","feedback_test"
"","","","","","psychophysics","21","152437","0.0-7.0-0.0-0.5","714","","f","","","","","","","","","","","","","key","f","16.650072072072035","768","428","f","true","img/C_ambi40.png","常人","prac_image_first",""
"","","","","","html-keyboard-response","22","152745","0.0-7.0-0.0-1.5","null","<span style='color:GreenYellow; font-size: 70px;'>正确! </span>","null","","","","","","","","","","","","","","","","","","","","","","","feedback_test"
"","","","","","psychophysics","23","154889","0.0-7.0-0.0-0.6","989","","j","","","","","","","","","","","","","key","j","16.648905511810966","768","428","f","false","img/S_ambi40.png","好人","prac_image_first",""
"","","","","","html-keyboard-response","24","155211","0.0-7.0-0.0-1.6","null","<span style='color:red; font-size: 70px;'>错误! </span>","null","","","","","","","","","","","","","","","","","","","","","","","feedback_test"
"","","","","","psychophysics","25","157868","0.0-7.0-0.0-0.7","null","","null","","","","","","","","","","","","","key","null","16.648727848101334","768","428","j","false","img/S_ambi40.png","常人","prac_image_first",""
"","","","","","html-keyboard-response","26","158183","0.0-7.0-0.0-1.7","null","<span class='add_' style='color:yellow; font-size: 70px;'> 太慢! </span>","null","","","","","","","","","","","","","","","","","","","","","","","feedback_test"
"","","","","","psychophysics","27","160844","0.0-7.0-0.0-0.8","null","","null","","","","","","","","","","","","","key","null","16.649540880503157","768","428","f","false","img/T_ambi40.png","坏人","prac_image_first",""
"","","","","","html-keyboard-response","28","161155","0.0-7.0-0.0-1.8","null","<span class='add_' style='color:yellow; font-size: 70px;'> 太慢! </span>","null","","","","","","","","","","","","","","","","","","","","","","","feedback_test"
"","","","","","psychophysics","29","163812","0.0-7.0-0.0-0.9","null","","null","","","","","","","","","","","","","key","null","16.648493670886072","768","428","j","false","img/C_ambi40.png","好人","prac_image_first",""
"","","","","","html-keyboard-response","30","164116","0.0-7.0-0.0-1.9","null","<span class='add_' style='color:yellow; font-size: 70px;'> 太慢! </span>","null","","","","","","","","","","","","","","","","","","","","","","","feedback_test"
"","","","","","psychophysics","31","166772","0.0-7.0-0.0-0.10","null","","null","","","","","","","","","","","","","key","null","16.648335443038007","768","428","j","false","img/T_ambi40.png","好人","prac_image_first",""
"","","","","","html-keyboard-response","32","167076","0.0-7.0-0.0-1.10","null","<span class='add_' style='color:yellow; font-size: 70px;'> 太慢! </span>","null","","","","","","","","","","","","","","","","","","","","","","","feedback_test"
"","","","","","psychophysics","33","169035","0.0-7.0-0.0-0.11","808","","j","","","","","","","","","","","","","key","j","16.5335086206898","768","428","j","true","img/C_ambi40.png","坏人","prac_image_first",""
"","","","","","html-keyboard-response","34","169347","0.0-7.0-0.0-1.11","null","<span style='color:GreenYellow; font-size: 70px;'>正确! </span>","null","","","","","","","","","","","","","","","","","","","","","","","feedback_test"
"","","","","","psychophysics","35","171562","0.0-7.0-0.0-0.12","1055","","f","","","","","","","","","","","","","key","f","16.64808333333349","768","428","f","true","img/T_ambi40.png","坏人","prac_image_first",""
"","","","","","html-keyboard-response","36","171880","0.0-7.0-0.0-1.12","null","<span style='color:GreenYellow; font-size: 70px;'>正确! </span>","null","","","","","","","","","","","","","","","","","","","","","","","feedback_test"
"","","","","","psychophysics","37","173774","0.0-7.0-0.0-0.13","737","","j","","","","","","","","","","","","","key","j","16.649221238937997","768","428","f","false","img/S_ambi40.png","好人","prac_image_first",""
"","","","","","html-keyboard-response","38","174086","0.0-7.0-0.0-1.13","null","<span style='color:red; font-size: 70px;'>错误! </span>","null","","","","","","","","","","","","","","","","","","","","","","","feedback_test"
"","","","","","psychophysics","39","176741","0.0-7.0-0.0-0.14","null","","null","","","","","","","","","","","","","key","null","16.649145569620266","768","428","j","false","img/C_ambi40.png","坏人","prac_image_first",""
"","","","","","html-keyboard-response","40","177057","0.0-7.0-0.0-1.14","null","<span class='add_' style='color:yellow; font-size: 70px;'> 太慢! </span>","null","","","","","","","","","","","","","","","","","","","","","","","feedback_test"
"","","","","","psychophysics","41","178937","0.0-7.0-0.0-0.15","724","","j","","","","","","","","","","","","","key","j","16.648616071428478","768","428","j","true","img/C_ambi40.png","好人","prac_image_first",""
"","","","","","html-keyboard-response","42","179259","0.0-7.0-0.0-1.15","null","<span style='color:GreenYellow; font-size: 70px;'>正确! </span>","null","","","","","","","","","","","","","","","","","","","","","","","feedback_test"
"","","","","","psychophysics","43","181410","0.0-7.0-0.0-0.16","998","","j","","","","","","","","","","","","","key","j","16.650890624999874","768","428","j","true","img/T_ambi40.png","好人","prac_image_first",""
"","","","","","html-keyboard-response","44","181720","0.0-7.0-0.0-1.16","null","<span style='color:GreenYellow; font-size: 70px;'>正确! </span>","null","","","","","","","","","","","","","","","","","","","","","","","feedback_test"
"","","","","","psychophysics","45","183784","0.0-7.0-0.0-0.17","907","","f","","","","","","","","","","","","","key","f","16.649373983739775","768","428","f","true","img/T_ambi40.png","坏人","prac_image_first",""
"","","","","","html-keyboard-response","46","184107","0.0-7.0-0.0-1.17","null","<span style='color:GreenYellow; font-size: 70px;'>正确! </span>","null","","","","","","","","","","","","","","","","","","","","","","","feedback_test"
"","","","","","psychophysics","47","186049","0.0-7.0-0.0-0.18","789","","j","","","","","","","","","","","","","key","j","16.542191304347945","768","428","f","false","img/S_ambi40.png","好人","prac_image_first",""
"","","","","","html-keyboard-response","48","186361","0.0-7.0-0.0-1.18","null","<span style='color:red; font-size: 70px;'>错误! </span>","null","","","","","","","","","","","","","","","","","","","","","","","feedback_test"
"","","","","","psychophysics","49","188668","0.0-7.0-0.0-0.19","1152","","j","","","","","","","","","","","","","key","j","16.649824817518127","768","428","j","true","img/S_ambi40.png","常人","prac_image_first",""
"","","","","","html-keyboard-response","50","188979","0.0-7.0-0.0-1.19","null","<span style='color:GreenYellow; font-size: 70px;'>正确! </span>","null","","","","","","","","","","","","","","","","","","","","","","","feedback_test"
"","","","","","psychophysics","51","191110","0.0-7.0-0.0-0.20","977","","j","","","","","","","","","","","","","key","j","16.650637795275543","768","428","j","true","img/S_ambi40.png","坏人","prac_image_first",""
"","","","","","html-keyboard-response","52","191427","0.0-7.0-0.0-1.20","null","<span style='color:GreenYellow; font-size: 70px;'>正确! </span>","null","","","","","","","","","","","","","","","","","","","","","","","feedback_test"
"","","","","","psychophysics","53","193459","0.0-7.0-0.0-0.21","876","","f","","","","","","","","","","","","","key","f","16.651471074380236","768","428","f","true","img/C_ambi40.png","常人","prac_image_first",""
"","","","","","html-keyboard-response","54","193778","0.0-7.0-0.0-1.21","null","<span style='color:GreenYellow; font-size: 70px;'>正确! </span>","null","","","","","","","","","","","","","","","","","","","","","","","feedback_test"
"","","","","","psychophysics","55","195949","0.0-7.0-0.0-0.22","1017","","j","","","","","","","","","","","","","key","j","16.649815384615348","768","428","j","true","img/T_ambi40.png","常人","prac_image_first",""
"","","","","","html-keyboard-response","56","196253","0.0-7.0-0.0-1.22","null","<span style='color:GreenYellow; font-size: 70px;'>正确! </span>","null","","","","","","","","","","","","","","","","","","","","","","","feedback_test"
"","","","","","psychophysics","57","198073","0.0-7.0-0.0-0.23","661","","j","","","","","","","","","","","","","key","j","16.64887037037045","768","428","f","false","img/C_ambi40.png","常人","prac_image_first",""
"","","","","","html-keyboard-response","58","198389","0.0-7.0-0.0-1.23","null","<span style='color:red; font-size: 70px;'>错误! </span>","null","","","","","","","","","","","","","","","","","","","","","","","feedback_test"
"","","","","","html-keyboard-response","59","204372","0.0-7.0-1.0-0.0","5981","<style>.context{color:white; font-size: 35px; line-height:40px}</style>                              <div><p class='context'>您正确回答了50% 的试次。</p><p class='context'>您的平均反应时为927毫秒。</p>","j","","","","","","","","","","","","","","","","","","","","","","",""
"","","","","","instructions","60","228139","0.0-7.0-1.0-1.0","23762","","","","","","","","","","","","","","[{""page_index"":0,""viewing_time"":6893},{""page_index"":1,""viewing_time"":14990},{""page_index"":2,""viewing_time"":1879}]","","","","","","","","","","",""
"","","","","","psychophysics","61","230432","0.0-7.1-0.1-0.24","1136","","j","","","","","","","","","","","","","key","j","16.651343065693407","768","428","f","false","img/S_ambi40.png","好人","prac_image_first",""
"","","","","","html-keyboard-response","62","230751","0.0-7.1-0.1-1.24","null","<span style='color:red; font-size: 70px;'>错误! </span>","null","","","","","","","","","","","","","","","","","","","","","","","feedback_test"
"","","","","","psychophysics","63","233405","0.0-7.1-0.1-0.25","null","","null","","","","","","","","","","","","","key","null","16.64887974683536","768","428","f","false","img/T_ambi40.png","坏人","prac_image_first",""
"","","","","","html-keyboard-response","64","233710","0.0-7.1-0.1-1.25","null","<span class='add_' style='color:yellow; font-size: 70px;'> 太慢! </span>","null","","","","","","","","","","","","","","","","","","","","","","","feedback_test"
"","","","","","psychophysics","65","236366","0.0-7.1-0.1-0.26","null","","null","","","","","","","","","","","","","key","null","16.649215189873424","768","428","j","false","img/C_ambi40.png","坏人","prac_image_first",""
"","","","","","html-keyboard-response","66","236676","0.0-7.1-0.1-1.26","null","<span class='add_' style='color:yellow; font-size: 70px;'> 太慢! </span>","null","","","","","","","","","","","","","","","","","","","","","","","feedback_test"
"","","","","","psychophysics","67","238982","0.0-7.1-0.1-0.27","1153","","j","","","","","","","","","","","","","key","j","16.64711678832116","768","428","j","true","img/S_ambi40.png","坏人","prac_image_first",""
"","","","","","html-keyboard-response","68","239295","0.0-7.1-0.1-1.27","null","<span style='color:GreenYellow; font-size: 70px;'>正确! </span>","null","","","","","","","","","","","","","","","","","","","","","","","feedback_test"
"","","","","","psychophysics","69","241802","0.0-7.1-0.1-0.28","1351","","f","","","","","","","","","","","","","key","f","16.64900000000004","768","428","j","false","img/T_ambi40.png","好人","prac_image_first",""
"","","","","","html-keyboard-response","70","242114","0.0-7.1-0.1-1.28","null","<span style='color:red; font-size: 70px;'>错误! </span>","null","","","","","","","","","","","","","","","","","","","","","","","feedback_test"
"","","","","","psychophysics","71","244611","0.0-7.1-0.1-0.29","1345","","f","","","","","","","","","","","","","key","f","16.56219594594586","768","428","f","true","img/T_ambi40.png","坏人","prac_image_first",""
"","","","","","html-keyboard-response","72","244919","0.0-7.1-0.1-1.29","null","<span style='color:GreenYellow; font-size: 70px;'>正确! </span>","null","","","","","","","","","","","","","","","","","","","","","","","feedback_test"
"","","","","","psychophysics","73","247187","0.0-7.1-0.1-0.30","1110","","j","","","","","","","","","","","","","key","j","16.64887407407406","768","428","j","true","img/C_ambi40.png","好人","prac_image_first",""
"","","","","","html-keyboard-response","74","247501","0.0-7.1-0.1-1.30","null","<span style='color:GreenYellow; font-size: 70px;'>正确! </span>","null","","","","","","","","","","","","","","","","","","","","","","","feedback_test"
"","","","","","psychophysics","75","250157","0.0-7.1-0.1-0.31","null","","null","","","","","","","","","","","","","key","null","16.648658227848177","768","428","f","false","img/S_ambi40.png","好人","prac_image_first",""
"","","","","","html-keyboard-response","76","250473","0.0-7.1-0.1-1.31","null","<span class='add_' style='color:yellow; font-size: 70px;'> 太慢! </span>","null","","","","","","","","","","","","","","","","","","","","","","","feedback_test"
"","","","","","psychophysics","77","252551","0.0-7.1-0.1-0.32","927","","j","","","","","","","","","","","","","key","j","16.649154471544637","768","428","j","true","img/S_ambi40.png","常人","prac_image_first",""
"","","","","","html-keyboard-response","78","252864","0.0-7.1-0.1-1.32","null","<span style='color:GreenYellow; font-size: 70px;'>正确! </span>","null","","","","","","","","","","","","","","","","","","","","","","","feedback_test"
"","","","","","psychophysics","79","255175","0.0-7.1-0.1-0.33","1155","","j","","","","","","","","","","","","","key","j","16.650847826086817","768","428","j","true","img/T_ambi40.png","常人","prac_image_first",""
"","","","","","html-keyboard-response","80","255485","0.0-7.1-0.1-1.33","null","<span style='color:GreenYellow; font-size: 70px;'>正确! </span>","null","","","","","","","","","","","","","","","","","","","","","","","feedback_test"
"","","","","","psychophysics","81","257480","0.0-7.1-0.1-0.34","842","","f","","","","","","","","","","","","","key","f","16.651406779660846","768","428","f","true","img/C_ambi40.png","常人","prac_image_first",""
"","","","","","html-keyboard-response","82","257796","0.0-7.1-0.1-1.34","null","<span style='color:GreenYellow; font-size: 70px;'>正确! </span>","null","","","","","","","","","","","","","","","","","","","","","","","feedback_test"
"","","","","","psychophysics","83","260025","0.0-7.1-0.1-0.35","1077","","f","","","","","","","","","","","","","key","f","16.649586466165335","768","428","f","true","img/C_ambi40.png","常人","prac_image_first",""
"","","","","","html-keyboard-response","84","260346","0.0-7.1-0.1-1.35","null","<span style='color:GreenYellow; font-size: 70px;'>正确! </span>","null","","","","","","","","","","","","","","","","","","","","","","","feedback_test"
"","","","","","psychophysics","85","262199","0.0-7.1-0.1-0.36","697","","j","","","","","","","","","","","","","key","j","16.64817272727272","768","428","j","true","img/T_ambi40.png","好人","prac_image_first",""
"","","","","","html-keyboard-response","86","262501","0.0-7.1-0.1-1.36","null","<span style='color:GreenYellow; font-size: 70px;'>正确! </span>","null","","","","","","","","","","","","","","","","","","","","","","","feedback_test"
"","","","","","psychophysics","87","264669","0.0-7.1-0.1-0.37","1009","","j","","","","","","","","","","","","","key","j","16.646961240309956","768","428","f","false","img/S_ambi40.png","好人","prac_image_first",""
"","","","","","html-keyboard-response","88","264982","0.0-7.1-0.1-1.37","null","<span style='color:red; font-size: 70px;'>错误! </span>","null","","","","","","","","","","","","","","","","","","","","","","","feedback_test"
"","","","","","psychophysics","89","267044","0.0-7.1-0.1-0.38","904","","j","","","","","","","","","","","","","key","j","16.650723577236164","768","428","j","true","img/C_ambi40.png","坏人","prac_image_first",""
"","","","","","html-keyboard-response","90","267351","0.0-7.1-0.1-1.38","null","<span style='color:GreenYellow; font-size: 70px;'>正确! </span>","null","","","","","","","","","","","","","","","","","","","","","","","feedback_test"
"","","","","","psychophysics","91","269362","0.0-7.1-0.1-0.39","858","","j","","","","","","","","","","","","","key","j","16.651216666666734","768","428","j","true","img/S_ambi40.png","常人","prac_image_first",""
"","","","","","html-keyboard-response","92","269683","0.0-7.1-0.1-1.39","null","<span style='color:GreenYellow; font-size: 70px;'>正确! </span>","null","","","","","","","","","","","","","","","","","","","","","","","feedback_test"
"","","","","","psychophysics","93","271857","0.0-7.1-0.1-0.40","1022","","j","","","","","","","","","","","","","key","j","16.649438461538654","768","428","j","true","img/T_ambi40.png","常人","prac_image_first",""
"","","","","","html-keyboard-response","94","272170","0.0-7.1-0.1-1.40","null","<span style='color:GreenYellow; font-size: 70px;'>正确! </span>","null","","","","","","","","","","","","","","","","","","","","","","","feedback_test"
"","","","","","psychophysics","95","274414","0.0-7.1-0.1-0.41","1089","","f","","","","","","","","","","","","","key","f","16.649240601504104","768","428","f","true","img/T_ambi40.png","坏人","prac_image_first",""
"","","","","","html-keyboard-response","96","274725","0.0-7.1-0.1-1.41","null","<span style='color:GreenYellow; font-size: 70px;'>正确! </span>","null","","","","","","","","","","","","","","","","","","","","","","","feedback_test"
"","","","","","psychophysics","97","276648","0.0-7.1-0.1-0.42","770","","f","","","","","","","","","","","","","key","f","16.64973043478246","768","428","f","true","img/C_ambi40.png","常人","prac_image_first",""
"","","","","","html-keyboard-response","98","276964","0.0-7.1-0.1-1.42","null","<span style='color:GreenYellow; font-size: 70px;'>正确! </span>","null","","","","","","","","","","","","","","","","","","","","","","","feedback_test"
"","","","","","psychophysics","99","279000","0.0-7.1-0.1-0.43","883","","j","","","","","","","","","","","","","key","j","16.650338842975138","768","428","j","true","img/C_ambi40.png","好人","prac_image_first",""
"","","","","","html-keyboard-response","100","279317","0.0-7.1-0.1-1.43","null","<span style='color:GreenYellow; font-size: 70px;'>正确! </span>","null","","","","","","","","","","","","","","","","","","","","","","","feedback_test"
"","","","","","psychophysics","101","281600","0.0-7.1-0.1-0.44","1124","","j","","","","","","","","","","","","","key","j","16.648749999999865","768","428","j","true","img/S_ambi40.png","坏人","prac_image_first",""
"","","","","","html-keyboard-response","102","281916","0.0-7.1-0.1-1.44","null","<span style='color:GreenYellow; font-size: 70px;'>正确! </span>","null","","","","","","","","","","","","","","","","","","","","","","","feedback_test"
"","","","","","psychophysics","103","284134","0.0-7.1-0.1-0.45","1065","","f","","","","","","","","","","","","","key","f","16.649598484848728","768","428","f","true","img/S_ambi40.png","好人","prac_image_first",""
"","","","","","html-keyboard-response","104","284447","0.0-7.1-0.1-1.45","null","<span style='color:GreenYellow; font-size: 70px;'>正确! </span>","null","","","","","","","","","","","","","","","","","","","","","","","feedback_test"
"","","","","","psychophysics","105","286661","0.0-7.1-0.1-0.46","1058","","f","","","","","","","","","","","","","key","f","16.65029545454529","768","428","f","true","img/T_ambi40.png","坏人","prac_image_first",""
"","","","","","html-keyboard-response","106","286976","0.0-7.1-0.1-1.46","null","<span style='color:GreenYellow; font-size: 70px;'>正确! </span>","null","","","","","","","","","","","","","","","","","","","","","","","feedback_test"
"","","","","","psychophysics","107","288990","0.0-7.1-0.1-0.47","857","","f","","","","","","","","","","","","","key","f","16.649958333333295","768","428","f","true","img/C_ambi40.png","常人","prac_image_first",""
"","","","","","html-keyboard-response","108","289310","0.0-7.1-0.1-1.47","null","<span style='color:GreenYellow; font-size: 70px;'>正确! </span>","null","","","","","","","","","","","","","","","","","","","","","","","feedback_test"
"","","","","","html-keyboard-response","109","295860","0.0-8.0","6547","<style>.context{color:white; font-size: 35px; line-height:40px}</style>                              <div><p class='context'>您正确回答了75% 的试次。</p><p class='context'>您的平均反应时为996毫秒。</p><p class='context'>恭喜您完成这一阶段的练习。按任意键进入<span style='color: yellow;'>先文字后图形条件</span>的练习。</p></div>","j","","","","","","","","","","","","","","","","","","","","","","",""
"","","","","","psychophysics","110","298114","0.0-9.0-0.0-0.0","1092","","f","","","","","","","","","","","","","key","f","16.649679104477833","768","428","f","true","img/S_ambi40.png","好人","prac_word_first",""
"","","","","","html-keyboard-response","111","298424","0.0-9.0-0.0-1.0","null","<span style='color:GreenYellow; font-size: 70px;'>正确! </span>","null","","","","","","","","","","","","","","","","","","","","","","","feedback_test"
"","","","","","psychophysics","112","300272","0.0-9.0-0.0-0.1","691","","j","","","","","","","","","","","","","key","j","16.649909090909006","768","428","j","true","img/C_ambi40.png","好人","prac_word_first",""
"","","","","","html-keyboard-response","113","300592","0.0-9.0-0.0-1.1","null","<span style='color:GreenYellow; font-size: 70px;'>正确! </span>","null","","","","","","","","","","","","","","","","","","","","","","","feedback_test"
"","","","","","psychophysics","114","302623","0.0-9.0-0.0-0.2","873","","j","","","","","","","","","","","","","key","j","16.648264462809937","768","428","j","true","img/T_ambi40.png","常人","prac_word_first",""
"","","","","","html-keyboard-response","115","302931","0.0-9.0-0.0-1.2","null","<span style='color:GreenYellow; font-size: 70px;'>正确! </span>","null","","","","","","","","","","","","","","","","","","","","","","","feedback_test"
"","","","","","psychophysics","116","304997","0.0-9.0-0.0-0.3","914","","j","","","","","","","","","","","","","key","j","16.652138211382024","768","428","j","true","img/T_ambi40.png","好人","prac_word_first",""
"","","","","","html-keyboard-response","117","305312","0.0-9.0-0.0-1.3","null","<span style='color:GreenYellow; font-size: 70px;'>正确! </span>","null","","","","","","","","","","","","","","","","","","","","","","","feedback_test"
"","","","","","psychophysics","118","307449","0.0-9.0-0.0-0.4","985","","j","","","","","","","","","","","","","key","j","16.649406250000084","768","428","j","true","img/S_ambi40.png","坏人","prac_word_first",""
"","","","","","html-keyboard-response","119","307762","0.0-9.0-0.0-1.4","null","<span style='color:GreenYellow; font-size: 70px;'>正确! </span>","null","","","","","","","","","","","","","","","","","","","","","","","feedback_test"
"","","","","","psychophysics","120","309910","0.0-9.0-0.0-0.5","996","","j","","","","","","","","","","","","","key","j","16.648606299212766","768","428","j","true","img/S_ambi40.png","常人","prac_word_first",""
"","","","","","html-keyboard-response","121","310224","0.0-9.0-0.0-1.5","null","<span style='color:GreenYellow; font-size: 70px;'>正确! </span>","null","","","","","","","","","","","","","","","","","","","","","","","feedback_test"
"","","","","","psychophysics","122","312345","0.0-9.0-0.0-0.6","968","","j","","","","","","","","","","","","","key","j","16.649708661417144","768","428","j","true","img/C_ambi40.png","坏人","prac_word_first",""
"","","","","","html-keyboard-response","123","312667","0.0-9.0-0.0-1.6","null","<span style='color:GreenYellow; font-size: 70px;'>正确! </span>","null","","","","","","","","","","","","","","","","","","","","","","","feedback_test"
"","","","","","psychophysics","124","314776","0.0-9.0-0.0-0.7","954","","f","","","","","","","","","","","","","key","f","16.650690476190658","768","428","f","true","img/C_ambi40.png","常人","prac_word_first",""
"","","","","","html-keyboard-response","125","315086","0.0-9.0-0.0-1.7","null","<span style='color:GreenYellow; font-size: 70px;'>正确! </span>","null","","","","","","","","","","","","","","","","","","","","","","","feedback_test"
"","","","","","psychophysics","126","317448","0.0-9.0-0.0-0.8","1210","","j","","","","","","","","","","","","","key","j","16.649127659574482","768","428","f","false","img/T_ambi40.png","坏人","prac_word_first",""
"","","","","","html-keyboard-response","127","317763","0.0-9.0-0.0-1.8","null","<span style='color:red; font-size: 70px;'>错误! </span>","null","","","","","","","","","","","","","","","","","","","","","","","feedback_test"
"","","","","","psychophysics","128","320137","0.0-9.0-0.0-0.9","1220","","f","","","","","","","","","","","","","key","f","16.650119718309725","768","428","f","true","img/S_ambi40.png","好人","prac_word_first",""
"","","","","","html-keyboard-response","129","320456","0.0-9.0-0.0-1.9","null","<span style='color:GreenYellow; font-size: 70px;'>正确! </span>","null","","","","","","","","","","","","","","","","","","","","","","","feedback_test"
"","","","","","psychophysics","130","323108","0.0-9.0-0.0-0.10","null","","null","","","","","","","","","","","","","key","null","16.64945569620254","768","428","f","false","img/T_ambi40.png","坏人","prac_word_first",""
"","","","","","html-keyboard-response","131","323421","0.0-9.0-0.0-1.10","null","<span class='add_' style='color:yellow; font-size: 70px;'> 太慢! </span>","null","","","","","","","","","","","","","","","","","","","","","","","feedback_test"
"","","","","","psychophysics","132","325282","0.0-9.0-0.0-0.11","709","","f","","","","","","","","","","","","","key","f","16.64956756756769","768","428","f","true","img/C_ambi40.png","常人","prac_word_first",""
"","","","","","html-keyboard-response","133","325590","0.0-9.0-0.0-1.11","null","<span style='color:GreenYellow; font-size: 70px;'>正确! </span>","null","","","","","","","","","","","","","","","","","","","","","","","feedback_test"
"","","","","","psychophysics","134","327552","0.0-9.0-0.0-0.12","809","","f","","","","","","","","","","","","","key","f","16.649495726496053","768","428","j","false","img/C_ambi40.png","好人","prac_word_first",""
"","","","","","html-keyboard-response","135","327862","0.0-9.0-0.0-1.12","null","<span style='color:red; font-size: 70px;'>错误! </span>","null","","","","","","","","","","","","","","","","","","","","","","","feedback_test"
"","","","","","psychophysics","136","330003","0.0-9.0-0.0-0.13","982","","j","","","","","","","","","","","","","key","j","16.64959055118081","768","428","j","true","img/S_ambi40.png","坏人","prac_word_first",""
"","","","","","html-keyboard-response","137","330321","0.0-9.0-0.0-1.13","null","<span style='color:GreenYellow; font-size: 70px;'>正确! </span>","null","","","","","","","","","","","","","","","","","","","","","","","feedback_test"
"","","","","","psychophysics","138","332520","0.0-9.0-0.0-0.14","1048","","f","","","","","","","","","","","","","key","f","16.64986153846168","768","428","f","true","img/T_ambi40.png","坏人","prac_word_first",""
"","","","","","html-keyboard-response","139","332843","0.0-9.0-0.0-1.14","null","<span style='color:GreenYellow; font-size: 70px;'>正确! </span>","null","","","","","","","","","","","","","","","","","","","","","","","feedback_test"
"","","","","","psychophysics","140","335132","0.0-9.0-0.0-0.15","1135","","f","","","","","","","","","","","","","key","f","16.646588235294022","768","428","f","true","img/T_ambi40.png","坏人","prac_word_first",""
"","","","","","html-keyboard-response","141","335445","0.0-9.0-0.0-1.15","null","<span style='color:GreenYellow; font-size: 70px;'>正确! </span>","null","","","","","","","","","","","","","","","","","","","","","","","feedback_test"
"","","","","","psychophysics","142","337284","0.0-9.0-0.0-0.16","685","","f","","","","","","","","","","","","","key","f","16.649236363636074","768","428","f","true","img/C_ambi40.png","常人","prac_word_first",""
"","","","","","html-keyboard-response","143","337597","0.0-9.0-0.0-1.16","null","<span style='color:GreenYellow; font-size: 70px;'>正确! </span>","null","","","","","","","","","","","","","","","","","","","","","","","feedback_test"
"","","","","","psychophysics","144","339566","0.0-9.0-0.0-0.17","818","","f","","","","","","","","","","","","","key","f","16.53441880341882","768","428","f","true","img/S_ambi40.png","好人","prac_word_first",""
"","","","","","html-keyboard-response","145","339872","0.0-9.0-0.0-1.17","null","<span style='color:GreenYellow; font-size: 70px;'>正确! </span>","null","","","","","","","","","","","","","","","","","","","","","","","feedback_test"
"","","","","","psychophysics","146","341793","0.0-9.0-0.0-0.18","764","","j","","","","","","","","","","","","","key","j","16.649052631578677","768","428","j","true","img/T_ambi40.png","好人","prac_word_first",""
"","","","","","html-keyboard-response","147","342104","0.0-9.0-0.0-1.18","null","<span style='color:GreenYellow; font-size: 70px;'>正确! </span>","null","","","","","","","","","","","","","","","","","","","","","","","feedback_test"
"","","","","","psychophysics","148","344766","0.0-9.0-0.0-0.19","null","","null","","","","","","","","","","","","","key","null","16.64901257861653","768","428","j","false","img/T_ambi40.png","常人","prac_word_first",""
"","","","","","html-keyboard-response","149","345083","0.0-9.0-0.0-1.19","null","<span class='add_' style='color:yellow; font-size: 70px;'> 太慢! </span>","null","","","","","","","","","","","","","","","","","","","","","","","feedback_test"
"","","","","","psychophysics","150","347006","0.0-9.0-0.0-0.20","770","","f","","","","","","","","","","","","","key","f","16.64890434782618","768","428","f","true","img/C_ambi40.png","常人","prac_word_first",""
"","","","","","html-keyboard-response","151","347311","0.0-9.0-0.0-1.20","null","<span style='color:GreenYellow; font-size: 70px;'>正确! </span>","null","","","","","","","","","","","","","","","","","","","","","","","feedback_test"
"","","","","","psychophysics","152","349255","0.0-9.0-0.0-0.21","786","","j","","","","","","","","","","","","","key","j","16.648551724137587","768","428","j","true","img/C_ambi40.png","坏人","prac_word_first",""
"","","","","","html-keyboard-response","153","349572","0.0-9.0-0.0-1.21","null","<span style='color:GreenYellow; font-size: 70px;'>正确! </span>","null","","","","","","","","","","","","","","","","","","","","","","","feedback_test"
"","","","","","psychophysics","154","352043","0.0-9.0-0.0-0.22","1318","","f","","","","","","","","","","","","","key","f","16.647646258503585","768","428","f","true","img/S_ambi40.png","好人","prac_word_first",""
"","","","","","html-keyboard-response","155","352358","0.0-9.0-0.0-1.22","null","<span style='color:GreenYellow; font-size: 70px;'>正确! </span>","null","","","","","","","","","","","","","","","","","","","","","","","feedback_test"
"","","","","","psychophysics","156","354210","0.0-9.0-0.0-0.23","695","","j","","","","","","","","","","","","","key","j","16.64909090909112","768","428","j","true","img/S_ambi40.png","常人","prac_word_first",""
"","","","","","html-keyboard-response","157","354525","0.0-9.0-0.0-1.23","null","<span style='color:GreenYellow; font-size: 70px;'>正确! </span>","null","","","","","","","","","","","","","","","","","","","","","","","feedback_test"
"","","","","","html-keyboard-response","158","356560","0.0-10.0","2033","<style>.context{color:white; font-size: 35px; line-height:40px}</style>                              <div><p class='context'>您正确回答了83% 的试次。</p><p class='context'>您的平均反应时为920毫秒。</p><p class='context'>恭喜您完成练习。按任意键进入<span style='color: yellow;'>图形和文字同时呈现条件</span>的练习。</p></div>","j","","","","","","","","","","","","","","","","","","","","","","",""
"","","","","","psychophysics","159","359076","0.0-11.0-0.0-0.0","null","","null","","","","","","","","","","","","","key","null","16.55077181208055","768","428","f","false","img/S_ambi40.png","好人","prac_simultaneous",""
"","","","","","html-keyboard-response","160","359383","0.0-11.0-0.0-1.0","null","<span class='add_' style='color:yellow; font-size: 70px;'> 太慢! </span>","null","","","","","","","","","","","","","","","","","","","","","","","feedback_test"
"","","","","","psychophysics","161","361480","0.0-11.0-0.0-0.1","1091","","j","","","","","","","","","","","","","key","j","16.647119999999646","768","428","j","true","img/C_ambi40.png","坏人","prac_simultaneous",""
"","","","","","html-keyboard-response","162","361795","0.0-11.0-0.0-1.1","null","<span style='color:GreenYellow; font-size: 70px;'>正确! </span>","null","","","","","","","","","","","","","","","","","","","","","","","feedback_test"
"","","","","","psychophysics","163","364301","0.0-11.0-0.0-0.2","null","","null","","","","","","","","","","","","","key","null","16.648550335570604","768","428","j","false","img/S_ambi40.png","常人","prac_simultaneous",""
"","","","","","html-keyboard-response","164","364613","0.0-11.0-0.0-1.2","null","<span class='add_' style='color:yellow; font-size: 70px;'> 太慢! </span>","null","","","","","","","","","","","","","","","","","","","","","","","feedback_test"
"","","","","","psychophysics","165","366541","0.0-11.0-0.0-0.3","921","","f","","","","","","","","","","","","","key","f","16.648939130434503","768","428","f","true","img/T_ambi40.png","坏人","prac_simultaneous",""
"","","","","","html-keyboard-response","166","366849","0.0-11.0-0.0-1.3","null","<span style='color:GreenYellow; font-size: 70px;'>正确! </span>","null","","","","","","","","","","","","","","","","","","","","","","","feedback_test"
"","","","","","psychophysics","167","369310","0.0-11.0-0.0-0.4","1460","","j","","","","","","","","","","","","","key","j","16.55809589041108","768","428","j","true","img/T_ambi40.png","好人","prac_simultaneous",""
"","","","","","html-keyboard-response","168","369612","0.0-11.0-0.0-1.4","null","<span style='color:GreenYellow; font-size: 70px;'>正确! </span>","null","","","","","","","","","","","","","","","","","","","","","","","feedback_test"
"","","","","","psychophysics","169","371522","0.0-11.0-0.0-0.5","909","","j","","","","","","","","","","","","","key","j","16.528752212389474","768","428","j","true","img/T_ambi40.png","常人","prac_simultaneous",""
"","","","","","html-keyboard-response","170","371837","0.0-11.0-0.0-1.5","null","<span style='color:GreenYellow; font-size: 70px;'>正确! </span>","null","","","","","","","","","","","","","","","","","","","","","","","feedback_test"
"","","","","","psychophysics","171","374167","0.0-11.0-0.0-0.6","1323","","f","","","","","","","","","","","","","key","f","16.6481654676257","768","428","f","true","img/S_ambi40.png","好人","prac_simultaneous",""
"","","","","","html-keyboard-response","172","374478","0.0-11.0-0.0-1.6","null","<span style='color:GreenYellow; font-size: 70px;'>正确! </span>","null","","","","","","","","","","","","","","","","","","","","","","","feedback_test"
"","","","","","psychophysics","173","376981","0.0-11.0-0.0-0.7","null","","null","","","","","","","","","","","","","key","null","16.64930872483243","768","428","j","false","img/S_ambi40.png","坏人","prac_simultaneous",""
"","","","","","html-keyboard-response","174","377297","0.0-11.0-0.0-1.7","null","<span class='add_' style='color:yellow; font-size: 70px;'> 太慢! </span>","null","","","","","","","","","","","","","","","","","","","","","","","feedback_test"
"","","","","","psychophysics","175","379085","0.0-11.0-0.0-0.8","785","","f","","","","","","","","","","","","","key","f","16.64732075471734","768","428","j","false","img/C_ambi40.png","好人","prac_simultaneous",""
"","","","","","html-keyboard-response","176","379394","0.0-11.0-0.0-1.8","null","<span style='color:red; font-size: 70px;'>错误! </span>","null","","","","","","","","","","","","","","","","","","","","","","","feedback_test"
"","","","","","psychophysics","177","381256","0.0-11.0-0.0-0.9","859","","f","","","","","","","","","","","","","key","f","16.64963963964004","768","428","f","true","img/C_ambi40.png","常人","prac_simultaneous",""
"","","","","","html-keyboard-response","178","381573","0.0-11.0-0.0-1.9","null","<span style='color:GreenYellow; font-size: 70px;'>正确! </span>","null","","","","","","","","","","","","","","","","","","","","","","","feedback_test"
"","","","","","psychophysics","179","383773","0.0-11.0-0.0-0.10","1192","","f","","","","","","","","","","","","","key","f","16.648961832061257","768","428","f","true","img/T_ambi40.png","坏人","prac_simultaneous",""
"","","","","","html-keyboard-response","180","384079","0.0-11.0-0.0-1.10","null","<span style='color:GreenYellow; font-size: 70px;'>正确! </span>","null","","","","","","","","","","","","","","","","","","","","","","","feedback_test"
"","","","","","psychophysics","181","386134","0.0-11.0-0.0-0.11","1052","","f","","","","","","","","","","","","","key","f","16.64920325203263","768","428","f","true","img/C_ambi40.png","常人","prac_simultaneous",""
"","","","","","html-keyboard-response","182","386450","0.0-11.0-0.0-1.11","null","<span style='color:GreenYellow; font-size: 70px;'>正确! </span>","null","","","","","","","","","","","","","","","","","","","","","","","feedback_test"
"","","","","","psychophysics","183","388289","0.0-11.0-0.0-0.12","829","","f","","","","","","","","","","","","","key","f","16.64712844036654","768","428","f","true","img/S_ambi40.png","好人","prac_simultaneous",""
"","","","","","html-keyboard-response","184","388612","0.0-11.0-0.0-1.12","null","<span style='color:GreenYellow; font-size: 70px;'>正确! </span>","null","","","","","","","","","","","","","","","","","","","","","","","feedback_test"
"","","","","","psychophysics","185","390561","0.0-11.0-0.0-0.13","939","","f","","","","","","","","","","","","","key","f","16.647620689655266","768","428","f","true","img/T_ambi40.png","坏人","prac_simultaneous",""
"","","","","","html-keyboard-response","186","390869","0.0-11.0-0.0-1.13","null","<span style='color:GreenYellow; font-size: 70px;'>正确! </span>","null","","","","","","","","","","","","","","","","","","","","","","","feedback_test"
"","","","","","psychophysics","187","392853","0.0-11.0-0.0-0.14","978","","f","","","","","","","","","","","","","key","f","16.648737288135898","768","428","f","true","img/S_ambi40.png","好人","prac_simultaneous",""
"","","","","","html-keyboard-response","188","393161","0.0-11.0-0.0-1.14","null","<span style='color:GreenYellow; font-size: 70px;'>正确! </span>","null","","","","","","","","","","","","","","","","","","","","","","","feedback_test"
"","","","","","psychophysics","189","394912","0.0-11.0-0.0-0.15","747","","j","","","","","","","","","","","","","key","j","16.6462788461543","768","428","f","false","img/T_ambi40.png","坏人","prac_simultaneous",""
"","","","","","html-keyboard-response","190","395228","0.0-11.0-0.0-1.15","null","<span style='color:red; font-size: 70px;'>错误! </span>","null","","","","","","","","","","","","","","","","","","","","","","","feedback_test"
"","","","","","psychophysics","191","397090","0.0-11.0-0.0-0.16","853","","f","","","","","","","","","","","","","key","f","16.649216216215905","768","428","f","true","img/C_ambi40.png","常人","prac_simultaneous",""
"","","","","","html-keyboard-response","192","397408","0.0-11.0-0.0-1.16","null","<span style='color:GreenYellow; font-size: 70px;'>正确! </span>","null","","","","","","","","","","","","","","","","","","","","","","","feedback_test"
"","","","","","psychophysics","193","399471","0.0-11.0-0.0-0.17","1058","","j","","","","","","","","","","","","","key","j","16.6491707317073","768","428","j","true","img/C_ambi40.png","好人","prac_simultaneous",""
"","","","","","html-keyboard-response","194","399786","0.0-11.0-0.0-1.17","null","<span style='color:GreenYellow; font-size: 70px;'>正确! </span>","null","","","","","","","","","","","","","","","","","","","","","","","feedback_test"
"","","","","","psychophysics","195","401683","0.0-11.0-0.0-0.18","894","","f","","","","","","","","","","","","","key","f","16.649902654867372","768","428","f","true","img/C_ambi40.png","常人","prac_simultaneous",""
"","","","","","html-keyboard-response","196","402000","0.0-11.0-0.0-1.18","null","<span style='color:GreenYellow; font-size: 70px;'>正确! </span>","null","","","","","","","","","","","","","","","","","","","","","","","feedback_test"
"","","","","","psychophysics","197","403800","0.0-11.0-0.0-0.19","795","","j","","","","","","","","","","","","","key","j","16.649327102803763","768","428","j","true","img/T_ambi40.png","好人","prac_simultaneous",""
"","","","","","html-keyboard-response","198","404118","0.0-11.0-0.0-1.19","null","<span style='color:GreenYellow; font-size: 70px;'>正确! </span>","null","","","","","","","","","","","","","","","","","","","","","","","feedback_test"
"","","","","","psychophysics","199","405896","0.0-11.0-0.0-0.20","772","","j","","","","","","","","","","","","","key","j","16.64906603773564","768","428","j","true","img/S_ambi40.png","坏人","prac_simultaneous",""
"","","","","","html-keyboard-response","200","406206","0.0-11.0-0.0-1.20","null","<span style='color:GreenYellow; font-size: 70px;'>正确! </span>","null","","","","","","","","","","","","","","","","","","","","","","","feedback_test"
"","","","","","psychophysics","201","408026","0.0-11.0-0.0-0.21","817","","j","","","","","","","","","","","","","key","j","16.648899082568636","768","428","j","true","img/C_ambi40.png","坏人","prac_simultaneous",""
"","","","","","html-keyboard-response","202","408336","0.0-11.0-0.0-1.21","null","<span style='color:GreenYellow; font-size: 70px;'>正确! </span>","null","","","","","","","","","","","","","","","","","","","","","","","feedback_test"
"","","","","","psychophysics","203","410136","0.0-11.0-0.0-0.22","797","","j","","","","","","","","","","","","","key","j","16.65016822429879","768","428","j","true","img/T_ambi40.png","常人","prac_simultaneous",""
"","","","","","html-keyboard-response","204","410458","0.0-11.0-0.0-1.22","null","<span style='color:GreenYellow; font-size: 70px;'>正确! </span>","null","","","","","","","","","","","","","","","","","","","","","","","feedback_test"
"","","","","","psychophysics","205","412311","0.0-11.0-0.0-0.23","850","","j","","","","","","","","","","","","","key","j","16.650390909090955","768","428","j","true","img/S_ambi40.png","常人","prac_simultaneous",""
"","","","","","html-keyboard-response","206","412624","0.0-11.0-0.0-1.23","null","<span style='color:GreenYellow; font-size: 70px;'>正确! </span>","null","","","","","","","","","","","","","","","","","","","","","","","feedback_test"
"","","","","","html-keyboard-response","207","416518","0.0-12.0","3892","<style>.context{color:white; font-size: 35px; line-height:40px}</style>                              <div><p class='context'>您正确回答了79% 的试次。</p><p class='context'>您的平均反应时为968毫秒。</p><p class='context'>恭喜您完成练习。按任意键进入正式实验。</p><p class='footer' style='font-size: 35px; line-height:40px;'>请在进入正式实验实验之前将您的<span style='color: lightgreen;'>食指</span>放在电脑键盘的相应键位上进行按键。</p>","j","","","","","","","","","","","","","","","","","","","","","","",""
"","","","","","html-keyboard-response","208","421073","0.0-13.0-2.0-0.0","4551","
      <p>请您将手指放在按键上，准备进入呈现顺序为<span style='color: yellow;'>图形和文字同时呈现条件</span>的正式匹配任务</p>
      <p> <div style = ""color: green""><按任意键进入下一阶段的匹配任务></div></p>
      ","j","","","","","","","","","","","","","","","","","","","","","","",""
"","","","","","psychophysics","209","423372","0.0-13.0-2.0-1.0-0.0-0.0","1296","","j","","","","","","","","","","","","","key","j","16.649715328467142","768","428","j","true","img/C_ambi40.png","坏人","simultaneous",""
"","","","","","html-keyboard-response","210","423690","0.0-13.0-2.0-1.0-0.0-1.0","null","<span style='color:GreenYellow; font-size: 70px;'>正确! </span>","null","","","","","","","","","","","","","","","","","","","","","","","feedback_test"
"","","","","","psychophysics","211","425970","0.0-13.0-2.0-1.0-0.0-0.1","1278","","j","","","","","","","","","","","","","key","j","16.648259259259362","768","428","j","true","img/T_ambi40.png","常人","simultaneous",""
"","","","","","html-keyboard-response","212","426291","0.0-13.0-2.0-1.0-0.0-1.1","null","<span style='color:GreenYellow; font-size: 70px;'>正确! </span>","null","","","","","","","","","","","","","","","","","","","","","","","feedback_test"
"","","","","","psychophysics","213","428244","0.0-13.0-2.0-1.0-0.0-0.2","944","","j","","","","","","","","","","","","","key","j","16.647758620689775","768","428","j","true","img/S_ambi40.png","坏人","simultaneous",""
"","","","","","html-keyboard-response","214","428549","0.0-13.0-2.0-1.0-0.0-1.2","null","<span style='color:GreenYellow; font-size: 70px;'>正确! </span>","null","","","","","","","","","","","","","","","","","","","","","","","feedback_test"
"","","","","","psychophysics","215","430454","0.0-13.0-2.0-1.0-0.0-0.3","902","","f","","","","","","","","","","","","","key","f","16.65004385964947","768","428","f","true","img/C_ambi40.png","常人","simultaneous",""
"","","","","","html-keyboard-response","216","430764","0.0-13.0-2.0-1.0-0.0-1.3","null","<span style='color:GreenYellow; font-size: 70px;'>正确! </span>","null","","","","","","","","","","","","","","","","","","","","","","","feedback_test"
"","","","","","psychophysics","217","432738","0.0-13.0-2.0-1.0-0.0-0.4","972","","j","","","","","","","","","","","","","key","j","16.652033898305106","768","428","j","true","img/S_ambi40.png","常人","simultaneous",""
"","","","","","html-keyboard-response","218","433046","0.0-13.0-2.0-1.0-0.0-1.4","null","<span style='color:GreenYellow; font-size: 70px;'>正确! </span>","null","","","","","","","","","","","","","","","","","","","","","","","feedback_test"
"","","","","","psychophysics","219","435251","0.0-13.0-2.0-1.0-0.0-0.5","1204","","j","","","","","","","","","","","","","key","j","16.649484848484544","768","428","j","true","img/C_ambi40.png","好人","simultaneous",""
"","","","","","html-keyboard-response","220","435559","0.0-13.0-2.0-1.0-0.0-1.5","null","<span style='color:GreenYellow; font-size: 70px;'>正确! </span>","null","","","","","","","","","","","","","","","","","","","","","","","feedback_test"
"","","","","","psychophysics","221","437337","0.0-13.0-2.0-1.0-0.0-0.6","776","","j","","","","","","","","","","","","","key","j","16.649311320754624","768","428","j","true","img/T_ambi40.png","好人","simultaneous",""
"","","","","","html-keyboard-response","222","437648","0.0-13.0-2.0-1.0-0.0-1.6","null","<span style='color:GreenYellow; font-size: 70px;'>正确! </span>","null","","","","","","","","","","","","","","","","","","","","","","","feedback_test"
"","","","","","psychophysics","223","439862","0.0-13.0-2.0-1.0-0.0-0.7","1209","","f","","","","","","","","","","","","","key","f","16.64906818181837","768","428","f","true","img/T_ambi40.png","坏人","simultaneous",""
"","","","","","html-keyboard-response","224","440165","0.0-13.0-2.0-1.0-0.0-1.7","null","<span style='color:GreenYellow; font-size: 70px;'>正确! </span>","null","","","","","","","","","","","","","","","","","","","","","","","feedback_test"
"","","","","","psychophysics","225","442130","0.0-13.0-2.0-1.0-0.0-0.8","958","","f","","","","","","","","","","","","","key","f","16.651222222221968","768","428","f","true","img/S_ambi40.png","好人","simultaneous",""
"","","","","","html-keyboard-response","226","442448","0.0-13.0-2.0-1.0-0.0-1.8","null","<span style='color:GreenYellow; font-size: 70px;'>正确! </span>","null","","","","","","","","","","","","","","","","","","","","","","","feedback_test"
"","","","","","psychophysics","227","444248","0.0-13.0-2.0-1.0-0.0-0.9","795","","f","","","","","","","","","","","","","key","f","16.651775700934493","768","428","f","true","img/C_ambi40.png","常人","simultaneous",""
"","","","","","html-keyboard-response","228","444570","0.0-13.0-2.0-1.0-0.0-1.9","null","<span style='color:GreenYellow; font-size: 70px;'>正确! </span>","null","","","","","","","","","","","","","","","","","","","","","","","feedback_test"
"","","","","","psychophysics","229","446669","0.0-13.0-2.0-1.0-0.0-0.10","1095","","f","","","","","","","","","","","","","key","f","16.64684800000023","768","428","f","true","img/S_ambi40.png","好人","simultaneous",""
"","","","","","html-keyboard-response","230","446980","0.0-13.0-2.0-1.0-0.0-1.10","null","<span style='color:GreenYellow; font-size: 70px;'>正确! </span>","null","","","","","","","","","","","","","","","","","","","","","","","feedback_test"
"","","","","","psychophysics","231","448925","0.0-13.0-2.0-1.0-0.0-0.11","943","","f","","","","","","","","","","","","","key","f","16.648922413793304","768","428","f","true","img/T_ambi40.png","坏人","simultaneous",""
"","","","","","html-keyboard-response","232","449241","0.0-13.0-2.0-1.0-0.0-1.11","null","<span style='color:GreenYellow; font-size: 70px;'>正确! </span>","null","","","","","","","","","","","","","","","","","","","","","","","feedback_test"
"","","","","","psychophysics","233","451323","0.0-13.0-2.0-1.0-0.0-0.12","1079","","f","","","","","","","","","","","","","key","f","16.64913709677386","768","428","f","true","img/C_ambi40.png","常人","simultaneous",""
"","","","","","html-keyboard-response","234","451639","0.0-13.0-2.0-1.0-0.0-1.12","null","<span style='color:GreenYellow; font-size: 70px;'>正确! </span>","null","","","","","","","","","","","","","","","","","","","","","","","feedback_test"
"","","","","","psychophysics","235","453788","0.0-13.0-2.0-1.0-0.0-0.13","1144","","j","","","","","","","","","","","","","key","j","16.648679687500135","768","428","j","true","img/C_ambi40.png","坏人","simultaneous",""
"","","","","","html-keyboard-response","236","454097","0.0-13.0-2.0-1.0-0.0-1.13","null","<span style='color:GreenYellow; font-size: 70px;'>正确! </span>","null","","","","","","","","","","","","","","","","","","","","","","","feedback_test"
"","","","","","psychophysics","237","455986","0.0-13.0-2.0-1.0-0.0-0.14","885","","f","","","","","","","","","","","","","key","f","16.64606249999997","768","428","f","true","img/S_ambi40.png","好人","simultaneous",""
"","","","","","html-keyboard-response","238","456303","0.0-13.0-2.0-1.0-0.0-1.14","null","<span style='color:GreenYellow; font-size: 70px;'>正确! </span>","null","","","","","","","","","","","","","","","","","","","","","","","feedback_test"
"","","","","","psychophysics","239","458522","0.0-13.0-2.0-1.0-0.0-0.15","1217","","f","","","","","","","","","","","","","key","f","16.649368421052483","768","428","f","true","img/T_ambi40.png","坏人","simultaneous",""
"","","","","","html-keyboard-response","240","458832","0.0-13.0-2.0-1.0-0.0-1.15","null","<span style='color:GreenYellow; font-size: 70px;'>正确! </span>","null","","","","","","","","","","","","","","","","","","","","","","","feedback_test"
"","","","","","psychophysics","241","460729","0.0-13.0-2.0-1.0-0.0-0.16","892","","j","","","","","","","","","","","","","key","j","16.649716814158822","768","428","j","true","img/C_ambi40.png","好人","simultaneous",""
"","","","","","html-keyboard-response","242","461050","0.0-13.0-2.0-1.0-0.0-1.16","null","<span style='color:GreenYellow; font-size: 70px;'>正确! </span>","null","","","","","","","","","","","","","","","","","","","","","","","feedback_test"
"","","","","","psychophysics","243","463458","0.0-13.0-2.0-1.0-0.0-0.17","1406","","j","","","","","","","","","","","","","key","j","16.554118881118892","768","428","j","true","img/S_ambi40.png","常人","simultaneous",""
"","","","","","html-keyboard-response","244","463774","0.0-13.0-2.0-1.0-0.0-1.17","null","<span style='color:GreenYellow; font-size: 70px;'>正确! </span>","null","","","","","","","","","","","","","","","","","","","","","","","feedback_test"
"","","","","","psychophysics","245","465573","0.0-13.0-2.0-1.0-0.0-0.18","793","","f","","","","","","","","","","","","","key","f","16.648177570093285","768","428","f","true","img/C_ambi40.png","常人","simultaneous",""
"","","","","","html-keyboard-response","246","465881","0.0-13.0-2.0-1.0-0.0-1.18","null","<span style='color:GreenYellow; font-size: 70px;'>正确! </span>","null","","","","","","","","","","","","","","","","","","","","","","","feedback_test"
"","","","","","psychophysics","247","467740","0.0-13.0-2.0-1.0-0.0-0.19","855","","j","","","","","","","","","","","","","key","j","16.648436363636705","768","428","j","true","img/T_ambi40.png","好人","simultaneous",""
"","","","","","html-keyboard-response","248","468050","0.0-13.0-2.0-1.0-0.0-1.19","null","<span style='color:GreenYellow; font-size: 70px;'>正确! </span>","null","","","","","","","","","","","","","","","","","","","","","","","feedback_test"
"","","","","","psychophysics","249","469946","0.0-13.0-2.0-1.0-0.0-0.20","893","","f","","","","","","","","","","","","","key","f","16.648823008849387","768","428","f","true","img/S_ambi40.png","好人","simultaneous",""
"","","","","","html-keyboard-response","250","470255","0.0-13.0-2.0-1.0-0.0-1.20","null","<span style='color:GreenYellow; font-size: 70px;'>正确! </span>","null","","","","","","","","","","","","","","","","","","","","","","","feedback_test"
"","","","","","psychophysics","251","472103","0.0-13.0-2.0-1.0-0.0-0.21","846","","j","","","","","","","","","","","","","key","j","16.650745454545408","768","428","j","true","img/T_ambi40.png","常人","simultaneous",""
"","","","","","html-keyboard-response","252","472417","0.0-13.0-2.0-1.0-0.0-1.21","null","<span style='color:GreenYellow; font-size: 70px;'>正确! </span>","null","","","","","","","","","","","","","","","","","","","","","","","feedback_test"
"","","","","","psychophysics","253","474603","0.0-13.0-2.0-1.0-0.0-0.22","1182","","j","","","","","","","","","","","","","key","j","16.65027692307709","768","428","j","true","img/S_ambi40.png","坏人","simultaneous",""
"","","","","","html-keyboard-response","254","474923","0.0-13.0-2.0-1.0-0.0-1.22","null","<span style='color:GreenYellow; font-size: 70px;'>正确! </span>","null","","","","","","","","","","","","","","","","","","","","","","","feedback_test"
"","","","","","psychophysics","255","477434","0.0-13.0-2.0-1.0-0.0-0.23","null","","null","","","","","","","","","","","","","key","null","16.648865771811963","768","428","f","false","img/T_ambi40.png","坏人","simultaneous",""
"","","","","","html-keyboard-response","256","477754","0.0-13.0-2.0-1.0-0.0-1.23","null","<span class='add_' style='color:yellow; font-size: 70px;'> 太慢! </span>","null","","","","","","","","","","","","","","","","","","","","","","","feedback_test"
"","","","","","psychophysics","257","479546","0.0-13.0-2.0-1.0-0.0-0.24","789","","f","","","","","","","","","","","","","key","f","16.650688679245267","768","428","f","true","img/C_ambi40.png","常人","simultaneous",""
"","","","","","html-keyboard-response","258","479854","0.0-13.0-2.0-1.0-0.0-1.24","null","<span style='color:GreenYellow; font-size: 70px;'>正确! </span>","null","","","","","","","","","","","","","","","","","","","","","","","feedback_test"
"","","","","","psychophysics","259","481688","0.0-13.0-2.0-1.0-0.0-0.25","827","","f","","","","","","","","","","","","","key","f","16.649522935779906","768","428","f","true","img/T_ambi40.png","坏人","simultaneous",""
"","","","","","html-keyboard-response","260","482002","0.0-13.0-2.0-1.0-0.0-1.25","null","<span style='color:GreenYellow; font-size: 70px;'>正确! </span>","null","","","","","","","","","","","","","","","","","","","","","","","feedback_test"
"","","","","","psychophysics","261","484412","0.0-13.0-2.0-1.0-0.0-0.26","1407","","j","","","","","","","","","","","","","key","j","16.64935416666655","768","428","j","true","img/T_ambi40.png","常人","simultaneous",""
"","","","","","html-keyboard-response","262","484732","0.0-13.0-2.0-1.0-0.0-1.26","null","<span style='color:GreenYellow; font-size: 70px;'>正确! </span>","null","","","","","","","","","","","","","","","","","","","","","","","feedback_test"
"","","","","","psychophysics","263","486818","0.0-13.0-2.0-1.0-0.0-0.27","1077","","j","","","","","","","","","","","","","key","j","16.647806451612738","768","428","j","true","img/T_ambi40.png","好人","simultaneous",""
"","","","","","html-keyboard-response","264","487128","0.0-13.0-2.0-1.0-0.0-1.27","null","<span style='color:GreenYellow; font-size: 70px;'>正确! </span>","null","","","","","","","","","","","","","","","","","","","","","","","feedback_test"
"","","","","","psychophysics","265","489075","0.0-13.0-2.0-1.0-0.0-0.28","942","","j","","","","","","","","","","","","","key","j","16.647715517240957","768","428","j","true","img/S_ambi40.png","坏人","simultaneous",""
"","","","","","html-keyboard-response","266","489383","0.0-13.0-2.0-1.0-0.0-1.28","null","<span style='color:GreenYellow; font-size: 70px;'>正确! </span>","null","","","","","","","","","","","","","","","","","","","","","","","feedback_test"
"","","","","","psychophysics","267","491357","0.0-13.0-2.0-1.0-0.0-0.29","969","","j","","","","","","","","","","","","","key","j","16.650000000000098","768","428","j","true","img/S_ambi40.png","常人","simultaneous",""
"","","","","","html-keyboard-response","268","491673","0.0-13.0-2.0-1.0-0.0-1.29","null","<span style='color:GreenYellow; font-size: 70px;'>正确! </span>","null","","","","","","","","","","","","","","","","","","","","","","","feedback_test"
"","","","","","psychophysics","269","493554","0.0-13.0-2.0-1.0-0.0-0.30","877","","j","","","","","","","","","","","","","key","j","16.648696428571252","768","428","j","true","img/C_ambi40.png","坏人","simultaneous",""
"","","","","","html-keyboard-response","270","493866","0.0-13.0-2.0-1.0-0.0-1.30","null","<span style='color:GreenYellow; font-size: 70px;'>正确! </span>","null","","","","","","","","","","","","","","","","","","","","","","","feedback_test"
"","","","","","psychophysics","271","495554","0.0-13.0-2.0-1.0-0.0-0.31","687","","j","","","","","","","","","","","","","key","j","16.647540000000152","768","428","j","true","img/C_ambi40.png","好人","simultaneous",""
"","","","","","html-keyboard-response","272","495863","0.0-13.0-2.0-1.0-0.0-1.31","null","<span style='color:GreenYellow; font-size: 70px;'>正确! </span>","null","","","","","","","","","","","","","","","","","","","","","","","feedback_test"
"","","","","","psychophysics","273","498121","0.0-13.0-2.0-1.0-0.0-0.32","1257","","f","","","","","","","","","","","","","key","f","16.649402985074765","768","428","f","true","img/S_ambi40.png","好人","simultaneous",""
"","","","","","html-keyboard-response","274","498441","0.0-13.0-2.0-1.0-0.0-1.32","null","<span style='color:GreenYellow; font-size: 70px;'>正确! </span>","null","","","","","","","","","","","","","","","","","","","","","","","feedback_test"
"","","","","","psychophysics","275","500284","0.0-13.0-2.0-1.0-0.0-0.33","840","","f","","","","","","","","","","","","","key","f","16.649718181818553","768","428","f","true","img/S_ambi40.png","好人","simultaneous",""
"","","","","","html-keyboard-response","276","500601","0.0-13.0-2.0-1.0-0.0-1.33","null","<span style='color:GreenYellow; font-size: 70px;'>正确! </span>","null","","","","","","","","","","","","","","","","","","","","","","","feedback_test"
"","","","","","psychophysics","277","502429","0.0-13.0-2.0-1.0-0.0-0.34","824","","f","","","","","","","","","","","","","key","f","16.64866972477079","768","428","f","true","img/C_ambi40.png","常人","simultaneous",""
"","","","","","html-keyboard-response","278","502734","0.0-13.0-2.0-1.0-0.0-1.34","null","<span style='color:GreenYellow; font-size: 70px;'>正确! </span>","null","","","","","","","","","","","","","","","","","","","","","","","feedback_test"
"","","","","","psychophysics","279","504903","0.0-13.0-2.0-1.0-0.0-0.35","1164","","f","","","","","","","","","","","","","key","f","16.649085271317972","768","428","f","true","img/T_ambi40.png","坏人","simultaneous",""
"","","","","","html-keyboard-response","280","505217","0.0-13.0-2.0-1.0-0.0-1.35","null","<span style='color:GreenYellow; font-size: 70px;'>正确! </span>","null","","","","","","","","","","","","","","","","","","","","","","","feedback_test"
"","","","","","psychophysics","281","507134","0.0-13.0-2.0-1.0-0.0-0.36","913","","j","","","","","","","","","","","","","key","j","16.6484649122806","768","428","j","true","img/S_ambi40.png","常人","simultaneous",""
"","","","","","html-keyboard-response","282","507442","0.0-13.0-2.0-1.0-0.0-1.36","null","<span style='color:GreenYellow; font-size: 70px;'>正确! </span>","null","","","","","","","","","","","","","","","","","","","","","","","feedback_test"
"","","","","","psychophysics","283","509478","0.0-13.0-2.0-1.0-0.0-0.37","1033","","j","","","","","","","","","","","","","key","j","16.6484793388431","768","428","j","true","img/C_ambi40.png","好人","simultaneous",""
"","","","","","html-keyboard-response","284","509789","0.0-13.0-2.0-1.0-0.0-1.37","null","<span style='color:GreenYellow; font-size: 70px;'>正确! </span>","null","","","","","","","","","","","","","","","","","","","","","","","feedback_test"
"","","","","","psychophysics","285","511785","0.0-13.0-2.0-1.0-0.0-0.38","989","","f","","","","","","","","","","","","","key","f","16.649966386554787","768","428","f","true","img/S_ambi40.png","好人","simultaneous",""
"","","","","","html-keyboard-response","286","512092","0.0-13.0-2.0-1.0-0.0-1.38","null","<span style='color:GreenYellow; font-size: 70px;'>正确! </span>","null","","","","","","","","","","","","","","","","","","","","","","","feedback_test"
"","","","","","psychophysics","287","513731","0.0-13.0-2.0-1.0-0.0-0.39","635","","j","","","","","","","","","","","","","key","j","16.64913265306113","768","428","j","true","img/S_ambi40.png","坏人","simultaneous",""
"","","","","","html-keyboard-response","288","514041","0.0-13.0-2.0-1.0-0.0-1.39","null","<span style='color:GreenYellow; font-size: 70px;'>正确! </span>","null","","","","","","","","","","","","","","","","","","","","","","","feedback_test"
"","","","","","psychophysics","289","515929","0.0-13.0-2.0-1.0-0.0-0.40","884","","f","","","","","","","","","","","","","key","f","16.64938053097349","768","428","f","true","img/C_ambi40.png","常人","simultaneous",""
"","","","","","html-keyboard-response","290","516241","0.0-13.0-2.0-1.0-0.0-1.40","null","<span style='color:GreenYellow; font-size: 70px;'>正确! </span>","null","","","","","","","","","","","","","","","","","","","","","","","feedback_test"
"","","","","","psychophysics","291","517953","0.0-13.0-2.0-1.0-0.0-0.41","711","","j","","","","","","","","","","","","","key","j","16.522168316831696","768","428","f","false","img/T_ambi40.png","坏人","simultaneous",""
"","","","","","html-keyboard-response","292","518266","0.0-13.0-2.0-1.0-0.0-1.41","null","<span style='color:red; font-size: 70px;'>错误! </span>","null","","","","","","","","","","","","","","","","","","","","","","","feedback_test"
"","","","","","psychophysics","293","520081","0.0-13.0-2.0-1.0-0.0-0.42","813","","j","","","","","","","","","","","","","key","j","16.649370370370754","768","428","j","true","img/T_ambi40.png","好人","simultaneous",""
"","","","","","html-keyboard-response","294","520398","0.0-13.0-2.0-1.0-0.0-1.42","null","<span style='color:GreenYellow; font-size: 70px;'>正确! </span>","null","","","","","","","","","","","","","","","","","","","","","","","feedback_test"
"","","","","","psychophysics","295","522044","0.0-13.0-2.0-1.0-0.0-0.43","640","","j","","","","","","","","","","","","","key","j","16.649581632653504","768","428","j","true","img/T_ambi40.png","常人","simultaneous",""
"","","","","","html-keyboard-response","296","522350","0.0-13.0-2.0-1.0-0.0-1.43","null","<span style='color:GreenYellow; font-size: 70px;'>正确! </span>","null","","","","","","","","","","","","","","","","","","","","","","","feedback_test"
"","","","","","psychophysics","297","524364","0.0-13.0-2.0-1.0-0.0-0.44","1012","","j","","","","","","","","","","","","","key","j","16.651200000000244","768","428","j","true","img/C_ambi40.png","坏人","simultaneous",""
"","","","","","html-keyboard-response","298","524674","0.0-13.0-2.0-1.0-0.0-1.44","null","<span style='color:GreenYellow; font-size: 70px;'>正确! </span>","null","","","","","","","","","","","","","","","","","","","","","","","feedback_test"
"","","","","","psychophysics","299","526539","0.0-13.0-2.0-1.0-0.0-0.45","863","","f","","","","","","","","","","","","","key","f","16.647018018018176","768","428","f","true","img/C_ambi40.png","常人","simultaneous",""
"","","","","","html-keyboard-response","300","526845","0.0-13.0-2.0-1.0-0.0-1.45","null","<span style='color:GreenYellow; font-size: 70px;'>正确! </span>","null","","","","","","","","","","","","","","","","","","","","","","","feedback_test"
"","","","","","psychophysics","301","528616","0.0-13.0-2.0-1.0-0.0-0.46","768","","j","","","","","","","","","","","","","key","j","16.64875471698151","768","428","f","false","img/T_ambi40.png","坏人","simultaneous",""
"","","","","","html-keyboard-response","302","528929","0.0-13.0-2.0-1.0-0.0-1.46","null","<span style='color:red; font-size: 70px;'>错误! </span>","null","","","","","","","","","","","","","","","","","","","","","","","feedback_test"
"","","","","","psychophysics","303","530625","0.0-13.0-2.0-1.0-0.0-0.47","693","","f","","","","","","","","","","","","","key","f","16.64795000000042","768","428","f","true","img/S_ambi40.png","好人","simultaneous",""
"","","","","","html-keyboard-response","304","530943","0.0-13.0-2.0-1.0-0.0-1.47","null","<span style='color:GreenYellow; font-size: 70px;'>正确! </span>","null","","","","","","","","","","","","","","","","","","","","","","","feedback_test"
"","","","","","psychophysics","305","532733","0.0-13.0-2.0-1.0-0.0-0.48","788","","f","","","","","","","","","","","","","key","f","16.65163207547146","768","428","f","true","img/C_ambi40.png","常人","simultaneous",""
"","","","","","html-keyboard-response","306","533051","0.0-13.0-2.0-1.0-0.0-1.48","null","<span style='color:GreenYellow; font-size: 70px;'>正确! </span>","null","","","","","","","","","","","","","","","","","","","","","","","feedback_test"
"","","","","","psychophysics","307","534784","0.0-13.0-2.0-1.0-0.0-0.49","727","","f","","","","","","","","","","","","","key","f","16.649582524271906","768","428","f","true","img/S_ambi40.png","好人","simultaneous",""
"","","","","","html-keyboard-response","308","535100","0.0-13.0-2.0-1.0-0.0-1.49","null","<span style='color:GreenYellow; font-size: 70px;'>正确! </span>","null","","","","","","","","","","","","","","","","","","","","","","","feedback_test"
"","","","","","psychophysics","309","537051","0.0-13.0-2.0-1.0-0.0-0.50","946","","f","","","","","","","","","","","","","key","f","16.649224137930513","768","428","f","true","img/T_ambi40.png","坏人","simultaneous",""
"","","","","","html-keyboard-response","310","537358","0.0-13.0-2.0-1.0-0.0-1.50","null","<span style='color:GreenYellow; font-size: 70px;'>正确! </span>","null","","","","","","","","","","","","","","","","","","","","","","","feedback_test"
"","","","","","psychophysics","311","539556","0.0-13.0-2.0-1.0-0.0-0.51","1191","","j","","","","","","","","","","","","","key","j","16.649068702290453","768","428","j","true","img/C_ambi40.png","好人","simultaneous",""
"","","","","","html-keyboard-response","312","539863","0.0-13.0-2.0-1.0-0.0-1.51","null","<span style='color:GreenYellow; font-size: 70px;'>正确! </span>","null","","","","","","","","","","","","","","","","","","","","","","","feedback_test"
"","","","","","psychophysics","313","541870","0.0-13.0-2.0-1.0-0.0-0.52","1003","","f","","","","","","","","","","","","","key","f","16.650191666666068","768","428","f","true","img/C_ambi40.png","常人","simultaneous",""
"","","","","","html-keyboard-response","314","542183","0.0-13.0-2.0-1.0-0.0-1.52","null","<span style='color:GreenYellow; font-size: 70px;'>正确! </span>","null","","","","","","","","","","","","","","","","","","","","","","","feedback_test"
"","","","","","psychophysics","315","544002","0.0-13.0-2.0-1.0-0.0-0.53","814","","j","","","","","","","","","","","","","key","j","16.648388888888466","768","428","j","true","img/S_ambi40.png","坏人","simultaneous",""
"","","","","","html-keyboard-response","316","544308","0.0-13.0-2.0-1.0-0.0-1.53","null","<span style='color:GreenYellow; font-size: 70px;'>正确! </span>","null","","","","","","","","","","","","","","","","","","","","","","","feedback_test"
"","","","","","psychophysics","317","546431","0.0-13.0-2.0-1.0-0.0-0.54","1118","","f","","","","","","","","","","","","","key","f","16.649779527559033","768","428","f","true","img/S_ambi40.png","好人","simultaneous",""
"","","","","","html-keyboard-response","318","546736","0.0-13.0-2.0-1.0-0.0-1.54","null","<span style='color:GreenYellow; font-size: 70px;'>正确! </span>","null","","","","","","","","","","","","","","","","","","","","","","","feedback_test"
"","","","","","psychophysics","319","548598","0.0-13.0-2.0-1.0-0.0-0.55","857","","j","","","","","","","","","","","","","key","j","16.649522522522076","768","428","j","true","img/S_ambi40.png","常人","simultaneous",""
"","","","","","html-keyboard-response","320","548904","0.0-13.0-2.0-1.0-0.0-1.55","null","<span style='color:GreenYellow; font-size: 70px;'>正确! </span>","null","","","","","","","","","","","","","","","","","","","","","","","feedback_test"
"","","","","","psychophysics","321","550726","0.0-13.0-2.0-1.0-0.0-0.56","818","","j","","","","","","","","","","","","","key","j","16.65065137614654","768","428","j","true","img/T_ambi40.png","好人","simultaneous",""
"","","","","","html-keyboard-response","322","551034","0.0-13.0-2.0-1.0-0.0-1.56","null","<span style='color:GreenYellow; font-size: 70px;'>正确! </span>","null","","","","","","","","","","","","","","","","","","","","","","","feedback_test"
"","","","","","psychophysics","323","552699","0.0-13.0-2.0-1.0-0.0-0.57","662","","j","","","","","","","","","","","","","key","j","16.65122222222242","768","428","j","true","img/T_ambi40.png","常人","simultaneous",""
"","","","","","html-keyboard-response","324","553018","0.0-13.0-2.0-1.0-0.0-1.57","null","<span style='color:GreenYellow; font-size: 70px;'>正确! </span>","null","","","","","","","","","","","","","","","","","","","","","","","feedback_test"
"","","","","","psychophysics","325","554719","0.0-13.0-2.0-1.0-0.0-0.58","698","","j","","","","","","","","","","","","","key","j","16.650980198020484","768","428","f","false","img/T_ambi40.png","坏人","simultaneous",""
"","","","","","html-keyboard-response","326","555029","0.0-13.0-2.0-1.0-0.0-1.58","null","<span style='color:red; font-size: 70px;'>错误! </span>","null","","","","","","","","","","","","","","","","","","","","","","","feedback_test"
"","","","","","psychophysics","327","556772","0.0-13.0-2.0-1.0-0.0-0.59","737","","j","","","","","","","","","","","","","key","j","16.652201923077182","768","428","j","true","img/C_ambi40.png","坏人","simultaneous",""
"","","","","","html-keyboard-response","328","557082","0.0-13.0-2.0-1.0-0.0-1.59","null","<span style='color:GreenYellow; font-size: 70px;'>正确! </span>","null","","","","","","","","","","","","","","","","","","","","","","","feedback_test"
"","","","","","html-keyboard-response","329","559668","0.0-13.0-2.0-1.0-1.0","2582","<style>.context{color:white; font-size: 35px; line-height:40px}</style>                              <div><p class='context'>您正确回答了93% 的试次。</p><p class='context'>您的平均反应时为953毫秒。</p><p class='context'>请按任意键进入休息</p></div>","j","","","","","","","","","","","","","","","","","","","","","","",""
"","","","","","html-button-response","330","632725","0.0-13.0-2.0-1.0-2.0","73055","
                      <p>您当前还剩余3组实验</p>
                      <p>现在是休息时间，当您结束休息后，您可以点击 结束休息 按钮 继续</p>
                      <p>建议休息时间还剩余<span id=""iii"">60</span>秒</p>","0","","","","","","","","","","","","","","","","","","","","","","",""
"","","","","","psychophysics","331","635234","0.0-13.0-2.0-1.0-0.1-0.60","null","","null","","","","","","","","","","","","","key","null","16.650416107382625","768","428","j","false","img/S_ambi40.png","常人","simultaneous",""
"","","","","","html-keyboard-response","332","635555","0.0-13.0-2.0-1.0-0.1-1.60","null","<span class='add_' style='color:yellow; font-size: 70px;'> 太慢! </span>","null","","","","","","","","","","","","","","","","","","","","","","","feedback_test"
"","","","","","psychophysics","333","637674","0.0-13.0-2.0-1.0-0.1-0.61","1109","","j","","","","","","","","","","","","","key","j","16.649619047619616","768","428","f","false","img/C_ambi40.png","常人","simultaneous",""
"","","","","","html-keyboard-response","334","637983","0.0-13.0-2.0-1.0-0.1-1.61","null","<span style='color:red; font-size: 70px;'>错误! </span>","null","","","","","","","","","","","","","","","","","","","","","","","feedback_test"
"","","","","","psychophysics","335","640159","0.0-13.0-2.0-1.0-0.1-0.62","1171","","f","","","","","","","","","","","","","key","f","16.647240310077116","768","428","f","true","img/T_ambi40.png","坏人","simultaneous",""
"","","","","","html-keyboard-response","336","640481","0.0-13.0-2.0-1.0-0.1-1.62","null","<span style='color:GreenYellow; font-size: 70px;'>正确! </span>","null","","","","","","","","","","","","","","","","","","","","","","","feedback_test"
"","","","","","psychophysics","337","642491","0.0-13.0-2.0-1.0-0.1-0.63","1007","","j","","","","","","","","","","","","","key","j","16.648747899159673","768","428","j","true","img/S_ambi40.png","坏人","simultaneous",""
"","","","","","html-keyboard-response","338","642805","0.0-13.0-2.0-1.0-0.1-1.63","null","<span style='color:GreenYellow; font-size: 70px;'>正确! </span>","null","","","","","","","","","","","","","","","","","","","","","","","feedback_test"
"","","","","","psychophysics","339","644580","0.0-13.0-2.0-1.0-0.1-0.64","772","","j","","","","","","","","","","","","","key","j","16.649367924528153","768","428","j","true","img/C_ambi40.png","坏人","simultaneous",""
"","","","","","html-keyboard-response","340","644885","0.0-13.0-2.0-1.0-0.1-1.64","null","<span style='color:GreenYellow; font-size: 70px;'>正确! </span>","null","","","","","","","","","","","","","","","","","","","","","","","feedback_test"
"","","","","","psychophysics","341","646787","0.0-13.0-2.0-1.0-0.1-0.65","897","","j","","","","","","","","","","","","","key","j","16.650513274336554","768","428","j","true","img/T_ambi40.png","常人","simultaneous",""
"","","","","","html-keyboard-response","342","647106","0.0-13.0-2.0-1.0-0.1-1.65","null","<span style='color:GreenYellow; font-size: 70px;'>正确! </span>","null","","","","","","","","","","","","","","","","","","","","","","","feedback_test"
"","","","","","psychophysics","343","648831","0.0-13.0-2.0-1.0-0.1-0.66","715","","f","","","","","","","","","","","","","key","f","16.649205882353343","768","428","f","true","img/S_ambi40.png","好人","simultaneous",""
"","","","","","html-keyboard-response","344","649131","0.0-13.0-2.0-1.0-0.1-1.66","null","<span style='color:GreenYellow; font-size: 70px;'>正确! </span>","null","","","","","","","","","","","","","","","","","","","","","","","feedback_test"
"","","","","","psychophysics","345","650881","0.0-13.0-2.0-1.0-0.1-0.67","747","","j","","","","","","","","","","","","","key","j","16.6500192307688","768","428","j","true","img/T_ambi40.png","好人","simultaneous",""
"","","","","","html-keyboard-response","346","651197","0.0-13.0-2.0-1.0-0.1-1.67","null","<span style='color:GreenYellow; font-size: 70px;'>正确! </span>","null","","","","","","","","","","","","","","","","","","","","","","","feedback_test"
"","","","","","psychophysics","347","653051","0.0-13.0-2.0-1.0-0.1-0.68","852","","j","","","","","","","","","","","","","key","j","16.6496846846846","768","428","j","true","img/C_ambi40.png","好人","simultaneous",""
"","","","","","html-keyboard-response","348","653371","0.0-13.0-2.0-1.0-0.1-1.68","null","<span style='color:GreenYellow; font-size: 70px;'>正确! </span>","null","","","","","","","","","","","","","","","","","","","","","","","feedback_test"
"","","","","","psychophysics","349","655421","0.0-13.0-2.0-1.0-0.1-0.69","1042","","f","","","","","","","","","","","","","key","f","16.649803278689106","768","428","f","true","img/T_ambi40.png","坏人","simultaneous",""
"","","","","","html-keyboard-response","350","655733","0.0-13.0-2.0-1.0-0.1-1.69","null","<span style='color:GreenYellow; font-size: 70px;'>正确! </span>","null","","","","","","","","","","","","","","","","","","","","","","","feedback_test"
"","","","","","psychophysics","351","657735","0.0-13.0-2.0-1.0-0.1-0.70","994","","f","","","","","","","","","","","","","key","f","16.64981512605025","768","428","f","true","img/S_ambi40.png","好人","simultaneous",""
"","","","","","html-keyboard-response","352","658045","0.0-13.0-2.0-1.0-0.1-1.70","null","<span style='color:GreenYellow; font-size: 70px;'>正确! </span>","null","","","","","","","","","","","","","","","","","","","","","","","feedback_test"
"","","","","","psychophysics","353","659830","0.0-13.0-2.0-1.0-0.1-0.71","777","","f","","","","","","","","","","","","","key","f","16.650415094339788","768","428","f","true","img/C_ambi40.png","常人","simultaneous",""
"","","","","","html-keyboard-response","354","660134","0.0-13.0-2.0-1.0-0.1-1.71","null","<span style='color:GreenYellow; font-size: 70px;'>正确! </span>","null","","","","","","","","","","","","","","","","","","","","","","","feedback_test"
"","","","","","psychophysics","355","661814","0.0-13.0-2.0-1.0-0.1-0.72","674","","f","","","","","","","","","","","","","key","f","16.64935000000056","768","428","f","true","img/C_ambi40.png","常人","simultaneous",""
"","","","","","html-keyboard-response","356","662122","0.0-13.0-2.0-1.0-0.1-1.72","null","<span style='color:GreenYellow; font-size: 70px;'>正确! </span>","null","","","","","","","","","","","","","","","","","","","","","","","feedback_test"
"","","","","","psychophysics","357","663956","0.0-13.0-2.0-1.0-0.1-0.73","833","","j","","","","","","","","","","","","","key","j","16.64877064220197","768","428","j","true","img/S_ambi40.png","坏人","simultaneous",""
"","","","","","html-keyboard-response","358","664270","0.0-13.0-2.0-1.0-0.1-1.73","null","<span style='color:GreenYellow; font-size: 70px;'>正确! </span>","null","","","","","","","","","","","","","","","","","","","","","","","feedback_test"
"","","","","","psychophysics","359","666415","0.0-13.0-2.0-1.0-0.1-0.74","1143","","f","","","","","","","","","","","","","key","f","16.64884251968451","768","428","f","true","img/S_ambi40.png","好人","simultaneous",""
"","","","","","html-keyboard-response","360","666722","0.0-13.0-2.0-1.0-0.1-1.74","null","<span style='color:GreenYellow; font-size: 70px;'>正确! </span>","null","","","","","","","","","","","","","","","","","","","","","","","feedback_test"
"","","","","","psychophysics","361","668525","0.0-13.0-2.0-1.0-0.1-0.75","800","","j","","","","","","","","","","","","","key","j","16.6496074766358","768","428","j","true","img/C_ambi40.png","好人","simultaneous",""
"","","","","","html-keyboard-response","362","668840","0.0-13.0-2.0-1.0-0.1-1.75","null","<span style='color:GreenYellow; font-size: 70px;'>正确! </span>","null","","","","","","","","","","","","","","","","","","","","","","","feedback_test"
"","","","","","psychophysics","363","670911","0.0-13.0-2.0-1.0-0.1-0.76","1066","","f","","","","","","","","","","","","","key","f","16.648642276422258","768","428","f","true","img/T_ambi40.png","坏人","simultaneous",""
"","","","","","html-keyboard-response","364","671218","0.0-13.0-2.0-1.0-0.1-1.76","null","<span style='color:GreenYellow; font-size: 70px;'>正确! </span>","null","","","","","","","","","","","","","","","","","","","","","","","feedback_test"
"","","","","","psychophysics","365","673048","0.0-13.0-2.0-1.0-0.1-0.77","827","","j","","","","","","","","","","","","","key","j","16.648183486238548","768","428","j","true","img/C_ambi40.png","坏人","simultaneous",""
"","","","","","html-keyboard-response","366","673366","0.0-13.0-2.0-1.0-0.1-1.77","null","<span style='color:GreenYellow; font-size: 70px;'>正确! </span>","null","","","","","","","","","","","","","","","","","","","","","","","feedback_test"
"","","","","","psychophysics","367","675549","0.0-13.0-2.0-1.0-0.1-0.78","1176","","f","","","","","","","","","","","","","key","f","16.648684615384823","768","428","f","true","img/T_ambi40.png","坏人","simultaneous",""
"","","","","","html-keyboard-response","368","675857","0.0-13.0-2.0-1.0-0.1-1.78","null","<span style='color:GreenYellow; font-size: 70px;'>正确! </span>","null","","","","","","","","","","","","","","","","","","","","","","","feedback_test"
"","","","","","psychophysics","369","677604","0.0-13.0-2.0-1.0-0.1-0.79","746","","j","","","","","","","","","","","","","key","j","16.52257281553466","768","428","j","true","img/S_ambi40.png","常人","simultaneous",""
"","","","","","html-keyboard-response","370","677914","0.0-13.0-2.0-1.0-0.1-1.79","null","<span style='color:GreenYellow; font-size: 70px;'>正确! </span>","null","","","","","","","","","","","","","","","","","","","","","","","feedback_test"
"","","","","","psychophysics","371","679643","0.0-13.0-2.0-1.0-0.1-0.80","726","","f","","","","","","","","","","","","","key","f","16.648631067961247","768","428","f","true","img/C_ambi40.png","常人","simultaneous",""
"","","","","","html-keyboard-response","372","679957","0.0-13.0-2.0-1.0-0.1-1.80","null","<span style='color:GreenYellow; font-size: 70px;'>正确! </span>","null","","","","","","","","","","","","","","","","","","","","","","","feedback_test"
"","","","","","psychophysics","373","681723","0.0-13.0-2.0-1.0-0.1-0.81","759","","f","","","","","","","","","","","","","key","f","16.648180952381033","768","428","f","true","img/S_ambi40.png","好人","simultaneous",""
"","","","","","html-keyboard-response","374","682029","0.0-13.0-2.0-1.0-0.1-1.81","null","<span style='color:GreenYellow; font-size: 70px;'>正确! </span>","null","","","","","","","","","","","","","","","","","","","","","","","feedback_test"
"","","","","","psychophysics","375","683876","0.0-13.0-2.0-1.0-0.1-0.82","842","","j","","","","","","","","","","","","","key","j","16.64790909090926","768","428","j","true","img/T_ambi40.png","常人","simultaneous",""
"","","","","","html-keyboard-response","376","684195","0.0-13.0-2.0-1.0-0.1-1.82","null","<span style='color:GreenYellow; font-size: 70px;'>正确! </span>","null","","","","","","","","","","","","","","","","","","","","","","","feedback_test"
"","","","","","psychophysics","377","686343","0.0-13.0-2.0-1.0-0.1-0.83","1144","","j","","","","","","","","","","","","","key","j","16.650249999999687","768","428","j","true","img/T_ambi40.png","好人","simultaneous",""
"","","","","","html-keyboard-response","378","686655","0.0-13.0-2.0-1.0-0.1-1.83","null","<span style='color:GreenYellow; font-size: 70px;'>正确! </span>","null","","","","","","","","","","","","","","","","","","","","","","","feedback_test"
"","","","","","psychophysics","379","688865","0.0-13.0-2.0-1.0-0.1-0.84","1204","","j","","","","","","","","","","","","","key","j","16.649545454545382","768","428","j","true","img/C_ambi40.png","坏人","simultaneous",""
"","","","","","html-keyboard-response","380","689166","0.0-13.0-2.0-1.0-0.1-1.84","null","<span style='color:GreenYellow; font-size: 70px;'>正确! </span>","null","","","","","","","","","","","","","","","","","","","","","","","feedback_test"
"","","","","","psychophysics","381","691018","0.0-13.0-2.0-1.0-0.1-0.85","845","","f","","","","","","","","","","","","","key","f","16.649509090909056","768","428","f","true","img/C_ambi40.png","常人","simultaneous",""
"","","","","","html-keyboard-response","382","691327","0.0-13.0-2.0-1.0-0.1-1.85","null","<span style='color:GreenYellow; font-size: 70px;'>正确! </span>","null","","","","","","","","","","","","","","","","","","","","","","","feedback_test"
"","","","","","psychophysics","383","693052","0.0-13.0-2.0-1.0-0.1-0.86","718","","j","","","","","","","","","","","","","key","j","16.64809803921483","768","428","j","true","img/C_ambi40.png","好人","simultaneous",""
"","","","","","html-keyboard-response","384","693364","0.0-13.0-2.0-1.0-0.1-1.86","null","<span style='color:GreenYellow; font-size: 70px;'>正确! </span>","null","","","","","","","","","","","","","","","","","","","","","","","feedback_test"
"","","","","","psychophysics","385","695035","0.0-13.0-2.0-1.0-0.1-0.87","662","","j","","","","","","","","","","","","","key","j","16.65050505050411","768","428","f","false","img/S_ambi40.png","好人","simultaneous",""
"","","","","","html-keyboard-response","386","695341","0.0-13.0-2.0-1.0-0.1-1.87","null","<span style='color:red; font-size: 70px;'>错误! </span>","null","","","","","","","","","","","","","","","","","","","","","","","feedback_test"
"","","","","","psychophysics","387","697434","0.0-13.0-2.0-1.0-0.1-0.88","1085","","j","","","","","","","","","","","","","key","j","16.649846774193595","768","428","j","true","img/T_ambi40.png","常人","simultaneous",""
"","","","","","html-keyboard-response","388","697743","0.0-13.0-2.0-1.0-0.1-1.88","null","<span style='color:GreenYellow; font-size: 70px;'>正确! </span>","null","","","","","","","","","","","","","","","","","","","","","","","feedback_test"
"","","","","","psychophysics","389","699734","0.0-13.0-2.0-1.0-0.1-0.89","985","","j","","","","","","","","","","","","","key","j","16.647504201681283","768","428","j","true","img/T_ambi40.png","好人","simultaneous",""
"","","","","","html-keyboard-response","390","700048","0.0-13.0-2.0-1.0-0.1-1.89","null","<span style='color:GreenYellow; font-size: 70px;'>正确! </span>","null","","","","","","","","","","","","","","","","","","","","","","","feedback_test"
"","","","","","psychophysics","391","701821","0.0-13.0-2.0-1.0-0.1-0.90","771","","j","","","","","","","","","","","","","key","j","16.53250476190421","768","428","j","true","img/S_ambi40.png","常人","simultaneous",""
"","","","","","html-keyboard-response","392","702135","0.0-13.0-2.0-1.0-0.1-1.90","null","<span style='color:GreenYellow; font-size: 70px;'>正确! </span>","null","","","","","","","","","","","","","","","","","","","","","","","feedback_test"
"","","","","","psychophysics","393","704005","0.0-13.0-2.0-1.0-0.1-0.91","864","","f","","","","","","","","","","","","","key","f","16.646963963963653","768","428","f","true","img/T_ambi40.png","坏人","simultaneous",""
"","","","","","html-keyboard-response","394","704310","0.0-13.0-2.0-1.0-0.1-1.91","null","<span style='color:GreenYellow; font-size: 70px;'>正确! </span>","null","","","","","","","","","","","","","","","","","","","","","","","feedback_test"
"","","","","","psychophysics","395","706263","0.0-13.0-2.0-1.0-0.1-0.92","952","","j","","","","","","","","","","","","","key","j","16.53397413793096","768","428","f","false","img/C_ambi40.png","常人","simultaneous",""
"","","","","","html-keyboard-response","396","706572","0.0-13.0-2.0-1.0-0.1-1.92","null","<span style='color:red; font-size: 70px;'>错误! </span>","null","","","","","","","","","","","","","","","","","","","","","","","feedback_test"
"","","","","","psychophysics","397","708528","0.0-13.0-2.0-1.0-0.1-0.93","953","","f","","","","","","","","","","","","","key","f","16.649401709401552","768","428","f","true","img/S_ambi40.png","好人","simultaneous",""
"","","","","","html-keyboard-response","398","708842","0.0-13.0-2.0-1.0-0.1-1.93","null","<span style='color:GreenYellow; font-size: 70px;'>正确! </span>","null","","","","","","","","","","","","","","","","","","","","","","","feedback_test"
"","","","","","psychophysics","399","710726","0.0-13.0-2.0-1.0-0.1-0.94","881","","j","","","","","","","","","","","","","key","j","16.65038392857137","768","428","j","true","img/S_ambi40.png","坏人","simultaneous",""
"","","","","","html-keyboard-response","400","711033","0.0-13.0-2.0-1.0-0.1-1.94","null","<span style='color:GreenYellow; font-size: 70px;'>正确! </span>","null","","","","","","","","","","","","","","","","","","","","","","","feedback_test"
"","","","","","psychophysics","401","713056","0.0-13.0-2.0-1.0-0.1-0.95","1018","","f","","","","","","","","","","","","","key","f","16.64957024793387","768","428","f","true","img/T_ambi40.png","坏人","simultaneous",""
"","","","","","html-keyboard-response","402","713372","0.0-13.0-2.0-1.0-0.1-1.95","null","<span style='color:GreenYellow; font-size: 70px;'>正确! </span>","null","","","","","","","","","","","","","","","","","","","","","","","feedback_test"
"","","","","","psychophysics","403","715160","0.0-13.0-2.0-1.0-0.1-0.96","779","","j","","","","","","","","","","","","","key","j","16.64946226415088","768","428","j","true","img/S_ambi40.png","坏人","simultaneous",""
"","","","","","html-keyboard-response","404","715469","0.0-13.0-2.0-1.0-0.1-1.96","null","<span style='color:GreenYellow; font-size: 70px;'>正确! </span>","null","","","","","","","","","","","","","","","","","","","","","","","feedback_test"
"","","","","","psychophysics","405","717294","0.0-13.0-2.0-1.0-0.1-0.97","818","","j","","","","","","","","","","","","","key","j","16.649574074073893","768","428","j","true","img/S_ambi40.png","常人","simultaneous",""
"","","","","","html-keyboard-response","406","717600","0.0-13.0-2.0-1.0-0.1-1.97","null","<span style='color:GreenYellow; font-size: 70px;'>正确! </span>","null","","","","","","","","","","","","","","","","","","","","","","","feedback_test"
"","","","","","psychophysics","407","719443","0.0-13.0-2.0-1.0-0.1-0.98","838","","f","","","","","","","","","","","","","key","f","16.652137614678754","768","428","f","true","img/T_ambi40.png","坏人","simultaneous",""
"","","","","","html-keyboard-response","408","719755","0.0-13.0-2.0-1.0-0.1-1.98","null","<span style='color:GreenYellow; font-size: 70px;'>正确! </span>","null","","","","","","","","","","","","","","","","","","","","","","","feedback_test"
"","","","","","psychophysics","409","721470","0.0-13.0-2.0-1.0-0.1-0.99","713","","f","","","","","","","","","","","","","key","f","16.648813725490232","768","428","f","true","img/C_ambi40.png","常人","simultaneous",""
"","","","","","html-keyboard-response","410","721787","0.0-13.0-2.0-1.0-0.1-1.99","null","<span style='color:GreenYellow; font-size: 70px;'>正确! </span>","null","","","","","","","","","","","","","","","","","","","","","","","feedback_test"
"","","","","","psychophysics","411","724066","0.0-13.0-2.0-1.0-0.1-0.100","1277","","f","","","","","","","","","","","","","key","f","16.648367647058503","768","428","j","false","img/T_ambi40.png","常人","simultaneous",""
"","","","","","html-keyboard-response","412","724384","0.0-13.0-2.0-1.0-0.1-1.100","null","<span style='color:red; font-size: 70px;'>错误! </span>","null","","","","","","","","","","","","","","","","","","","","","","","feedback_test"
"","","","","","psychophysics","413","726320","0.0-13.0-2.0-1.0-0.1-0.101","930","","f","","","","","","","","","","","","","key","f","16.650939130434846","768","428","f","true","img/S_ambi40.png","好人","simultaneous",""
"","","","","","html-keyboard-response","414","726632","0.0-13.0-2.0-1.0-0.1-1.101","null","<span style='color:GreenYellow; font-size: 70px;'>正确! </span>","null","","","","","","","","","","","","","","","","","","","","","","","feedback_test"
"","","","","","psychophysics","415","728433","0.0-13.0-2.0-1.0-0.1-0.102","796","","f","","","","","","","","","","","","","key","f","16.648803738317948","768","428","f","true","img/S_ambi40.png","好人","simultaneous",""
"","","","","","html-keyboard-response","416","728743","0.0-13.0-2.0-1.0-0.1-1.102","null","<span style='color:GreenYellow; font-size: 70px;'>正确! </span>","null","","","","","","","","","","","","","","","","","","","","","","","feedback_test"
"","","","","","psychophysics","417","730501","0.0-13.0-2.0-1.0-0.1-0.103","752","","j","","","","","","","","","","","","","key","j","16.64862499999939","768","428","j","true","img/C_ambi40.png","好人","simultaneous",""
"","","","","","html-keyboard-response","418","730809","0.0-13.0-2.0-1.0-0.1-1.103","null","<span style='color:GreenYellow; font-size: 70px;'>正确! </span>","null","","","","","","","","","","","","","","","","","","","","","","","feedback_test"
"","","","","","psychophysics","419","733315","0.0-13.0-2.0-1.0-0.1-0.104","null","","null","","","","","","","","","","","","","key","null","16.64925503355745","768","428","f","false","img/T_ambi40.png","坏人","simultaneous",""
"","","","","","html-keyboard-response","420","733623","0.0-13.0-2.0-1.0-0.1-1.104","null","<span class='add_' style='color:yellow; font-size: 70px;'> 太慢! </span>","null","","","","","","","","","","","","","","","","","","","","","","","feedback_test"
"","","","","","psychophysics","421","735508","0.0-13.0-2.0-1.0-0.1-0.105","878","","j","","","","","","","","","","","","","key","j","16.64874107142844","768","428","j","true","img/C_ambi40.png","坏人","simultaneous",""
"","","","","","html-keyboard-response","422","735820","0.0-13.0-2.0-1.0-0.1-1.105","null","<span style='color:GreenYellow; font-size: 70px;'>正确! </span>","null","","","","","","","","","","","","","","","","","","","","","","","feedback_test"
"","","","","","psychophysics","423","737884","0.0-13.0-2.0-1.0-0.1-0.106","1055","","j","","","","","","","","","","","","","key","j","16.6486097560974","768","428","j","true","img/T_ambi40.png","好人","simultaneous",""
"","","","","","html-keyboard-response","424","738203","0.0-13.0-2.0-1.0-0.1-1.106","null","<span style='color:GreenYellow; font-size: 70px;'>正确! </span>","null","","","","","","","","","","","","","","","","","","","","","","","feedback_test"
"","","","","","psychophysics","425","739964","0.0-13.0-2.0-1.0-0.1-0.107","758","","f","","","","","","","","","","","","","key","f","16.64867619047651","768","428","f","true","img/C_ambi40.png","常人","simultaneous",""
"","","","","","html-keyboard-response","426","740276","0.0-13.0-2.0-1.0-0.1-1.107","null","<span style='color:GreenYellow; font-size: 70px;'>正确! </span>","null","","","","","","","","","","","","","","","","","","","","","","","feedback_test"
"","","","","","psychophysics","427","742359","0.0-13.0-2.0-1.0-0.1-0.108","1075","","f","","","","","","","","","","","","","key","f","16.646620967741793","768","428","f","true","img/C_ambi40.png","常人","simultaneous",""
"","","","","","html-keyboard-response","428","742663","0.0-13.0-2.0-1.0-0.1-1.108","null","<span style='color:GreenYellow; font-size: 70px;'>正确! </span>","null","","","","","","","","","","","","","","","","","","","","","","","feedback_test"
"","","","","","psychophysics","429","744677","0.0-13.0-2.0-1.0-0.1-0.109","1008","","j","","","","","","","","","","","","","key","j","16.649199999999837","768","428","j","true","img/T_ambi40.png","好人","simultaneous",""
"","","","","","html-keyboard-response","430","744985","0.0-13.0-2.0-1.0-0.1-1.109","null","<span style='color:GreenYellow; font-size: 70px;'>正确! </span>","null","","","","","","","","","","","","","","","","","","","","","","","feedback_test"
"","","","","","psychophysics","431","746779","0.0-13.0-2.0-1.0-0.1-0.110","793","","j","","","","","","","","","","","","","key","j","16.648726415094472","768","428","j","true","img/C_ambi40.png","坏人","simultaneous",""
