"success","timeout","failed_images","failed_audio","failed_video","trial_type","trial_index","time_elapsed","internal_node_id","rt","stimulus","response","value","item_width_mm","item_height_mm","item_width_px","px2mm","view_dist_mm","item_width_deg","px2deg","scale_factor","win_width_deg","win_height_deg","view_history","response_type","key_press","avg_frame_time","center_x","center_y","correct_response","correct","Image","word","condition","screen_id"
"true","false","[]","[]","[]","preload","0","485","0.0-0.0","","","","","","","","","","","","","","","","","","","","","","","","","",""
"","","","","","html-keyboard-response","1","28123","0.0-1.0","27637","
     <p>您好，欢迎参加本次实验。</p>
     <p>为充分保障您的权利，请确保您已经知晓并同意《参与实验同意书》以及《数据公开知情同意书》。</p>
     <p>如果您未见过上述内容，请咨询实验员。</p>
     <p>如果您选择继续实验，则表示您已经清楚两份知情同意书的内容并同意。</p>
     <p> <div style = ""color: green""><按任意键至下页></div> </p>
     "," ","","","","","","","","","","","","","","","","","","","","","","",""
"","","","","","html-keyboard-response","2","29671","0.0-2.0","1547","
     <p>本实验首先需要您填写一些基本个人信息。</p>
     <p> <div style = ""color: green""><按任意键至下页></div></p>
     "," ","","","","","","","","","","","","","","","","","","","","","","",""
"","","","","","call-function","3","29672","0.0-3.0-0.0","","","","","","","","","","","","","","","","","","","","","","","","","",""
"","","","","","survey-html-form","4","34475","0.0-3.0-1.0","4798","","{""Q0"":""28""}","","","","","","","","","","","","","","","","","","","","","","",""
"","","","","","html-button-response","5","35484","0.0-3.0-2.0","1007","<p style = 'color : white'>您的性别</p>","1","","","","","","","","","","","","","","","","","","","","","","",""
"","","","","","survey-html-form","6","39443","0.0-3.0-3.0","3959","","{""Q0"":""2003""}","","","","","","","","","","","","","","","","","","","","","","",""
"","","","","","survey-html-form","7","41163","0.0-3.0-4.0","1719","","{""Q0"":""5""}","","","","","","","","","","","","","","","","","","","","","","",""
"","","","","","virtual-chinrest","8","104447","0.0-4.0","63279","","","","85.6","53.98","460.1326081875983","5.379491522193244","531.8","9.202652163751965","50","0.8867009047827717","28.8","14.96","","","","","","","","","","","",""
"true","","","","","fullscreen","9","110105","0.0-5.0","","","","","","","","","","","","","","","","","","","","","","","","","",""
"","","","","","instructions","10","151547","0.0-6.0","41441","","","","","","","","","","","","","","[{""page_index"":0,""viewing_time"":2854},{""page_index"":1,""viewing_time"":33275},{""page_index"":2,""viewing_time"":2841},{""page_index"":3,""viewing_time"":2471}]","","","","","","","","","","",""
"","","","","","psychophysics","11","153260","0.0-7.0-0.0-0.0","559","","j","","","","","","","","","","","","","key","j","11.259172185430526","720","446","j","true","img/T_ambi40.png","坏人","prac_image_first",""
"","","","","","html-keyboard-response","12","153561","0.0-7.0-0.0-1.0","null","<span style='color:GreenYellow; font-size: 70px;'>正确! </span>","null","","","","","","","","","","","","","","","","","","","","","","","feedback_test"
"","","","","","psychophysics","13","155309","0.0-7.0-0.0-0.1","596","","f","","","","","","","","","","","","","key","f","11.111159235668728","720","446","f","true","img/C_ambi40.png","坏人","prac_image_first",""
"","","","","","html-keyboard-response","14","155625","0.0-7.0-0.0-1.1","null","<span style='color:GreenYellow; font-size: 70px;'>正确! </span>","null","","","","","","","","","","","","","","","","","","","","","","","feedback_test"
"","","","","","psychophysics","15","157334","0.0-7.0-0.0-0.2","557","","f","","","","","","","","","","","","","key","f","11.112450980392072","720","446","f","true","img/S_ambi40.png","好人","prac_image_first",""
"","","","","","html-keyboard-response","16","157644","0.0-7.0-0.0-1.2","null","<span style='color:GreenYellow; font-size: 70px;'>正确! </span>","null","","","","","","","","","","","","","","","","","","","","","","","feedback_test"
"","","","","","psychophysics","17","159342","0.0-7.0-0.0-0.3","546","","f","","","","","","","","","","","","","key","f","11.10990131578958","720","446","f","true","img/T_ambi40.png","常人","prac_image_first",""
"","","","","","html-keyboard-response","18","159650","0.0-7.0-0.0-1.3","null","<span style='color:GreenYellow; font-size: 70px;'>正确! </span>","null","","","","","","","","","","","","","","","","","","","","","","","feedback_test"
"","","","","","psychophysics","19","161475","0.0-7.0-0.0-0.4","673","","j","","","","","","","","","","","","","key","j","11.112146341463369","720","446","j","true","img/C_ambi40.png","好人","prac_image_first",""
"","","","","","html-keyboard-response","20","161777","0.0-7.0-0.0-1.4","null","<span style='color:GreenYellow; font-size: 70px;'>正确! </span>","null","","","","","","","","","","","","","","","","","","","","","","","feedback_test"
"","","","","","psychophysics","21","163711","0.0-7.0-0.0-0.5","782","","j","","","","","","","","","","","","","key","j","11.110832369942191","720","446","f","false","img/C_ambi40.png","坏人","prac_image_first",""
"","","","","","html-keyboard-response","22","164014","0.0-7.0-0.0-1.5","null","<span style='color:red; font-size: 70px;'>错误! </span>","null","","","","","","","","","","","","","","","","","","","","","","","feedback_test"
"","","","","","psychophysics","23","165785","0.0-7.0-0.0-0.6","620","","j","","","","","","","","","","","","","key","j","11.111493670886134","720","446","j","true","img/S_ambi40.png","常人","prac_image_first",""
"","","","","","html-keyboard-response","24","166100","0.0-7.0-0.0-1.6","null","<span style='color:GreenYellow; font-size: 70px;'>正确! </span>","null","","","","","","","","","","","","","","","","","","","","","","","feedback_test"
"","","","","","psychophysics","25","167749","0.0-7.0-0.0-0.7","497","","f","","","","","","","","","","","","","key","f","11.10998639455766","720","446","f","true","img/T_ambi40.png","常人","prac_image_first",""
"","","","","","html-keyboard-response","26","168059","0.0-7.0-0.0-1.7","null","<span style='color:GreenYellow; font-size: 70px;'>正确! </span>","null","","","","","","","","","","","","","","","","","","","","","","","feedback_test"
"","","","","","psychophysics","27","169734","0.0-7.0-0.0-0.8","524","","j","","","","","","","","","","","","","key","j","11.111673333333457","720","446","j","true","img/T_ambi40.png","好人","prac_image_first",""
"","","","","","html-keyboard-response","28","170050","0.0-7.0-0.0-1.8","null","<span style='color:GreenYellow; font-size: 70px;'>正确! </span>","null","","","","","","","","","","","","","","","","","","","","","","","feedback_test"
"","","","","","psychophysics","29","172094","0.0-7.0-0.0-0.9","892","","j","","","","","","","","","","","","","key","j","11.110513661202116","720","446","j","true","img/C_ambi40.png","常人","prac_image_first",""
"","","","","","html-keyboard-response","30","172396","0.0-7.0-0.0-1.9","null","<span style='color:GreenYellow; font-size: 70px;'>正确! </span>","null","","","","","","","","","","","","","","","","","","","","","","","feedback_test"
"","","","","","psychophysics","31","174239","0.0-7.0-0.0-0.10","686","","f","","","","","","","","","","","","","key","f","11.092914634146416","720","446","f","true","img/S_ambi40.png","好人","prac_image_first",""
"","","","","","html-keyboard-response","32","174553","0.0-7.0-0.0-1.10","null","<span style='color:GreenYellow; font-size: 70px;'>正确! </span>","null","","","","","","","","","","","","","","","","","","","","","","","feedback_test"
"","","","","","psychophysics","33","176216","0.0-7.0-0.0-0.11","512","","j","","","","","","","","","","","","","key","j","11.1115202702703","720","446","j","true","img/S_ambi40.png","坏人","prac_image_first",""
"","","","","","html-keyboard-response","34","176526","0.0-7.0-0.0-1.11","null","<span style='color:GreenYellow; font-size: 70px;'>正确! </span>","null","","","","","","","","","","","","","","","","","","","","","","","feedback_test"
"","","","","","psychophysics","35","178131","0.0-7.0-0.0-0.12","453","","f","","","","","","","","","","","","","key","f","11.111479166666564","720","446","f","true","img/T_ambi40.png","常人","prac_image_first",""
"","","","","","html-keyboard-response","36","178438","0.0-7.0-0.0-1.12","null","<span style='color:GreenYellow; font-size: 70px;'>正确! </span>","null","","","","","","","","","","","","","","","","","","","","","","","feedback_test"
"","","","","","psychophysics","37","180301","0.0-7.0-0.0-0.13","711","","j","","","","","","","","","","","","","key","j","11.1115568862274","720","446","j","true","img/S_ambi40.png","坏人","prac_image_first",""
"","","","","","html-keyboard-response","38","180612","0.0-7.0-0.0-1.13","null","<span style='color:GreenYellow; font-size: 70px;'>正确! </span>","null","","","","","","","","","","","","","","","","","","","","","","","feedback_test"
"","","","","","psychophysics","39","182414","0.0-7.0-0.0-0.14","651","","j","","","","","","","","","","","","","key","j","11.110552795031051","720","446","j","true","img/S_ambi40.png","常人","prac_image_first",""
"","","","","","html-keyboard-response","40","182721","0.0-7.0-0.0-1.14","null","<span style='color:GreenYellow; font-size: 70px;'>正确! </span>","null","","","","","","","","","","","","","","","","","","","","","","","feedback_test"
"","","","","","psychophysics","41","184410","0.0-7.0-0.0-0.15","538","","f","","","","","","","","","","","","","key","f","11.111258278145812","720","446","f","true","img/T_ambi40.png","常人","prac_image_first",""
"","","","","","html-keyboard-response","42","184723","0.0-7.0-0.0-1.15","null","<span style='color:GreenYellow; font-size: 70px;'>正确! </span>","null","","","","","","","","","","","","","","","","","","","","","","","feedback_test"
"","","","","","psychophysics","43","187145","0.0-7.0-0.0-0.16","1271","","f","","","","","","","","","","","","","key","f","11.111018433179792","720","446","f","true","img/C_ambi40.png","坏人","prac_image_first",""
"","","","","","html-keyboard-response","44","187454","0.0-7.0-0.0-1.16","null","<span style='color:GreenYellow; font-size: 70px;'>正确! </span>","null","","","","","","","","","","","","","","","","","","","","","","","feedback_test"
"","","","","","psychophysics","45","189210","0.0-7.0-0.0-0.17","605","","j","","","","","","","","","","","","","key","j","11.111426751592395","720","446","j","true","img/C_ambi40.png","常人","prac_image_first",""
"","","","","","html-keyboard-response","46","189520","0.0-7.0-0.0-1.17","null","<span style='color:GreenYellow; font-size: 70px;'>正确! </span>","null","","","","","","","","","","","","","","","","","","","","","","","feedback_test"
"","","","","","psychophysics","47","191138","0.0-7.0-0.0-0.18","466","","f","","","","","","","","","","","","","key","f","11.11094444444441","720","446","f","true","img/S_ambi40.png","好人","prac_image_first",""
"","","","","","html-keyboard-response","48","191440","0.0-7.0-0.0-1.18","null","<span style='color:GreenYellow; font-size: 70px;'>正确! </span>","null","","","","","","","","","","","","","","","","","","","","","","","feedback_test"
"","","","","","psychophysics","49","193083","0.0-7.0-0.0-0.19","486","","j","","","","","","","","","","","","","key","j","11.111462585034078","720","446","j","true","img/T_ambi40.png","坏人","prac_image_first",""
"","","","","","html-keyboard-response","50","193395","0.0-7.0-0.0-1.19","null","<span style='color:GreenYellow; font-size: 70px;'>正确! </span>","null","","","","","","","","","","","","","","","","","","","","","","","feedback_test"
"","","","","","psychophysics","51","195092","0.0-7.0-0.0-0.20","540","","j","","","","","","","","","","","","","key","j","11.091629139072916","720","446","j","true","img/T_ambi40.png","好人","prac_image_first",""
"","","","","","html-keyboard-response","52","195396","0.0-7.0-0.0-1.20","null","<span style='color:GreenYellow; font-size: 70px;'>正确! </span>","null","","","","","","","","","","","","","","","","","","","","","","","feedback_test"
"","","","","","psychophysics","53","196987","0.0-7.0-0.0-0.21","440","","j","","","","","","","","","","","","","key","j","11.109183098591453","720","446","f","false","img/S_ambi40.png","好人","prac_image_first",""
"","","","","","html-keyboard-response","54","197295","0.0-7.0-0.0-1.21","null","<span style='color:red; font-size: 70px;'>错误! </span>","null","","","","","","","","","","","","","","","","","","","","","","","feedback_test"
"","","","","","psychophysics","55","198906","0.0-7.0-0.0-0.22","454","","j","","","","","","","","","","","","","key","j","11.08987412587422","720","446","j","true","img/C_ambi40.png","好人","prac_image_first",""
"","","","","","html-keyboard-response","56","199209","0.0-7.0-0.0-1.22","null","<span style='color:GreenYellow; font-size: 70px;'>正确! </span>","null","","","","","","","","","","","","","","","","","","","","","","","feedback_test"
"","","","","","psychophysics","57","201172","0.0-7.0-0.0-0.23","811","","j","","","","","","","","","","","","","key","j","11.111702857142912","720","446","f","false","img/C_ambi40.png","坏人","prac_image_first",""
"","","","","","html-keyboard-response","58","201482","0.0-7.0-0.0-1.23","null","<span style='color:red; font-size: 70px;'>错误! </span>","null","","","","","","","","","","","","","","","","","","","","","","","feedback_test"
"","","","","","html-keyboard-response","59","204303","0.0-8.0","2820","<style>.context{color:white; font-size: 35px; line-height:40px}</style>                              <div><p class='context'>您正确回答了88% 的试次。</p><p class='context'>您的平均反应时为611毫秒。</p><p class='context'>恭喜您完成这一阶段的练习。按任意键进入<span style='color: yellow;'>先文字后图形条件</span>的练习。</p></div>"," ","","","","","","","","","","","","","","","","","","","","","","",""
"","","","","","psychophysics","60","206058","0.0-9.0-0.0-0.0","600","","j","","","","","","","","","","","","","key","j","11.18276923076934","720","446","j","true","img/T_ambi40.png","好人","prac_word_first",""
"","","","","","html-keyboard-response","61","206371","0.0-9.0-0.0-1.0","null","<span style='color:GreenYellow; font-size: 70px;'>正确! </span>","null","","","","","","","","","","","","","","","","","","","","","","","feedback_test"
"","","","","","psychophysics","62","208087","0.0-9.0-0.0-0.1","565","","j","","","","","","","","","","","","","key","j","11.11138311688306","720","446","j","true","img/S_ambi40.png","坏人","prac_word_first",""
"","","","","","html-keyboard-response","63","208390","0.0-9.0-0.0-1.1","null","<span style='color:GreenYellow; font-size: 70px;'>正确! </span>","null","","","","","","","","","","","","","","","","","","","","","","","feedback_test"
"","","","","","psychophysics","64","210560","0.0-9.0-0.0-0.2","1019","","f","","","","","","","","","","","","","key","f","11.11082989690716","720","446","f","true","img/S_ambi40.png","好人","prac_word_first",""
"","","","","","html-keyboard-response","65","210862","0.0-9.0-0.0-1.2","null","<span style='color:GreenYellow; font-size: 70px;'>正确! </span>","null","","","","","","","","","","","","","","","","","","","","","","","feedback_test"
"","","","","","psychophysics","66","212598","0.0-9.0-0.0-0.3","583","","j","","","","","","","","","","","","","key","j","11.0922903225806","720","446","j","true","img/T_ambi40.png","坏人","prac_word_first",""
"","","","","","html-keyboard-response","67","212905","0.0-9.0-0.0-1.3","null","<span style='color:GreenYellow; font-size: 70px;'>正确! </span>","null","","","","","","","","","","","","","","","","","","","","","","","feedback_test"
"","","","","","psychophysics","68","214768","0.0-9.0-0.0-0.4","708","","f","","","","","","","","","","","","","key","f","11.111233532934138","720","446","f","true","img/C_ambi40.png","坏人","prac_word_first",""
"","","","","","html-keyboard-response","69","215076","0.0-9.0-0.0-1.4","null","<span style='color:GreenYellow; font-size: 70px;'>正确! </span>","null","","","","","","","","","","","","","","","","","","","","","","","feedback_test"
"","","","","","psychophysics","70","216777","0.0-9.0-0.0-0.5","550","","j","","","","","","","","","","","","","key","j","11.111460526315664","720","446","j","true","img/C_ambi40.png","好人","prac_word_first",""
"","","","","","html-keyboard-response","71","217084","0.0-9.0-0.0-1.5","null","<span style='color:GreenYellow; font-size: 70px;'>正确! </span>","null","","","","","","","","","","","","","","","","","","","","","","","feedback_test"
"","","","","","psychophysics","72","218742","0.0-9.0-0.0-0.6","505","","j","","","","","","","","","","","","","key","j","11.09240540540545","720","446","j","true","img/S_ambi40.png","常人","prac_word_first",""
"","","","","","html-keyboard-response","73","219046","0.0-9.0-0.0-1.6","null","<span style='color:GreenYellow; font-size: 70px;'>正确! </span>","null","","","","","","","","","","","","","","","","","","","","","","","feedback_test"
"","","","","","psychophysics","74","220827","0.0-9.0-0.0-0.7","630","","f","","","","","","","","","","","","","key","f","11.110182389937108","720","446","f","true","img/T_ambi40.png","常人","prac_word_first",""
"","","","","","html-keyboard-response","75","221139","0.0-9.0-0.0-1.7","null","<span style='color:GreenYellow; font-size: 70px;'>正确! </span>","null","","","","","","","","","","","","","","","","","","","","","","","feedback_test"
"","","","","","psychophysics","76","222787","0.0-9.0-0.0-0.8","497","","f","","","","","","","","","","","","","key","f","11.111378378378356","720","446","f","true","img/C_ambi40.png","坏人","prac_word_first",""
"","","","","","html-keyboard-response","77","223091","0.0-9.0-0.0-1.8","null","<span style='color:GreenYellow; font-size: 70px;'>正确! </span>","null","","","","","","","","","","","","","","","","","","","","","","","feedback_test"
"","","","","","psychophysics","78","224923","0.0-9.0-0.0-0.9","680","","f","","","","","","","","","","","","","key","f","11.111689024390127","720","446","f","true","img/S_ambi40.png","好人","prac_word_first",""
"","","","","","html-keyboard-response","79","225233","0.0-9.0-0.0-1.9","null","<span style='color:GreenYellow; font-size: 70px;'>正确! </span>","null","","","","","","","","","","","","","","","","","","","","","","","feedback_test"
"","","","","","psychophysics","80","226832","0.0-9.0-0.0-0.10","448","","f","","","","","","","","","","","","","key","f","11.11094405594399","720","446","f","true","img/T_ambi40.png","常人","prac_word_first",""
"","","","","","html-keyboard-response","81","227145","0.0-9.0-0.0-1.10","null","<span style='color:GreenYellow; font-size: 70px;'>正确! </span>","null","","","","","","","","","","","","","","","","","","","","","","","feedback_test"
"","","","","","psychophysics","82","228942","0.0-9.0-0.0-0.11","646","","j","","","","","","","","","","","","","key","j","11.110049689441134","720","446","j","true","img/C_ambi40.png","常人","prac_word_first",""
"","","","","","html-keyboard-response","83","229246","0.0-9.0-0.0-1.11","null","<span style='color:GreenYellow; font-size: 70px;'>正确! </span>","null","","","","","","","","","","","","","","","","","","","","","","","feedback_test"
"","","","","","psychophysics","84","230926","0.0-9.0-0.0-0.12","528","","j","","","","","","","","","","","","","key","j","11.185248322147546","720","446","j","true","img/S_ambi40.png","常人","prac_word_first",""
"","","","","","html-keyboard-response","85","231233","0.0-9.0-0.0-1.12","null","<span style='color:GreenYellow; font-size: 70px;'>正确! </span>","null","","","","","","","","","","","","","","","","","","","","","","","feedback_test"
"","","","","","psychophysics","86","232916","0.0-9.0-0.0-0.13","532","","j","","","","","","","","","","","","","key","j","11.111180000000168","720","446","j","true","img/C_ambi40.png","常人","prac_word_first",""
"","","","","","html-keyboard-response","87","233217","0.0-9.0-0.0-1.13","null","<span style='color:GreenYellow; font-size: 70px;'>正确! </span>","null","","","","","","","","","","","","","","","","","","","","","","","feedback_test"
"","","","","","psychophysics","88","234936","0.0-9.0-0.0-0.14","562","","f","","","","","","","","","","","","","key","f","11.093248366013023","720","446","f","true","img/S_ambi40.png","好人","prac_word_first",""
"","","","","","html-keyboard-response","89","235251","0.0-9.0-0.0-1.14","null","<span style='color:GreenYellow; font-size: 70px;'>正确! </span>","null","","","","","","","","","","","","","","","","","","","","","","","feedback_test"
"","","","","","psychophysics","90","236930","0.0-9.0-0.0-0.15","528","","j","","","","","","","","","","","","","key","j","11.16155405405388","720","446","f","false","img/C_ambi40.png","坏人","prac_word_first",""
"","","","","","html-keyboard-response","91","237235","0.0-9.0-0.0-1.15","null","<span style='color:red; font-size: 70px;'>错误! </span>","null","","","","","","","","","","","","","","","","","","","","","","","feedback_test"
"","","","","","psychophysics","92","239102","0.0-9.0-0.0-0.16","716","","f","","","","","","","","","","","","","key","f","11.110958083832328","720","446","f","true","img/C_ambi40.png","坏人","prac_word_first",""
"","","","","","html-keyboard-response","93","239404","0.0-9.0-0.0-1.16","null","<span style='color:GreenYellow; font-size: 70px;'>正确! </span>","null","","","","","","","","","","","","","","","","","","","","","","","feedback_test"
"","","","","","psychophysics","94","240967","0.0-9.0-0.0-0.17","411","","f","","","","","","","","","","","","","key","f","11.111571428571603","720","446","f","true","img/T_ambi40.png","常人","prac_word_first",""
"","","","","","html-keyboard-response","95","241278","0.0-9.0-0.0-1.17","null","<span style='color:GreenYellow; font-size: 70px;'>正确! </span>","null","","","","","","","","","","","","","","","","","","","","","","","feedback_test"
"","","","","","psychophysics","96","242885","0.0-9.0-0.0-0.18","455","","j","","","","","","","","","","","","","key","j","11.111335664335678","720","446","f","false","img/S_ambi40.png","好人","prac_word_first",""
"","","","","","html-keyboard-response","97","243201","0.0-9.0-0.0-1.18","null","<span style='color:red; font-size: 70px;'>错误! </span>","null","","","","","","","","","","","","","","","","","","","","","","","feedback_test"
"","","","","","psychophysics","98","245196","0.0-9.0-0.0-0.19","843","","j","","","","","","","","","","","","","key","j","11.110230337078566","720","446","j","true","img/C_ambi40.png","好人","prac_word_first",""
"","","","","","html-keyboard-response","99","245500","0.0-9.0-0.0-1.19","null","<span style='color:GreenYellow; font-size: 70px;'>正确! </span>","null","","","","","","","","","","","","","","","","","","","","","","","feedback_test"
"","","","","","psychophysics","100","247230","0.0-9.0-0.0-0.20","579","","j","","","","","","","","","","","","","key","j","11.11133548387086","720","446","j","true","img/T_ambi40.png","坏人","prac_word_first",""
"","","","","","html-keyboard-response","101","247536","0.0-9.0-0.0-1.20","null","<span style='color:GreenYellow; font-size: 70px;'>正确! </span>","null","","","","","","","","","","","","","","","","","","","","","","","feedback_test"
"","","","","","psychophysics","102","249241","0.0-9.0-0.0-0.21","554","","j","","","","","","","","","","","","","key","j","11.112072368421076","720","446","j","true","img/T_ambi40.png","好人","prac_word_first",""
"","","","","","html-keyboard-response","103","249557","0.0-9.0-0.0-1.21","null","<span style='color:GreenYellow; font-size: 70px;'>正确! </span>","null","","","","","","","","","","","","","","","","","","","","","","","feedback_test"
"","","","","","psychophysics","104","251522","0.0-9.0-0.0-0.22","814","","j","","","","","","","","","","","","","key","j","11.111732954545335","720","446","j","true","img/S_ambi40.png","坏人","prac_word_first",""
"","","","","","html-keyboard-response","105","251827","0.0-9.0-0.0-1.22","null","<span style='color:GreenYellow; font-size: 70px;'>正确! </span>","null","","","","","","","","","","","","","","","","","","","","","","","feedback_test"
"","","","","","psychophysics","106","253458","0.0-9.0-0.0-0.23","480","","f","","","","","","","","","","","","","key","f","11.111630136986369","720","446","f","true","img/T_ambi40.png","常人","prac_word_first",""
"","","","","","html-keyboard-response","107","253762","0.0-9.0-0.0-1.23","null","<span style='color:GreenYellow; font-size: 70px;'>正确! </span>","null","","","","","","","","","","","","","","","","","","","","","","","feedback_test"
"","","","","","html-keyboard-response","108","256270","0.0-10.0","2505","<style>.context{color:white; font-size: 35px; line-height:40px}</style>                              <div><p class='context'>您正确回答了92% 的试次。</p><p class='context'>您的平均反应时为611毫秒。</p><p class='context'>恭喜您完成练习。按任意键进入<span style='color: yellow;'>图形和文字同时呈现条件</span>的练习。</p></div>"," ","","","","","","","","","","","","","","","","","","","","","","",""
"","","","","","psychophysics","109","257949","0.0-11.0-0.0-0.0","674","","f","","","","","","","","","","","","","key","f","11.57566666666652","720","446","f","true","img/T_ambi40.png","常人","prac_simultaneous",""
"","","","","","html-keyboard-response","110","258264","0.0-11.0-0.0-1.0","null","<span style='color:GreenYellow; font-size: 70px;'>正确! </span>","null","","","","","","","","","","","","","","","","","","","","","","","feedback_test"
"","","","","","psychophysics","111","260055","0.0-11.0-0.0-0.1","790","","f","","","","","","","","","","","","","key","f","11.110181250000096","720","446","f","true","img/T_ambi40.png","常人","prac_simultaneous",""
"","","","","","html-keyboard-response","112","260359","0.0-11.0-0.0-1.1","null","<span style='color:GreenYellow; font-size: 70px;'>正确! </span>","null","","","","","","","","","","","","","","","","","","","","","","","feedback_test"
"","","","","","psychophysics","113","262025","0.0-11.0-0.0-0.2","665","","f","","","","","","","","","","","","","key","f","11.111731543624266","720","446","f","true","img/S_ambi40.png","好人","prac_simultaneous",""
"","","","","","html-keyboard-response","114","262334","0.0-11.0-0.0-1.2","null","<span style='color:GreenYellow; font-size: 70px;'>正确! </span>","null","","","","","","","","","","","","","","","","","","","","","","","feedback_test"
"","","","","","psychophysics","115","264162","0.0-11.0-0.0-0.3","826","","j","","","","","","","","","","","","","key","j","11.112177914110273","720","446","j","true","img/T_ambi40.png","坏人","prac_simultaneous",""
"","","","","","html-keyboard-response","116","264470","0.0-11.0-0.0-1.3","null","<span style='color:GreenYellow; font-size: 70px;'>正确! </span>","null","","","","","","","","","","","","","","","","","","","","","","","feedback_test"
"","","","","","psychophysics","117","266275","0.0-11.0-0.0-0.4","804","","f","","","","","","","","","","","","","key","f","11.11166459627331","720","446","j","false","img/C_ambi40.png","好人","prac_simultaneous",""
"","","","","","html-keyboard-response","118","266578","0.0-11.0-0.0-1.4","null","<span style='color:red; font-size: 70px;'>错误! </span>","null","","","","","","","","","","","","","","","","","","","","","","","feedback_test"
"","","","","","psychophysics","119","268412","0.0-11.0-0.0-0.5","832","","j","","","","","","","","","","","","","key","j","11.111262195122148","720","446","j","true","img/C_ambi40.png","常人","prac_simultaneous",""
"","","","","","html-keyboard-response","120","268719","0.0-11.0-0.0-1.5","null","<span style='color:GreenYellow; font-size: 70px;'>正确! </span>","null","","","","","","","","","","","","","","","","","","","","","","","feedback_test"
"","","","","","psychophysics","121","270671","0.0-11.0-0.0-0.6","951","","f","","","","","","","","","","","","","key","f","11.111534482758659","720","446","f","true","img/S_ambi40.png","好人","prac_simultaneous",""
"","","","","","html-keyboard-response","122","270973","0.0-11.0-0.0-1.6","null","<span style='color:GreenYellow; font-size: 70px;'>正确! </span>","null","","","","","","","","","","","","","","","","","","","","","","","feedback_test"
"","","","","","psychophysics","123","273408","0.0-11.0-0.0-0.7","1434","","f","","","","","","","","","","","","","key","f","11.111972477064104","720","446","f","true","img/C_ambi40.png","坏人","prac_simultaneous",""
"","","","","","html-keyboard-response","124","273711","0.0-11.0-0.0-1.7","null","<span style='color:GreenYellow; font-size: 70px;'>正确! </span>","null","","","","","","","","","","","","","","","","","","","","","","","feedback_test"
"","","","","","psychophysics","125","275375","0.0-11.0-0.0-0.8","663","","f","","","","","","","","","","","","","key","f","11.111533783784063","720","446","f","true","img/C_ambi40.png","坏人","prac_simultaneous",""
"","","","","","html-keyboard-response","126","275677","0.0-11.0-0.0-1.8","null","<span style='color:GreenYellow; font-size: 70px;'>正确! </span>","null","","","","","","","","","","","","","","","","","","","","","","","feedback_test"
"","","","","","psychophysics","127","277354","0.0-11.0-0.0-0.9","675","","j","","","","","","","","","","","","","key","j","11.112280000000029","720","446","j","true","img/S_ambi40.png","常人","prac_simultaneous",""
"","","","","","html-keyboard-response","128","277658","0.0-11.0-0.0-1.9","null","<span style='color:GreenYellow; font-size: 70px;'>正确! </span>","null","","","","","","","","","","","","","","","","","","","","","","","feedback_test"
"","","","","","psychophysics","129","279334","0.0-11.0-0.0-0.10","676","","j","","","","","","","","","","","","","key","j","11.111246666666508","720","446","j","true","img/T_ambi40.png","好人","prac_simultaneous",""
"","","","","","html-keyboard-response","130","279639","0.0-11.0-0.0-1.10","null","<span style='color:GreenYellow; font-size: 70px;'>正确! </span>","null","","","","","","","","","","","","","","","","","","","","","","","feedback_test"
"","","","","","psychophysics","131","281671","0.0-11.0-0.0-0.11","1029","","f","","","","","","","","","","","","","key","f","11.556308571428525","720","446","j","false","img/S_ambi40.png","坏人","prac_simultaneous",""
"","","","","","html-keyboard-response","132","281986","0.0-11.0-0.0-1.11","null","<span style='color:red; font-size: 70px;'>错误! </span>","null","","","","","","","","","","","","","","","","","","","","","","","feedback_test"
"","","","","","psychophysics","133","283736","0.0-11.0-0.0-0.12","747","","f","","","","","","","","","","","","","key","f","11.254831168831208","720","446","f","true","img/C_ambi40.png","坏人","prac_simultaneous",""
"","","","","","html-keyboard-response","134","284047","0.0-11.0-0.0-1.12","null","<span style='color:GreenYellow; font-size: 70px;'>正确! </span>","null","","","","","","","","","","","","","","","","","","","","","","","feedback_test"
"","","","","","psychophysics","135","285996","0.0-11.0-0.0-0.13","948","","j","","","","","","","","","","","","","key","j","11.110862068965396","720","446","j","true","img/C_ambi40.png","好人","prac_simultaneous",""
"","","","","","html-keyboard-response","136","286310","0.0-11.0-0.0-1.13","null","<span style='color:GreenYellow; font-size: 70px;'>正确! </span>","null","","","","","","","","","","","","","","","","","","","","","","","feedback_test"
"","","","","","psychophysics","137","288143","0.0-11.0-0.0-0.14","832","","f","","","","","","","","","","","","","key","f","11.110341463414398","720","446","j","false","img/T_ambi40.png","坏人","prac_simultaneous",""
"","","","","","html-keyboard-response","138","288452","0.0-11.0-0.0-1.14","null","<span style='color:red; font-size: 70px;'>错误! </span>","null","","","","","","","","","","","","","","","","","","","","","","","feedback_test"
"","","","","","psychophysics","139","290516","0.0-11.0-0.0-0.15","1062","","f","","","","","","","","","","","","","key","f","11.110614130434797","720","446","f","true","img/S_ambi40.png","好人","prac_simultaneous",""
"","","","","","html-keyboard-response","140","290824","0.0-11.0-0.0-1.15","null","<span style='color:GreenYellow; font-size: 70px;'>正确! </span>","null","","","","","","","","","","","","","","","","","","","","","","","feedback_test"
"","","","","","psychophysics","141","292447","0.0-11.0-0.0-0.16","622","","j","","","","","","","","","","","","","key","j","11.111875862068626","720","446","j","true","img/T_ambi40.png","好人","prac_simultaneous",""
"","","","","","html-keyboard-response","142","292764","0.0-11.0-0.0-1.16","null","<span style='color:GreenYellow; font-size: 70px;'>正确! </span>","null","","","","","","","","","","","","","","","","","","","","","","","feedback_test"
"","","","","","psychophysics","143","294681","0.0-11.0-0.0-0.17","915","","f","","","","","","","","","","","","","key","f","11.111467836257575","720","446","f","true","img/S_ambi40.png","好人","prac_simultaneous",""
"","","","","","html-keyboard-response","144","294985","0.0-11.0-0.0-1.17","null","<span style='color:GreenYellow; font-size: 70px;'>正确! </span>","null","","","","","","","","","","","","","","","","","","","","","","","feedback_test"
"","","","","","psychophysics","145","296671","0.0-11.0-0.0-0.18","685","","j","","","","","","","","","","","","","key","j","11.112251655629215","720","446","j","true","img/S_ambi40.png","坏人","prac_simultaneous",""
"","","","","","html-keyboard-response","146","296974","0.0-11.0-0.0-1.18","null","<span style='color:GreenYellow; font-size: 70px;'>正确! </span>","null","","","","","","","","","","","","","","","","","","","","","","","feedback_test"
"","","","","","psychophysics","147","298512","0.0-11.0-0.0-0.19","536","","j","","","","","","","","","","","","","key","j","11.08843065693424","720","446","f","false","img/C_ambi40.png","坏人","prac_simultaneous",""
"","","","","","html-keyboard-response","148","298816","0.0-11.0-0.0-1.19","null","<span style='color:red; font-size: 70px;'>错误! </span>","null","","","","","","","","","","","","","","","","","","","","","","","feedback_test"
"","","","","","psychophysics","149","300421","0.0-11.0-0.0-0.20","604","","j","","","","","","","","","","","","","key","j","11.111979166666666","720","446","f","false","img/T_ambi40.png","常人","prac_simultaneous",""
"","","","","","html-keyboard-response","150","300727","0.0-11.0-0.0-1.20","null","<span style='color:red; font-size: 70px;'>错误! </span>","null","","","","","","","","","","","","","","","","","","","","","","","feedback_test"
"","","","","","psychophysics","151","302492","0.0-11.0-0.0-0.21","764","","j","","","","","","","","","","","","","key","j","11.253570512820703","720","446","j","true","img/C_ambi40.png","常人","prac_simultaneous",""
"","","","","","html-keyboard-response","152","302801","0.0-11.0-0.0-1.21","null","<span style='color:GreenYellow; font-size: 70px;'>正确! </span>","null","","","","","","","","","","","","","","","","","","","","","","","feedback_test"
"","","","","","psychophysics","153","304451","0.0-11.0-0.0-0.22","649","","f","","","","","","","","","","","","","key","f","11.110761904761949","720","446","f","true","img/T_ambi40.png","常人","prac_simultaneous",""
"","","","","","html-keyboard-response","154","304753","0.0-11.0-0.0-1.22","null","<span style='color:GreenYellow; font-size: 70px;'>正确! </span>","null","","","","","","","","","","","","","","","","","","","","","","","feedback_test"
"","","","","","psychophysics","155","306383","0.0-11.0-0.0-0.23","629","","j","","","","","","","","","","","","","key","j","11.10972413793126","720","446","j","true","img/S_ambi40.png","常人","prac_simultaneous",""
"","","","","","html-keyboard-response","156","306689","0.0-11.0-0.0-1.23","null","<span style='color:GreenYellow; font-size: 70px;'>正确! </span>","null","","","","","","","","","","","","","","","","","","","","","","","feedback_test"
"","","","","","html-keyboard-response","157","312710","0.0-12.0","6019","<style>.context{color:white; font-size: 35px; line-height:40px}</style>                              <div><p class='context'>您正确回答了79% 的试次。</p><p class='context'>您的平均反应时为800毫秒。</p><p class='context'>恭喜您完成练习。按任意键进入正式实验。</p><p class='footer' style='font-size: 35px; line-height:40px;'>请在进入正式实验实验之前将您的<span style='color: lightgreen;'>食指</span>放在电脑键盘的相应键位上进行按键。</p>"," ","","","","","","","","","","","","","","","","","","","","","","",""
"","","","","","html-keyboard-response","158","317142","0.0-13.0-1.0-0.0","4429","
      <p>请您将手指放在按键上，准备进入呈现顺序为<span style='color: yellow;'>先文字后图形条件</span>的正式匹配任务</p>
      <p> <div style = ""color: green""><按任意键进入下一阶段的匹配任务></div></p>
      "," ","","","","","","","","","","","","","","","","","","","","","","",""
"","","","","","psychophysics","159","318841","0.0-13.0-1.0-1.0-0.0-0.0","548","","j","","","","","","","","","","","","","key","j","11.111258278145618","720","446","j","true","img/T_ambi40.png","好人","word_first",""
"","","","","","html-keyboard-response","160","319154","0.0-13.0-1.0-1.0-0.0-1.0","null","<span style='color:GreenYellow; font-size: 70px;'>正确! </span>","null","","","","","","","","","","","","","","","","","","","","","","","feedback_test"
"","","","","","psychophysics","161","320887","0.0-13.0-1.0-1.0-0.0-0.1","581","","f","","","","","","","","","","","","","key","f","11.257519736841985","720","446","f","true","img/S_ambi40.png","好人","word_first",""
"","","","","","html-keyboard-response","162","321196","0.0-13.0-1.0-1.0-0.0-1.1","null","<span style='color:GreenYellow; font-size: 70px;'>正确! </span>","null","","","","","","","","","","","","","","","","","","","","","","","feedback_test"
"","","","","","psychophysics","163","322818","0.0-13.0-1.0-1.0-0.0-0.2","465","","f","","","","","","","","","","","","","key","f","11.1115448275862","720","446","f","true","img/T_ambi40.png","常人","word_first",""
"","","","","","html-keyboard-response","164","323122","0.0-13.0-1.0-1.0-0.0-1.2","null","<span style='color:GreenYellow; font-size: 70px;'>正确! </span>","null","","","","","","","","","","","","","","","","","","","","","","","feedback_test"
"","","","","","psychophysics","165","324694","0.0-13.0-1.0-1.0-0.0-0.3","420","","f","","","","","","","","","","","","","key","f","11.111264285714215","720","446","f","true","img/T_ambi40.png","常人","word_first",""
"","","","","","html-keyboard-response","166","324995","0.0-13.0-1.0-1.0-0.0-1.3","null","<span style='color:GreenYellow; font-size: 70px;'>正确! </span>","null","","","","","","","","","","","","","","","","","","","","","","","feedback_test"
"","","","","","psychophysics","167","326718","0.0-13.0-1.0-1.0-0.0-0.4","571","","f","","","","","","","","","","","","","key","f","11.257848684210714","720","446","f","true","img/S_ambi40.png","好人","word_first",""
"","","","","","html-keyboard-response","168","327024","0.0-13.0-1.0-1.0-0.0-1.4","null","<span style='color:GreenYellow; font-size: 70px;'>正确! </span>","null","","","","","","","","","","","","","","","","","","","","","","","feedback_test"
"","","","","","psychophysics","169","328646","0.0-13.0-1.0-1.0-0.0-0.5","471","","f","","","","","","","","","","","","","key","f","11.111875862069027","720","446","f","true","img/C_ambi40.png","坏人","word_first",""
"","","","","","html-keyboard-response","170","328951","0.0-13.0-1.0-1.0-0.0-1.5","null","<span style='color:GreenYellow; font-size: 70px;'>正确! </span>","null","","","","","","","","","","","","","","","","","","","","","","","feedback_test"
"","","","","","psychophysics","171","330759","0.0-13.0-1.0-1.0-0.0-0.6","650","","f","","","","","","","","","","","","","key","f","11.11208024691362","720","446","j","false","img/C_ambi40.png","好人","word_first",""
"","","","","","html-keyboard-response","172","331069","0.0-13.0-1.0-1.0-0.0-1.6","null","<span style='color:red; font-size: 70px;'>错误! </span>","null","","","","","","","","","","","","","","","","","","","","","","","feedback_test"
"","","","","","psychophysics","173","332840","0.0-13.0-1.0-1.0-0.0-0.7","620","","j","","","","","","","","","","","","","key","j","11.1115253164556","720","446","f","false","img/C_ambi40.png","坏人","word_first",""
"","","","","","html-keyboard-response","174","333143","0.0-13.0-1.0-1.0-0.0-1.7","null","<span style='color:red; font-size: 70px;'>错误! </span>","null","","","","","","","","","","","","","","","","","","","","","","","feedback_test"
"","","","","","psychophysics","175","334875","0.0-13.0-1.0-1.0-0.0-0.8","580","","j","","","","","","","","","","","","","key","j","11.111571428571622","720","446","j","true","img/S_ambi40.png","常人","word_first",""
"","","","","","html-keyboard-response","176","335177","0.0-13.0-1.0-1.0-0.0-1.8","null","<span style='color:GreenYellow; font-size: 70px;'>正确! </span>","null","","","","","","","","","","","","","","","","","","","","","","","feedback_test"
"","","","","","psychophysics","177","337261","0.0-13.0-1.0-1.0-0.0-0.9","931","","j","","","","","","","","","","","","","key","j","11.1103817204302","720","446","j","true","img/S_ambi40.png","坏人","word_first",""
"","","","","","html-keyboard-response","178","337574","0.0-13.0-1.0-1.0-0.0-1.9","null","<span style='color:GreenYellow; font-size: 70px;'>正确! </span>","null","","","","","","","","","","","","","","","","","","","","","","","feedback_test"
"","","","","","psychophysics","179","339322","0.0-13.0-1.0-1.0-0.0-0.10","596","","j","","","","","","","","","","","","","key","j","11.088730769230796","720","446","j","true","img/T_ambi40.png","坏人","word_first",""
"","","","","","html-keyboard-response","180","339632","0.0-13.0-1.0-1.0-0.0-1.10","null","<span style='color:GreenYellow; font-size: 70px;'>正确! </span>","null","","","","","","","","","","","","","","","","","","","","","","","feedback_test"
"","","","","","psychophysics","181","341307","0.0-13.0-1.0-1.0-0.0-0.11","522","","j","","","","","","","","","","","","","key","j","11.110369127516826","720","446","j","true","img/C_ambi40.png","常人","word_first",""
"","","","","","html-keyboard-response","182","341611","0.0-13.0-1.0-1.0-0.0-1.11","null","<span style='color:GreenYellow; font-size: 70px;'>正确! </span>","null","","","","","","","","","","","","","","","","","","","","","","","feedback_test"
"","","","","","psychophysics","183","343268","0.0-13.0-1.0-1.0-0.0-0.12","504","","f","","","","","","","","","","","","","key","f","11.110871621621914","720","446","f","true","img/S_ambi40.png","好人","word_first",""
"","","","","","html-keyboard-response","184","343584","0.0-13.0-1.0-1.0-0.0-1.12","null","<span style='color:GreenYellow; font-size: 70px;'>正确! </span>","null","","","","","","","","","","","","","","","","","","","","","","","feedback_test"
"","","","","","psychophysics","185","345258","0.0-13.0-1.0-1.0-0.0-0.13","522","","j","","","","","","","","","","","","","key","j","11.110839999999929","720","446","f","false","img/C_ambi40.png","坏人","word_first",""
"","","","","","html-keyboard-response","186","345567","0.0-13.0-1.0-1.0-0.0-1.13","null","<span style='color:red; font-size: 70px;'>错误! </span>","null","","","","","","","","","","","","","","","","","","","","","","","feedback_test"
"","","","","","psychophysics","187","347299","0.0-13.0-1.0-1.0-0.0-0.14","580","","j","","","","","","","","","","","","","key","j","11.109741935483932","720","446","j","true","img/S_ambi40.png","坏人","word_first",""
"","","","","","html-keyboard-response","188","347607","0.0-13.0-1.0-1.0-0.0-1.14","null","<span style='color:GreenYellow; font-size: 70px;'>正确! </span>","null","","","","","","","","","","","","","","","","","","","","","","","feedback_test"
"","","","","","psychophysics","189","349250","0.0-13.0-1.0-1.0-0.0-0.15","487","","j","","","","","","","","","","","","","key","j","11.112163265305808","720","446","j","true","img/S_ambi40.png","常人","word_first",""
"","","","","","html-keyboard-response","190","349564","0.0-13.0-1.0-1.0-0.0-1.15","null","<span style='color:GreenYellow; font-size: 70px;'>正确! </span>","null","","","","","","","","","","","","","","","","","","","","","","","feedback_test"
"","","","","","psychophysics","191","351405","0.0-13.0-1.0-1.0-0.0-0.16","689","","f","","","","","","","","","","","","","key","f","11.111158536585252","720","446","f","true","img/C_ambi40.png","坏人","word_first",""
"","","","","","html-keyboard-response","192","351720","0.0-13.0-1.0-1.0-0.0-1.16","null","<span style='color:GreenYellow; font-size: 70px;'>正确! </span>","null","","","","","","","","","","","","","","","","","","","","","","","feedback_test"
"","","","","","psychophysics","193","353401","0.0-13.0-1.0-1.0-0.0-0.17","530","","f","","","","","","","","","","","","","key","f","11.110513333333268","720","446","f","true","img/T_ambi40.png","常人","word_first",""
"","","","","","html-keyboard-response","194","353707","0.0-13.0-1.0-1.0-0.0-1.17","null","<span style='color:GreenYellow; font-size: 70px;'>正确! </span>","null","","","","","","","","","","","","","","","","","","","","","","","feedback_test"
"","","","","","psychophysics","195","355366","0.0-13.0-1.0-1.0-0.0-0.18","508","","f","","","","","","","","","","","","","key","f","11.18642176870735","720","446","j","false","img/C_ambi40.png","好人","word_first",""
"","","","","","html-keyboard-response","196","355682","0.0-13.0-1.0-1.0-0.0-1.18","null","<span style='color:red; font-size: 70px;'>错误! </span>","null","","","","","","","","","","","","","","","","","","","","","","","feedback_test"
"","","","","","psychophysics","197","357311","0.0-13.0-1.0-1.0-0.0-0.19","478","","f","","","","","","","","","","","","","key","f","11.112678082191787","720","446","f","true","img/T_ambi40.png","常人","word_first",""
"","","","","","html-keyboard-response","198","357618","0.0-13.0-1.0-1.0-0.0-1.19","null","<span style='color:GreenYellow; font-size: 70px;'>正确! </span>","null","","","","","","","","","","","","","","","","","","","","","","","feedback_test"
"","","","","","psychophysics","199","359492","0.0-13.0-1.0-1.0-0.0-0.20","716","","f","","","","","","","","","","","","","key","f","11.09332335329319","720","446","f","true","img/S_ambi40.png","好人","word_first",""
"","","","","","html-keyboard-response","200","359807","0.0-13.0-1.0-1.0-0.0-1.20","null","<span style='color:GreenYellow; font-size: 70px;'>正确! </span>","null","","","","","","","","","","","","","","","","","","","","","","","feedback_test"
"","","","","","psychophysics","201","361481","0.0-13.0-1.0-1.0-0.0-0.21","522","","j","","","","","","","","","","","","","key","j","11.11189999999983","720","446","j","true","img/T_ambi40.png","好人","word_first",""
"","","","","","html-keyboard-response","202","361788","0.0-13.0-1.0-1.0-0.0-1.21","null","<span style='color:GreenYellow; font-size: 70px;'>正确! </span>","null","","","","","","","","","","","","","","","","","","","","","","","feedback_test"
"","","","","","psychophysics","203","363514","0.0-13.0-1.0-1.0-0.0-0.22","575","","j","","","","","","","","","","","","","key","j","11.110214285714274","720","446","j","true","img/C_ambi40.png","常人","word_first",""
"","","","","","html-keyboard-response","204","363822","0.0-13.0-1.0-1.0-0.0-1.22","null","<span style='color:GreenYellow; font-size: 70px;'>正确! </span>","null","","","","","","","","","","","","","","","","","","","","","","","feedback_test"
"","","","","","psychophysics","205","365599","0.0-13.0-1.0-1.0-0.0-0.23","626","","j","","","","","","","","","","","","","key","j","11.110660377358315","720","446","j","true","img/T_ambi40.png","坏人","word_first",""
"","","","","","html-keyboard-response","206","365914","0.0-13.0-1.0-1.0-0.0-1.23","null","<span style='color:GreenYellow; font-size: 70px;'>正确! </span>","null","","","","","","","","","","","","","","","","","","","","","","","feedback_test"
"","","","","","psychophysics","207","367549","0.0-13.0-1.0-1.0-0.0-0.24","484","","j","","","","","","","","","","","","","key","j","11.112945205479388","720","446","j","true","img/S_ambi40.png","常人","word_first",""
"","","","","","html-keyboard-response","208","367860","0.0-13.0-1.0-1.0-0.0-1.24","null","<span style='color:GreenYellow; font-size: 70px;'>正确! </span>","null","","","","","","","","","","","","","","","","","","","","","","","feedback_test"
"","","","","","psychophysics","209","369575","0.0-13.0-1.0-1.0-0.0-0.25","563","","j","","","","","","","","","","","","","key","j","11.111228758169815","720","446","f","false","img/T_ambi40.png","常人","word_first",""
"","","","","","html-keyboard-response","210","369890","0.0-13.0-1.0-1.0-0.0-1.25","null","<span style='color:red; font-size: 70px;'>错误! </span>","null","","","","","","","","","","","","","","","","","","","","","","","feedback_test"
"","","","","","psychophysics","211","371651","0.0-13.0-1.0-1.0-0.0-0.26","609","","j","","","","","","","","","","","","","key","j","11.110764331209909","720","446","j","true","img/T_ambi40.png","坏人","word_first",""
"","","","","","html-keyboard-response","212","371965","0.0-13.0-1.0-1.0-0.0-1.26","null","<span style='color:GreenYellow; font-size: 70px;'>正确! </span>","null","","","","","","","","","","","","","","","","","","","","","","","feedback_test"
"","","","","","psychophysics","213","373837","0.0-13.0-1.0-1.0-0.0-0.27","720","","f","","","","","","","","","","","","","key","f","11.109425149700455","720","446","f","true","img/C_ambi40.png","坏人","word_first",""
"","","","","","html-keyboard-response","214","374143","0.0-13.0-1.0-1.0-0.0-1.27","null","<span style='color:GreenYellow; font-size: 70px;'>正确! </span>","null","","","","","","","","","","","","","","","","","","","","","","","feedback_test"
"","","","","","psychophysics","215","375857","0.0-13.0-1.0-1.0-0.0-0.28","563","","j","","","","","","","","","","","","","key","j","11.109470588234984","720","446","j","true","img/C_ambi40.png","好人","word_first",""
"","","","","","html-keyboard-response","216","376160","0.0-13.0-1.0-1.0-0.0-1.28","null","<span style='color:GreenYellow; font-size: 70px;'>正确! </span>","null","","","","","","","","","","","","","","","","","","","","","","","feedback_test"
"","","","","","psychophysics","217","377988","0.0-13.0-1.0-1.0-0.0-0.29","677","","f","","","","","","","","","","","","","key","f","11.11173780487812","720","446","f","true","img/C_ambi40.png","坏人","word_first",""
"","","","","","html-keyboard-response","218","378297","0.0-13.0-1.0-1.0-0.0-1.29","null","<span style='color:GreenYellow; font-size: 70px;'>正确! </span>","null","","","","","","","","","","","","","","","","","","","","","","","feedback_test"
"","","","","","psychophysics","219","379943","0.0-13.0-1.0-1.0-0.0-0.30","494","","f","","","","","","","","","","","","","key","f","11.11157823129253","720","446","f","true","img/T_ambi40.png","常人","word_first",""
"","","","","","html-keyboard-response","220","380259","0.0-13.0-1.0-1.0-0.0-1.30","null","<span style='color:GreenYellow; font-size: 70px;'>正确! </span>","null","","","","","","","","","","","","","","","","","","","","","","","feedback_test"
"","","","","","psychophysics","221","381948","0.0-13.0-1.0-1.0-0.0-0.31","538","","f","","","","","","","","","","","","","key","f","11.111543046357959","720","446","f","true","img/S_ambi40.png","好人","word_first",""
"","","","","","html-keyboard-response","222","382250","0.0-13.0-1.0-1.0-0.0-1.31","null","<span style='color:GreenYellow; font-size: 70px;'>正确! </span>","null","","","","","","","","","","","","","","","","","","","","","","","feedback_test"
"","","","","","psychophysics","223","383869","0.0-13.0-1.0-1.0-0.0-0.32","466","","j","","","","","","","","","","","","","key","j","11.11344827586215","720","446","j","true","img/S_ambi40.png","坏人","word_first",""
"","","","","","html-keyboard-response","224","384176","0.0-13.0-1.0-1.0-0.0-1.32","null","<span style='color:GreenYellow; font-size: 70px;'>正确! </span>","null","","","","","","","","","","","","","","","","","","","","","","","feedback_test"
"","","","","","psychophysics","225","385784","0.0-13.0-1.0-1.0-0.0-0.33","456","","j","","","","","","","","","","","","","key","j","11.11168531468545","720","446","j","true","img/C_ambi40.png","常人","word_first",""
"","","","","","html-keyboard-response","226","386087","0.0-13.0-1.0-1.0-0.0-1.33","null","<span style='color:GreenYellow; font-size: 70px;'>正确! </span>","null","","","","","","","","","","","","","","","","","","","","","","","feedback_test"
"","","","","","psychophysics","227","387808","0.0-13.0-1.0-1.0-0.0-0.34","569","","j","","","","","","","","","","","","","key","j","11.110921568627578","720","446","j","true","img/T_ambi40.png","好人","word_first",""
"","","","","","html-keyboard-response","228","388119","0.0-13.0-1.0-1.0-0.0-1.34","null","<span style='color:GreenYellow; font-size: 70px;'>正确! </span>","null","","","","","","","","","","","","","","","","","","","","","","","feedback_test"
"","","","","","psychophysics","229","389956","0.0-13.0-1.0-1.0-0.0-0.35","686","","f","","","","","","","","","","","","","key","f","11.367062893081837","720","446","f","true","img/S_ambi40.png","好人","word_first",""
"","","","","","html-keyboard-response","230","390264","0.0-13.0-1.0-1.0-0.0-1.35","null","<span style='color:GreenYellow; font-size: 70px;'>正确! </span>","null","","","","","","","","","","","","","","","","","","","","","","","feedback_test"
"","","","","","psychophysics","231","391877","0.0-13.0-1.0-1.0-0.0-0.36","460","","f","","","","","","","","","","","","","key","f","11.110305555555291","720","446","f","true","img/C_ambi40.png","坏人","word_first",""
"","","","","","html-keyboard-response","232","392190","0.0-13.0-1.0-1.0-0.0-1.36","null","<span style='color:GreenYellow; font-size: 70px;'>正确! </span>","null","","","","","","","","","","","","","","","","","","","","","","","feedback_test"
"","","","","","psychophysics","233","393796","0.0-13.0-1.0-1.0-0.0-0.37","456","","f","","","","","","","","","","","","","key","f","11.110244755244853","720","446","f","true","img/T_ambi40.png","常人","word_first",""
"","","","","","html-keyboard-response","234","394098","0.0-13.0-1.0-1.0-0.0-1.37","null","<span style='color:GreenYellow; font-size: 70px;'>正确! </span>","null","","","","","","","","","","","","","","","","","","","","","","","feedback_test"
"","","","","","psychophysics","235","395777","0.0-13.0-1.0-1.0-0.0-0.38","528","","f","","","","","","","","","","","","","key","f","11.111260000000087","720","446","f","true","img/S_ambi40.png","好人","word_first",""
"","","","","","html-keyboard-response","236","396086","0.0-13.0-1.0-1.0-0.0-1.38","null","<span style='color:GreenYellow; font-size: 70px;'>正确! </span>","null","","","","","","","","","","","","","","","","","","","","","","","feedback_test"
"","","","","","psychophysics","237","397839","0.0-13.0-1.0-1.0-0.0-0.39","601","","j","","","","","","","","","","","","","key","j","11.11083974358954","720","446","j","true","img/S_ambi40.png","坏人","word_first",""
"","","","","","html-keyboard-response","238","398151","0.0-13.0-1.0-1.0-0.0-1.39","null","<span style='color:GreenYellow; font-size: 70px;'>正确! </span>","null","","","","","","","","","","","","","","","","","","","","","","","feedback_test"
"","","","","","psychophysics","239","399779","0.0-13.0-1.0-1.0-0.0-0.40","470","","j","","","","","","","","","","","","","key","j","11.112808219178289","720","446","j","true","img/C_ambi40.png","常人","word_first",""
"","","","","","html-keyboard-response","240","400083","0.0-13.0-1.0-1.0-0.0-1.40","null","<span style='color:GreenYellow; font-size: 70px;'>正确! </span>","null","","","","","","","","","","","","","","","","","","","","","","","feedback_test"
"","","","","","psychophysics","241","401848","0.0-13.0-1.0-1.0-0.0-0.41","608","","f","","","","","","","","","","","","","key","f","11.111848101265585","720","446","f","true","img/C_ambi40.png","坏人","word_first",""
"","","","","","html-keyboard-response","242","402164","0.0-13.0-1.0-1.0-0.0-1.41","null","<span style='color:GreenYellow; font-size: 70px;'>正确! </span>","null","","","","","","","","","","","","","","","","","","","","","","","feedback_test"
"","","","","","psychophysics","243","403906","0.0-13.0-1.0-1.0-0.0-0.42","590","","j","","","","","","","","","","","","","key","j","11.110716129032024","720","446","j","true","img/T_ambi40.png","好人","word_first",""
"","","","","","html-keyboard-response","244","404214","0.0-13.0-1.0-1.0-0.0-1.42","null","<span style='color:GreenYellow; font-size: 70px;'>正确! </span>","null","","","","","","","","","","","","","","","","","","","","","","","feedback_test"
"","","","","","psychophysics","245","405892","0.0-13.0-1.0-1.0-0.0-0.43","527","","f","","","","","","","","","","","","","key","f","11.111586666666748","720","446","j","false","img/T_ambi40.png","坏人","word_first",""
"","","","","","html-keyboard-response","246","406204","0.0-13.0-1.0-1.0-0.0-1.43","null","<span style='color:red; font-size: 70px;'>错误! </span>","null","","","","","","","","","","","","","","","","","","","","","","","feedback_test"
"","","","","","psychophysics","247","408544","0.0-13.0-1.0-1.0-0.0-0.44","1189","","f","","","","","","","","","","","","","key","f","11.111599999999937","720","446","f","true","img/S_ambi40.png","好人","word_first",""
"","","","","","html-keyboard-response","248","408850","0.0-13.0-1.0-1.0-0.0-1.44","null","<span style='color:GreenYellow; font-size: 70px;'>正确! </span>","null","","","","","","","","","","","","","","","","","","","","","","","feedback_test"
"","","","","","psychophysics","249","410480","0.0-13.0-1.0-1.0-0.0-0.45","480","","j","","","","","","","","","","","","","key","j","11.11223287671232","720","446","j","true","img/S_ambi40.png","常人","word_first",""
"","","","","","html-keyboard-response","250","410788","0.0-13.0-1.0-1.0-0.0-1.45","null","<span style='color:GreenYellow; font-size: 70px;'>正确! </span>","null","","","","","","","","","","","","","","","","","","","","","","","feedback_test"
"","","","","","psychophysics","251","413227","0.0-13.0-1.0-1.0-0.0-0.46","1288","","f","","","","","","","","","","","","","key","f","11.110357798165225","720","446","j","false","img/C_ambi40.png","好人","word_first",""
"","","","","","html-keyboard-response","252","413532","0.0-13.0-1.0-1.0-0.0-1.46","null","<span style='color:red; font-size: 70px;'>错误! </span>","null","","","","","","","","","","","","","","","","","","","","","","","feedback_test"
"","","","","","psychophysics","253","415174","0.0-13.0-1.0-1.0-0.0-0.47","490","","f","","","","","","","","","","","","","key","f","11.110897260273916","720","446","f","true","img/T_ambi40.png","常人","word_first",""
"","","","","","html-keyboard-response","254","415485","0.0-13.0-1.0-1.0-0.0-1.47","null","<span style='color:GreenYellow; font-size: 70px;'>正确! </span>","null","","","","","","","","","","","","","","","","","","","","","","","feedback_test"
"","","","","","psychophysics","255","417415","0.0-13.0-1.0-1.0-0.0-0.48","773","","j","","","","","","","","","","","","","key","j","11.08770930232564","720","446","j","true","img/C_ambi40.png","好人","word_first",""
"","","","","","html-keyboard-response","256","417724","0.0-13.0-1.0-1.0-0.0-1.48","null","<span style='color:GreenYellow; font-size: 70px;'>正确! </span>","null","","","","","","","","","","","","","","","","","","","","","","","feedback_test"
"","","","","","psychophysics","257","419596","0.0-13.0-1.0-1.0-0.0-0.49","721","","j","","","","","","","","","","","","","key","j","11.110544910179701","720","446","j","true","img/C_ambi40.png","常人","word_first",""
"","","","","","html-keyboard-response","258","419903","0.0-13.0-1.0-1.0-0.0-1.49","null","<span style='color:GreenYellow; font-size: 70px;'>正确! </span>","null","","","","","","","","","","","","","","","","","","","","","","","feedback_test"
"","","","","","psychophysics","259","421527","0.0-13.0-1.0-1.0-0.0-0.50","472","","f","","","","","","","","","","","","","key","f","11.110703448276036","720","446","f","true","img/T_ambi40.png","常人","word_first",""
"","","","","","html-keyboard-response","260","421837","0.0-13.0-1.0-1.0-0.0-1.50","null","<span style='color:GreenYellow; font-size: 70px;'>正确! </span>","null","","","","","","","","","","","","","","","","","","","","","","","feedback_test"
"","","","","","psychophysics","261","423533","0.0-13.0-1.0-1.0-0.0-0.51","544","","f","","","","","","","","","","","","","key","f","11.112065789473968","720","446","f","true","img/S_ambi40.png","好人","word_first",""
"","","","","","html-keyboard-response","262","423837","0.0-13.0-1.0-1.0-0.0-1.51","null","<span style='color:GreenYellow; font-size: 70px;'>正确! </span>","null","","","","","","","","","","","","","","","","","","","","","","","feedback_test"
"","","","","","psychophysics","263","425554","0.0-13.0-1.0-1.0-0.0-0.52","565","","j","","","","","","","","","","","","","key","j","11.110766233765979","720","446","j","true","img/T_ambi40.png","坏人","word_first",""
"","","","","","html-keyboard-response","264","425864","0.0-13.0-1.0-1.0-0.0-1.52","null","<span style='color:GreenYellow; font-size: 70px;'>正确! </span>","null","","","","","","","","","","","","","","","","","","","","","","","feedback_test"
"","","","","","psychophysics","265","427627","0.0-13.0-1.0-1.0-0.0-0.53","610","","j","","","","","","","","","","","","","key","j","11.109859872611231","720","446","j","true","img/T_ambi40.png","好人","word_first",""
"","","","","","html-keyboard-response","266","427933","0.0-13.0-1.0-1.0-0.0-1.53","null","<span style='color:GreenYellow; font-size: 70px;'>正确! </span>","null","","","","","","","","","","","","","","","","","","","","","","","feedback_test"
"","","","","","psychophysics","267","429630","0.0-13.0-1.0-1.0-0.0-0.54","546","","j","","","","","","","","","","","","","key","j","11.10998675496655","720","446","j","true","img/S_ambi40.png","常人","word_first",""
"","","","","","html-keyboard-response","268","429937","0.0-13.0-1.0-1.0-0.0-1.54","null","<span style='color:GreenYellow; font-size: 70px;'>正确! </span>","null","","","","","","","","","","","","","","","","","","","","","","","feedback_test"
"","","","","","psychophysics","269","431496","0.0-13.0-1.0-1.0-0.0-0.55","408","","j","","","","","","","","","","","","","key","j","11.112028776978313","720","446","f","false","img/C_ambi40.png","坏人","word_first",""
"","","","","","html-keyboard-response","270","431809","0.0-13.0-1.0-1.0-0.0-1.55","null","<span style='color:red; font-size: 70px;'>错误! </span>","null","","","","","","","","","","","","","","","","","","","","","","","feedback_test"
"","","","","","psychophysics","271","433563","0.0-13.0-1.0-1.0-0.0-0.56","602","","f","","","","","","","","","","","","","key","f","11.110442307692256","720","446","f","true","img/C_ambi40.png","坏人","word_first",""
"","","","","","html-keyboard-response","272","433874","0.0-13.0-1.0-1.0-0.0-1.56","null","<span style='color:GreenYellow; font-size: 70px;'>正确! </span>","null","","","","","","","","","","","","","","","","","","","","","","","feedback_test"
"","","","","","psychophysics","273","435583","0.0-13.0-1.0-1.0-0.0-0.57","556","","j","","","","","","","","","","","","","key","j","11.306818791946409","720","446","j","true","img/S_ambi40.png","坏人","word_first",""
"","","","","","html-keyboard-response","274","435894","0.0-13.0-1.0-1.0-0.0-1.57","null","<span style='color:GreenYellow; font-size: 70px;'>正确! </span>","null","","","","","","","","","","","","","","","","","","","","","","","feedback_test"
"","","","","","psychophysics","275","437491","0.0-13.0-1.0-1.0-0.0-0.58","445","","f","","","","","","","","","","","","","key","f","11.112237762238088","720","446","f","true","img/T_ambi40.png","常人","word_first",""
"","","","","","html-keyboard-response","276","437802","0.0-13.0-1.0-1.0-0.0-1.58","null","<span style='color:GreenYellow; font-size: 70px;'>正确! </span>","null","","","","","","","","","","","","","","","","","","","","","","","feedback_test"
"","","","","","psychophysics","277","439646","0.0-13.0-1.0-1.0-0.0-0.59","693","","f","","","","","","","","","","","","","key","f","11.110872727272694","720","446","f","true","img/S_ambi40.png","好人","word_first",""
"","","","","","html-keyboard-response","278","439954","0.0-13.0-1.0-1.0-0.0-1.59","null","<span style='color:GreenYellow; font-size: 70px;'>正确! </span>","null","","","","","","","","","","","","","","","","","","","","","","","feedback_test"
"","","","","","html-keyboard-response","279","442589","0.0-13.0-1.0-1.0-1.0","2634","<style>.context{color:white; font-size: 35px; line-height:40px}</style>                              <div><p class='context'>您正确回答了87% 的试次。</p><p class='context'>您的平均反应时为578毫秒。</p><p class='context'>请按任意键进入休息</p></div>"," ","","","","","","","","","","","","","","","","","","","","","","",""
"","","","","","html-button-response","280","454764","0.0-13.0-1.0-1.0-2.0","12172","
                      <p>您当前还剩余3组实验</p>
                      <p>现在是休息时间，当您结束休息后，您可以点击 结束休息 按钮 继续</p>
                      <p>建议休息时间还剩余<span id=""iii"">60</span>秒</p>","0","","","","","","","","","","","","","","","","","","","","","","",""
"","","","","","psychophysics","281","456741","0.0-13.0-1.0-1.0-0.1-0.60","824","","j","","","","","","","","","","","","","key","j","11.43477906976748","720","446","j","true","img/S_ambi40.png","坏人","word_first",""
"","","","","","html-keyboard-response","282","457048","0.0-13.0-1.0-1.0-0.1-1.60","null","<span style='color:GreenYellow; font-size: 70px;'>正确! </span>","null","","","","","","","","","","","","","","","","","","","","","","","feedback_test"
"","","","","","psychophysics","283","458758","0.0-13.0-1.0-1.0-0.1-0.61","558","","f","","","","","","","","","","","","","key","f","11.111549019608098","720","446","f","true","img/S_ambi40.png","好人","word_first",""
"","","","","","html-keyboard-response","284","459070","0.0-13.0-1.0-1.0-0.1-1.61","null","<span style='color:GreenYellow; font-size: 70px;'>正确! </span>","null","","","","","","","","","","","","","","","","","","","","","","","feedback_test"
"","","","","","psychophysics","285","460984","0.0-13.0-1.0-1.0-0.1-0.62","761","","j","","","","","","","","","","","","","key","j","11.111754385964831","720","446","j","true","img/C_ambi40.png","好人","word_first",""
"","","","","","html-keyboard-response","286","461291","0.0-13.0-1.0-1.0-0.1-1.62","null","<span style='color:GreenYellow; font-size: 70px;'>正确! </span>","null","","","","","","","","","","","","","","","","","","","","","","","feedback_test"
"","","","","","psychophysics","287","462974","0.0-13.0-1.0-1.0-0.1-0.63","532","","f","","","","","","","","","","","","","key","f","11.109719999999895","720","446","f","true","img/T_ambi40.png","常人","word_first",""
"","","","","","html-keyboard-response","288","463275","0.0-13.0-1.0-1.0-0.1-1.63","null","<span style='color:GreenYellow; font-size: 70px;'>正确! </span>","null","","","","","","","","","","","","","","","","","","","","","","","feedback_test"
"","","","","","psychophysics","289","465276","0.0-13.0-1.0-1.0-0.1-0.64","848","","f","","","","","","","","","","","","","key","f","11.110106145251574","720","446","f","true","img/C_ambi40.png","坏人","word_first",""
"","","","","","html-keyboard-response","290","465592","0.0-13.0-1.0-1.0-0.1-1.64","null","<span style='color:GreenYellow; font-size: 70px;'>正确! </span>","null","","","","","","","","","","","","","","","","","","","","","","","feedback_test"
"","","","","","psychophysics","291","467286","0.0-13.0-1.0-1.0-0.1-0.65","543","","f","","","","","","","","","","","","","key","f","11.111708609271249","720","446","f","true","img/T_ambi40.png","常人","word_first",""
"","","","","","html-keyboard-response","292","467595","0.0-13.0-1.0-1.0-0.1-1.65","null","<span style='color:GreenYellow; font-size: 70px;'>正确! </span>","null","","","","","","","","","","","","","","","","","","","","","","","feedback_test"
"","","","","","psychophysics","293","469277","0.0-13.0-1.0-1.0-0.1-0.66","524","","j","","","","","","","","","","","","","key","j","11.112403973509922","720","446","j","true","img/T_ambi40.png","好人","word_first",""
"","","","","","html-keyboard-response","294","469582","0.0-13.0-1.0-1.0-0.1-1.66","null","<span style='color:GreenYellow; font-size: 70px;'>正确! </span>","null","","","","","","","","","","","","","","","","","","","","","","","feedback_test"
"","","","","","psychophysics","295","471313","0.0-13.0-1.0-1.0-0.1-0.67","579","","j","","","","","","","","","","","","","key","j","11.111619354838565","720","446","j","true","img/T_ambi40.png","坏人","word_first",""
"","","","","","html-keyboard-response","296","471616","0.0-13.0-1.0-1.0-0.1-1.67","null","<span style='color:GreenYellow; font-size: 70px;'>正确! </span>","null","","","","","","","","","","","","","","","","","","","","","","","feedback_test"
"","","","","","psychophysics","297","473414","0.0-13.0-1.0-1.0-0.1-0.68","642","","f","","","","","","","","","","","","","key","f","11.395904458598396","720","446","f","true","img/S_ambi40.png","好人","word_first",""
"","","","","","html-keyboard-response","298","473725","0.0-13.0-1.0-1.0-0.1-1.68","null","<span style='color:GreenYellow; font-size: 70px;'>正确! </span>","null","","","","","","","","","","","","","","","","","","","","","","","feedback_test"
"","","","","","psychophysics","299","475446","0.0-13.0-1.0-1.0-0.1-0.69","569","","j","","","","","","","","","","","","","key","j","11.111759740259428","720","446","j","true","img/C_ambi40.png","常人","word_first",""
"","","","","","html-keyboard-response","300","475757","0.0-13.0-1.0-1.0-0.1-1.69","null","<span style='color:GreenYellow; font-size: 70px;'>正确! </span>","null","","","","","","","","","","","","","","","","","","","","","","","feedback_test"
"","","","","","psychophysics","301","477421","0.0-13.0-1.0-1.0-0.1-0.70","513","","j","","","","","","","","","","","","","key","j","11.110255033557143","720","446","j","true","img/S_ambi40.png","常人","word_first",""
"","","","","","html-keyboard-response","302","477724","0.0-13.0-1.0-1.0-0.1-1.70","null","<span style='color:GreenYellow; font-size: 70px;'>正确! </span>","null","","","","","","","","","","","","","","","","","","","","","","","feedback_test"
"","","","","","psychophysics","303","479392","0.0-13.0-1.0-1.0-0.1-0.71","517","","f","","","","","","","","","","","","","key","f","11.11147651006741","720","446","f","true","img/C_ambi40.png","坏人","word_first",""
"","","","","","html-keyboard-response","304","479704","0.0-13.0-1.0-1.0-0.1-1.71","null","<span style='color:GreenYellow; font-size: 70px;'>正确! </span>","null","","","","","","","","","","","","","","","","","","","","","","","feedback_test"
"","","","","","psychophysics","305","481351","0.0-13.0-1.0-1.0-0.1-0.72","496","","f","","","","","","","","","","","","","key","f","11.111707482993014","720","446","f","true","img/T_ambi40.png","常人","word_first",""
"","","","","","html-keyboard-response","306","481657","0.0-13.0-1.0-1.0-0.1-1.72","null","<span style='color:GreenYellow; font-size: 70px;'>正确! </span>","null","","","","","","","","","","","","","","","","","","","","","","","feedback_test"
"","","","","","psychophysics","307","483348","0.0-13.0-1.0-1.0-0.1-0.73","540","","j","","","","","","","","","","","","","key","j","11.110933774834367","720","446","j","true","img/S_ambi40.png","常人","word_first",""
"","","","","","html-keyboard-response","308","483661","0.0-13.0-1.0-1.0-0.1-1.73","null","<span style='color:GreenYellow; font-size: 70px;'>正确! </span>","null","","","","","","","","","","","","","","","","","","","","","","","feedback_test"
"","","","","","psychophysics","309","485314","0.0-13.0-1.0-1.0-0.1-0.74","500","","j","","","","","","","","","","","","","key","j","11.111716216216509","720","446","j","true","img/T_ambi40.png","好人","word_first",""
"","","","","","html-keyboard-response","310","485617","0.0-13.0-1.0-1.0-0.1-1.74","null","<span style='color:GreenYellow; font-size: 70px;'>正确! </span>","null","","","","","","","","","","","","","","","","","","","","","","","feedback_test"
"","","","","","psychophysics","311","487354","0.0-13.0-1.0-1.0-0.1-0.75","584","","f","","","","","","","","","","","","","key","f","11.112461538461503","720","446","f","true","img/C_ambi40.png","坏人","word_first",""
"","","","","","html-keyboard-response","312","487659","0.0-13.0-1.0-1.0-0.1-1.75","null","<span style='color:GreenYellow; font-size: 70px;'>正确! </span>","null","","","","","","","","","","","","","","","","","","","","","","","feedback_test"
"","","","","","psychophysics","313","489266","0.0-13.0-1.0-1.0-0.1-0.76","455","","f","","","","","","","","","","","","","key","f","11.111347222222118","720","446","f","true","img/C_ambi40.png","坏人","word_first",""
"","","","","","html-keyboard-response","314","489581","0.0-13.0-1.0-1.0-0.1-1.76","null","<span style='color:GreenYellow; font-size: 70px;'>正确! </span>","null","","","","","","","","","","","","","","","","","","","","","","","feedback_test"
"","","","","","psychophysics","315","491195","0.0-13.0-1.0-1.0-0.1-0.77","463","","f","","","","","","","","","","","","","key","f","11.111076388888856","720","446","f","true","img/T_ambi40.png","常人","word_first",""
"","","","","","html-keyboard-response","316","491508","0.0-13.0-1.0-1.0-0.1-1.77","null","<span style='color:GreenYellow; font-size: 70px;'>正确! </span>","null","","","","","","","","","","","","","","","","","","","","","","","feedback_test"
"","","","","","psychophysics","317","493171","0.0-13.0-1.0-1.0-0.1-0.78","512","","j","","","","","","","","","","","","","key","j","11.111371621621279","720","446","j","true","img/S_ambi40.png","坏人","word_first",""
"","","","","","html-keyboard-response","318","493482","0.0-13.0-1.0-1.0-0.1-1.78","null","<span style='color:GreenYellow; font-size: 70px;'>正确! </span>","null","","","","","","","","","","","","","","","","","","","","","","","feedback_test"
"","","","","","psychophysics","319","495146","0.0-13.0-1.0-1.0-0.1-0.79","512","","j","","","","","","","","","","","","","key","j","11.112704697986612","720","446","j","true","img/T_ambi40.png","坏人","word_first",""
"","","","","","html-keyboard-response","320","495450","0.0-13.0-1.0-1.0-0.1-1.79","null","<span style='color:GreenYellow; font-size: 70px;'>正确! </span>","null","","","","","","","","","","","","","","","","","","","","","","","feedback_test"
"","","","","","psychophysics","321","497137","0.0-13.0-1.0-1.0-0.1-0.80","535","","j","","","","","","","","","","","","","key","j","11.111622516556167","720","446","j","true","img/C_ambi40.png","常人","word_first",""
"","","","","","html-keyboard-response","322","497442","0.0-13.0-1.0-1.0-0.1-1.80","null","<span style='color:GreenYellow; font-size: 70px;'>正确! </span>","null","","","","","","","","","","","","","","","","","","","","","","","feedback_test"
"","","","","","psychophysics","323","499434","0.0-13.0-1.0-1.0-0.1-0.81","841","","j","","","","","","","","","","","","","key","j","11.111022471910044","720","446","j","true","img/C_ambi40.png","好人","word_first",""
"","","","","","html-keyboard-response","324","499739","0.0-13.0-1.0-1.0-0.1-1.81","null","<span style='color:GreenYellow; font-size: 70px;'>正确! </span>","null","","","","","","","","","","","","","","","","","","","","","","","feedback_test"
"","","","","","psychophysics","325","501405","0.0-13.0-1.0-1.0-0.1-0.82","515","","j","","","","","","","","","","","","","key","j","11.111624161073713","720","446","f","false","img/S_ambi40.png","好人","word_first",""
"","","","","","html-keyboard-response","326","501717","0.0-13.0-1.0-1.0-0.1-1.82","null","<span style='color:red; font-size: 70px;'>错误! </span>","null","","","","","","","","","","","","","","","","","","","","","","","feedback_test"
"","","","","","psychophysics","327","503401","0.0-13.0-1.0-1.0-0.1-0.83","531","","f","","","","","","","","","","","","","key","f","11.112119205298352","720","446","f","true","img/S_ambi40.png","好人","word_first",""
"","","","","","html-keyboard-response","328","503716","0.0-13.0-1.0-1.0-0.1-1.83","null","<span style='color:GreenYellow; font-size: 70px;'>正确! </span>","null","","","","","","","","","","","","","","","","","","","","","","","feedback_test"
"","","","","","psychophysics","329","505412","0.0-13.0-1.0-1.0-0.1-0.84","544","","j","","","","","","","","","","","","","key","j","11.33716891891861","720","446","j","true","img/S_ambi40.png","坏人","word_first",""
"","","","","","html-keyboard-response","330","505719","0.0-13.0-1.0-1.0-0.1-1.84","null","<span style='color:GreenYellow; font-size: 70px;'>正确! </span>","null","","","","","","","","","","","","","","","","","","","","","","","feedback_test"
"","","","","","psychophysics","331","507433","0.0-13.0-1.0-1.0-0.1-0.85","560","","j","","","","","","","","","","","","","key","j","11.978148936170586","720","446","f","false","img/S_ambi40.png","好人","word_first",""
"","","","","","html-keyboard-response","332","507738","0.0-13.0-1.0-1.0-0.1-1.85","null","<span style='color:red; font-size: 70px;'>错误! </span>","null","","","","","","","","","","","","","","","","","","","","","","","feedback_test"
"","","","","","psychophysics","333","509535","0.0-13.0-1.0-1.0-0.1-0.86","640","","f","","","","","","","","","","","","","key","f","12.253253424657375","720","446","f","true","img/S_ambi40.png","好人","word_first",""
"","","","","","html-keyboard-response","334","509847","0.0-13.0-1.0-1.0-0.1-1.86","null","<span style='color:GreenYellow; font-size: 70px;'>正确! </span>","null","","","","","","","","","","","","","","","","","","","","","","","feedback_test"
"","","","","","psychophysics","335","511589","0.0-13.0-1.0-1.0-0.1-0.87","591","","f","","","","","","","","","","","","","key","f","12.293439716312056","720","446","f","true","img/T_ambi40.png","常人","word_first",""
"","","","","","html-keyboard-response","336","511893","0.0-13.0-1.0-1.0-0.1-1.87","null","<span style='color:GreenYellow; font-size: 70px;'>正确! </span>","null","","","","","","","","","","","","","","","","","","","","","","","feedback_test"
"","","","","","psychophysics","337","513751","0.0-13.0-1.0-1.0-0.1-0.88","705","","j","","","","","","","","","","","","","key","j","11.456826086956516","720","446","f","false","img/C_ambi40.png","坏人","word_first",""
"","","","","","html-keyboard-response","338","514057","0.0-13.0-1.0-1.0-0.1-1.88","null","<span style='color:red; font-size: 70px;'>错误! </span>","null","","","","","","","","","","","","","","","","","","","","","","","feedback_test"
"","","","","","psychophysics","339","515642","0.0-13.0-1.0-1.0-0.1-0.89","433","","f","","","","","","","","","","","","","key","f","11.111170212765876","720","446","f","true","img/T_ambi40.png","常人","word_first",""
"","","","","","html-keyboard-response","340","515949","0.0-13.0-1.0-1.0-0.1-1.89","null","<span style='color:GreenYellow; font-size: 70px;'>正确! </span>","null","","","","","","","","","","","","","","","","","","","","","","","feedback_test"
"","","","","","psychophysics","341","517984","0.0-13.0-1.0-1.0-0.1-0.90","883","","j","","","","","","","","","","","","","key","j","11.110901098901145","720","446","j","true","img/S_ambi40.png","常人","word_first",""
"","","","","","html-keyboard-response","342","518292","0.0-13.0-1.0-1.0-0.1-1.90","null","<span style='color:GreenYellow; font-size: 70px;'>正确! </span>","null","","","","","","","","","","","","","","","","","","","","","","","feedback_test"
"","","","","","psychophysics","343","520075","0.0-13.0-1.0-1.0-0.1-0.91","632","","j","","","","","","","","","","","","","key","j","11.110566037735952","720","446","j","true","img/T_ambi40.png","坏人","word_first",""
"","","","","","html-keyboard-response","344","520386","0.0-13.0-1.0-1.0-0.1-1.91","null","<span style='color:GreenYellow; font-size: 70px;'>正确! </span>","null","","","","","","","","","","","","","","","","","","","","","","","feedback_test"
"","","","","","psychophysics","345","522081","0.0-13.0-1.0-1.0-0.1-0.92","544","","j","","","","","","","","","","","","","key","j","11.110715231788037","720","446","j","true","img/C_ambi40.png","常人","word_first",""
"","","","","","html-keyboard-response","346","522385","0.0-13.0-1.0-1.0-0.1-1.92","null","<span style='color:GreenYellow; font-size: 70px;'>正确! </span>","null","","","","","","","","","","","","","","","","","","","","","","","feedback_test"
"","","","","","psychophysics","347","524258","0.0-13.0-1.0-1.0-0.1-0.93","715","","f","","","","","","","","","","","","","key","f","11.092161676646725","720","446","f","true","img/C_ambi40.png","坏人","word_first",""
"","","","","","html-keyboard-response","348","524572","0.0-13.0-1.0-1.0-0.1-1.93","null","<span style='color:GreenYellow; font-size: 70px;'>正确! </span>","null","","","","","","","","","","","","","","","","","","","","","","","feedback_test"
"","","","","","psychophysics","349","526305","0.0-13.0-1.0-1.0-0.1-0.94","581","","j","","","","","","","","","","","","","key","j","11.112438709677138","720","446","j","true","img/C_ambi40.png","好人","word_first",""
"","","","","","html-keyboard-response","350","526617","0.0-13.0-1.0-1.0-0.1-1.94","null","<span style='color:GreenYellow; font-size: 70px;'>正确! </span>","null","","","","","","","","","","","","","","","","","","","","","","","feedback_test"
"","","","","","psychophysics","351","528355","0.0-13.0-1.0-1.0-0.1-0.95","586","","j","","","","","","","","","","","","","key","j","11.111064102564109","720","446","j","true","img/T_ambi40.png","好人","word_first",""
"","","","","","html-keyboard-response","352","528657","0.0-13.0-1.0-1.0-0.1-1.95","null","<span style='color:GreenYellow; font-size: 70px;'>正确! </span>","null","","","","","","","","","","","","","","","","","","","","","","","feedback_test"
"","","","","","psychophysics","353","530310","0.0-13.0-1.0-1.0-0.1-0.96","501","","j","","","","","","","","","","","","","key","j","11.110439189189","720","446","j","true","img/T_ambi40.png","好人","word_first",""
"","","","","","html-keyboard-response","354","530614","0.0-13.0-1.0-1.0-0.1-1.96","null","<span style='color:GreenYellow; font-size: 70px;'>正确! </span>","null","","","","","","","","","","","","","","","","","","","","","","","feedback_test"
"","","","","","psychophysics","355","532256","0.0-13.0-1.0-1.0-0.1-0.97","490","","j","","","","","","","","","","","","","key","j","11.111020408163709","720","446","j","true","img/C_ambi40.png","好人","word_first",""
"","","","","","html-keyboard-response","356","532566","0.0-13.0-1.0-1.0-0.1-1.97","null","<span style='color:GreenYellow; font-size: 70px;'>正确! </span>","null","","","","","","","","","","","","","","","","","","","","","","","feedback_test"
"","","","","","psychophysics","357","534261","0.0-13.0-1.0-1.0-0.1-0.98","544","","f","","","","","","","","","","","","","key","f","11.11046357615928","720","446","f","true","img/T_ambi40.png","常人","word_first",""
"","","","","","html-keyboard-response","358","534572","0.0-13.0-1.0-1.0-0.1-1.98","null","<span style='color:GreenYellow; font-size: 70px;'>正确! </span>","null","","","","","","","","","","","","","","","","","","","","","","","feedback_test"
"","","","","","psychophysics","359","536313","0.0-13.0-1.0-1.0-0.1-0.99","590","","j","","","","","","","","","","","","","key","j","11.112108974359357","720","446","j","true","img/S_ambi40.png","坏人","word_first",""
"","","","","","html-keyboard-response","360","536619","0.0-13.0-1.0-1.0-0.1-1.99","null","<span style='color:GreenYellow; font-size: 70px;'>正确! </span>","null","","","","","","","","","","","","","","","","","","","","","","","feedback_test"
"","","","","","psychophysics","361","538398","0.0-13.0-1.0-1.0-0.1-0.100","626","","f","","","","","","","","","","","","","key","f","11.109823899370701","720","446","f","true","img/C_ambi40.png","坏人","word_first",""
"","","","","","html-keyboard-response","362","538714","0.0-13.0-1.0-1.0-0.1-1.100","null","<span style='color:GreenYellow; font-size: 70px;'>正确! </span>","null","","","","","","","","","","","","","","","","","","","","","","","feedback_test"
"","","","","","psychophysics","363","540365","0.0-13.0-1.0-1.0-0.1-0.101","500","","f","","","","","","","","","","","","","key","f","11.110574324325048","720","446","f","true","img/T_ambi40.png","常人","word_first",""
"","","","","","html-keyboard-response","364","540681","0.0-13.0-1.0-1.0-0.1-1.101","null","<span style='color:GreenYellow; font-size: 70px;'>正确! </span>","null","","","","","","","","","","","","","","","","","","","","","","","feedback_test"
"","","","","","psychophysics","365","542350","0.0-13.0-1.0-1.0-0.1-0.102","518","","j","","","","","","","","","","","","","key","j","11.111993288590835","720","446","j","true","img/C_ambi40.png","常人","word_first",""
"","","","","","html-keyboard-response","366","542652","0.0-13.0-1.0-1.0-0.1-1.102","null","<span style='color:GreenYellow; font-size: 70px;'>正确! </span>","null","","","","","","","","","","","","","","","","","","","","","","","feedback_test"
"","","","","","psychophysics","367","544527","0.0-13.0-1.0-1.0-0.1-0.103","719","","f","","","","","","","","","","","","","key","f","11.111443113772657","720","446","f","true","img/S_ambi40.png","好人","word_first",""
"","","","","","html-keyboard-response","368","544838","0.0-13.0-1.0-1.0-0.1-1.103","null","<span style='color:GreenYellow; font-size: 70px;'>正确! </span>","null","","","","","","","","","","","","","","","","","","","","","","","feedback_test"
"","","","","","psychophysics","369","546442","0.0-13.0-1.0-1.0-0.1-0.104","453","","j","","","","","","","","","","","","","key","j","11.11054545454518","720","446","j","true","img/S_ambi40.png","常人","word_first",""
"","","","","","html-keyboard-response","370","546759","0.0-13.0-1.0-1.0-0.1-1.104","null","<span style='color:GreenYellow; font-size: 70px;'>正确! </span>","null","","","","","","","","","","","","","","","","","","","","","","","feedback_test"
"","","","","","psychophysics","371","548518","0.0-13.0-1.0-1.0-0.1-0.105","608","","j","","","","","","","","","","","","","key","j","11.111656050955592","720","446","j","true","img/T_ambi40.png","坏人","word_first",""
"","","","","","html-keyboard-response","372","548826","0.0-13.0-1.0-1.0-0.1-1.105","null","<span style='color:GreenYellow; font-size: 70px;'>正确! </span>","null","","","","","","","","","","","","","","","","","","","","","","","feedback_test"
"","","","","","psychophysics","373","550581","0.0-13.0-1.0-1.0-0.1-0.106","604","","f","","","","","","","","","","","","","key","f","11.11140127388529","720","446","f","true","img/S_ambi40.png","好人","word_first",""
"","","","","","html-keyboard-response","374","550892","0.0-13.0-1.0-1.0-0.1-1.106","null","<span style='color:GreenYellow; font-size: 70px;'>正确! </span>","null","","","","","","","","","","","","","","","","","","","","","","","feedback_test"
"","","","","","psychophysics","375","552677","0.0-13.0-1.0-1.0-0.1-0.107","633","","f","","","","","","","","","","","","","key","f","11.11038750000007","720","446","f","true","img/C_ambi40.png","坏人","word_first",""
"","","","","","html-keyboard-response","376","552988","0.0-13.0-1.0-1.0-0.1-1.107","null","<span style='color:GreenYellow; font-size: 70px;'>正确! </span>","null","","","","","","","","","","","","","","","","","","","","","","","feedback_test"
"","","","","","psychophysics","377","554602","0.0-13.0-1.0-1.0-0.1-0.108","461","","f","","","","","","","","","","","","","key","f","11.110256944444295","720","446","j","false","img/C_ambi40.png","好人","word_first",""
"","","","","","html-keyboard-response","378","554910","0.0-13.0-1.0-1.0-0.1-1.108","null","<span style='color:red; font-size: 70px;'>错误! </span>","null","","","","","","","","","","","","","","","","","","","","","","","feedback_test"
"","","","","","psychophysics","379","556553","0.0-13.0-1.0-1.0-0.1-0.109","491","","f","","","","","","","","","","","","","key","f","11.111479452054482","720","446","f","true","img/T_ambi40.png","常人","word_first",""
"","","","","","html-keyboard-response","380","556865","0.0-13.0-1.0-1.0-0.1-1.109","null","<span style='color:GreenYellow; font-size: 70px;'>正确! </span>","null","","","","","","","","","","","","","","","","","","","","","","","feedback_test"
"","","","","","psychophysics","381","558507","0.0-13.0-1.0-1.0-0.1-0.110","490","","f","","","","","","","","","","","","","key","f","11.110739726027033","720","446","f","true","img/S_ambi40.png","好人","word_first",""
"","","","","","html-keyboard-response","382","558816","0.0-13.0-1.0-1.0-0.1-1.110","null","<span style='color:GreenYellow; font-size: 70px;'>正确! </span>","null","","","","","","","","","","","","","","","","","","","","","","","feedback_test"
"","","","","","psychophysics","383","560504","0.0-13.0-1.0-1.0-0.1-0.111","536","","j","","","","","","","","","","","","","key","j","11.260268456375245","720","446","j","true","img/C_ambi40.png","常人","word_first",""
"","","","","","html-keyboard-response","384","560818","0.0-13.0-1.0-1.0-0.1-1.111","null","<span style='color:GreenYellow; font-size: 70px;'>正确! </span>","null","","","","","","","","","","","","","","","","","","","","","","","feedback_test"
"","","","","","psychophysics","385","562641","0.0-13.0-1.0-1.0-0.1-0.112","671","","j","","","","","","","","","","","","","key","j","11.110623456789957","720","446","j","true","img/T_ambi40.png","坏人","word_first",""
"","","","","","html-keyboard-response","386","562946","0.0-13.0-1.0-1.0-0.1-1.112","null","<span style='color:GreenYellow; font-size: 70px;'>正确! </span>","null","","","","","","","","","","","","","","","","","","","","","","","feedback_test"
"","","","","","psychophysics","387","564907","0.0-13.0-1.0-1.0-0.1-0.113","810","","j","","","","","","","","","","","","","key","j","11.111811428570986","720","446","f","false","img/C_ambi40.png","坏人","word_first",""
"","","","","","html-keyboard-response","388","565220","0.0-13.0-1.0-1.0-0.1-1.113","null","<span style='color:red; font-size: 70px;'>错误! </span>","null","","","","","","","","","","","","","","","","","","","","","","","feedback_test"
"","","","","","psychophysics","389","566873","0.0-13.0-1.0-1.0-0.1-0.114","501","","f","","","","","","","","","","","","","key","f","11.110537414965663","720","446","f","true","img/T_ambi40.png","常人","word_first",""
"","","","","","html-keyboard-response","390","567189","0.0-13.0-1.0-1.0-0.1-1.114","null","<span style='color:GreenYellow; font-size: 70px;'>正确! </span>","null","","","","","","","","","","","","","","","","","","","","","","","feedback_test"
"","","","","","psychophysics","391","569221","0.0-13.0-1.0-1.0-0.1-0.115","880","","j","","","","","","","","","","","","","key","j","11.110225274725202","720","446","j","true","img/T_ambi40.png","好人","word_first",""
"","","","","","html-keyboard-response","392","569523","0.0-13.0-1.0-1.0-0.1-1.115","null","<span style='color:GreenYellow; font-size: 70px;'>正确! </span>","null","","","","","","","","","","","","","","","","","","","","","","","feedback_test"
"","","","","","psychophysics","393","571407","0.0-13.0-1.0-1.0-0.1-0.116","732","","j","","","","","","","","","","","","","key","j","11.24525301204784","720","446","j","true","img/S_ambi40.png","坏人","word_first",""
"","","","","","html-keyboard-response","394","571711","0.0-13.0-1.0-1.0-0.1-1.116","null","<span style='color:GreenYellow; font-size: 70px;'>正确! </span>","null","","","","","","","","","","","","","","","","","","","","","","","feedback_test"
"","","","","","psychophysics","395","573403","0.0-13.0-1.0-1.0-0.1-0.117","540","","f","","","","","","","","","","","","","key","f","11.111476821191948","720","446","f","true","img/S_ambi40.png","好人","word_first",""
"","","","","","html-keyboard-response","396","573710","0.0-13.0-1.0-1.0-0.1-1.117","null","<span style='color:GreenYellow; font-size: 70px;'>正确! </span>","null","","","","","","","","","","","","","","","","","","","","","","","feedback_test"
"","","","","","psychophysics","397","575383","0.0-13.0-1.0-1.0-0.1-0.118","522","","j","","","","","","","","","","","","","key","j","11.11071140939548","720","446","j","true","img/S_ambi40.png","常人","word_first",""
"","","","","","html-keyboard-response","398","575698","0.0-13.0-1.0-1.0-0.1-1.118","null","<span style='color:GreenYellow; font-size: 70px;'>正确! </span>","null","","","","","","","","","","","","","","","","","","","","","","","feedback_test"
"","","","","","psychophysics","399","577491","0.0-13.0-1.0-1.0-0.1-0.119","640","","f","","","","","","","","","","","","","key","f","11.18012578616361","720","446","f","true","img/C_ambi40.png","坏人","word_first",""
"","","","","","html-keyboard-response","400","577794","0.0-13.0-1.0-1.0-0.1-1.119","null","<span style='color:GreenYellow; font-size: 70px;'>正确! </span>","null","","","","","","","","","","","","","","","","","","","","","","","feedback_test"
"","","","","","html-keyboard-response","401","579869","0.0-13.0-1.0-1.0-1.1","2074","<style>.context{color:white; font-size: 35px; line-height:40px}</style>                              <div><p class='context'>您正确回答了92% 的试次。</p><p class='context'>您的平均反应时为588毫秒。</p><p class='context'>请按任意键进入休息</p></div>"," ","","","","","","","","","","","","","","","","","","","","","","",""
"","","","","","html-button-response","402","585716","0.0-13.0-1.0-1.0-2.1","5844","
                      <p>您当前还剩余2组实验</p>
                      <p>现在是休息时间，当您结束休息后，您可以点击 结束休息 按钮 继续</p>
                      <p>建议休息时间还剩余<span id=""iii"">60</span>秒</p>","0","","","","","","","","","","","","","","","","","","","","","","",""
"","","","","","psychophysics","403","587507","0.0-13.0-1.0-1.0-0.2-0.120","639","","f","","","","","","","","","","","","","key","f","11.111556250000286","720","446","f","true","img/C_ambi40.png","坏人","word_first",""
"","","","","","html-keyboard-response","404","587819","0.0-13.0-1.0-1.0-0.2-1.120","null","<span style='color:GreenYellow; font-size: 70px;'>正确! </span>","null","","","","","","","","","","","","","","","","","","","","","","","feedback_test"
"","","","","","psychophysics","405","589577","0.0-13.0-1.0-1.0-0.2-0.121","607","","j","","","","","","","","","","","","","key","j","11.111076433121102","720","446","j","true","img/C_ambi40.png","常人","word_first",""
"","","","","","html-keyboard-response","406","589883","0.0-13.0-1.0-1.0-0.2-1.121","null","<span style='color:GreenYellow; font-size: 70px;'>正确! </span>","null","","","","","","","","","","","","","","","","","","","","","","","feedback_test"
"","","","","","psychophysics","407","591527","0.0-13.0-1.0-1.0-0.2-0.122","492","","f","","","","","","","","","","","","","key","f","11.111176870748254","720","446","f","true","img/T_ambi40.png","常人","word_first",""
"","","","","","html-keyboard-response","408","591836","0.0-13.0-1.0-1.0-0.2-1.122","null","<span style='color:GreenYellow; font-size: 70px;'>正确! </span>","null","","","","","","","","","","","","","","","","","","","","","","","feedback_test"
"","","","","","psychophysics","409","593534","0.0-13.0-1.0-1.0-0.2-0.123","546","","f","","","","","","","","","","","","","key","f","11.112026315789798","720","446","f","true","img/T_ambi40.png","常人","word_first",""
"","","","","","html-keyboard-response","410","593841","0.0-13.0-1.0-1.0-0.2-1.123","null","<span style='color:GreenYellow; font-size: 70px;'>正确! </span>","null","","","","","","","","","","","","","","","","","","","","","","","feedback_test"
"","","","","","psychophysics","411","595539","0.0-13.0-1.0-1.0-0.2-0.124","546","","j","","","","","","","","","","","","","key","j","11.111496688741019","720","446","j","true","img/S_ambi40.png","坏人","word_first",""
"","","","","","html-keyboard-response","412","595849","0.0-13.0-1.0-1.0-0.2-1.124","null","<span style='color:GreenYellow; font-size: 70px;'>正确! </span>","null","","","","","","","","","","","","","","","","","","","","","","","feedback_test"
"","","","","","psychophysics","413","597540","0.0-13.0-1.0-1.0-0.2-0.125","539","","j","","","","","","","","","","","","","key","j","11.111430463576164","720","446","f","false","img/S_ambi40.png","好人","word_first",""
"","","","","","html-keyboard-response","414","597847","0.0-13.0-1.0-1.0-0.2-1.125","null","<span style='color:red; font-size: 70px;'>错误! </span>","null","","","","","","","","","","","","","","","","","","","","","","","feedback_test"
"","","","","","psychophysics","415","599603","0.0-13.0-1.0-1.0-0.2-0.126","604","","f","","","","","","","","","","","","","key","f","11.112152866242086","720","446","f","true","img/C_ambi40.png","坏人","word_first",""
"","","","","","html-keyboard-response","416","599912","0.0-13.0-1.0-1.0-0.2-1.126","null","<span style='color:GreenYellow; font-size: 70px;'>正确! </span>","null","","","","","","","","","","","","","","","","","","","","","","","feedback_test"
"","","","","","psychophysics","417","601698","0.0-13.0-1.0-1.0-0.2-0.127","634","","f","","","","","","","","","","","","","key","f","11.110612499999842","720","446","f","true","img/S_ambi40.png","好人","word_first",""
"","","","","","html-keyboard-response","418","602016","0.0-13.0-1.0-1.0-0.2-1.127","null","<span style='color:GreenYellow; font-size: 70px;'>正确! </span>","null","","","","","","","","","","","","","","","","","","","","","","","feedback_test"
"","","","","","psychophysics","419","603663","0.0-13.0-1.0-1.0-0.2-0.128","497","","j","","","","","","","","","","","","","key","j","11.11158503401315","720","446","j","true","img/S_ambi40.png","常人","word_first",""
"","","","","","html-keyboard-response","420","603968","0.0-13.0-1.0-1.0-0.2-1.128","null","<span style='color:GreenYellow; font-size: 70px;'>正确! </span>","null","","","","","","","","","","","","","","","","","","","","","","","feedback_test"
"","","","","","psychophysics","421","605866","0.0-13.0-1.0-1.0-0.2-0.129","747","","j","","","","","","","","","","","","","key","j","11.380054216866988","720","446","j","true","img/C_ambi40.png","好人","word_first",""
"","","","","","html-keyboard-response","422","606175","0.0-13.0-1.0-1.0-0.2-1.129","null","<span style='color:GreenYellow; font-size: 70px;'>正确! </span>","null","","","","","","","","","","","","","","","","","","","","","","","feedback_test"
"","","","","","psychophysics","423","607992","0.0-13.0-1.0-1.0-0.2-0.130","667","","j","","","","","","","","","","","","","key","j","11.110975308641992","720","446","j","true","img/T_ambi40.png","坏人","word_first",""
"","","","","","html-keyboard-response","424","608302","0.0-13.0-1.0-1.0-0.2-1.130","null","<span style='color:GreenYellow; font-size: 70px;'>正确! </span>","null","","","","","","","","","","","","","","","","","","","","","","","feedback_test"
"","","","","","psychophysics","425","610054","0.0-13.0-1.0-1.0-0.2-0.131","601","","j","","","","","","","","","","","","","key","j","11.111076433120362","720","446","j","true","img/T_ambi40.png","好人","word_first",""
"","","","","","html-keyboard-response","426","610370","0.0-13.0-1.0-1.0-0.2-1.131","null","<span style='color:GreenYellow; font-size: 70px;'>正确! </span>","null","","","","","","","","","","","","","","","","","","","","","","","feedback_test"
"","","","","","psychophysics","427","612024","0.0-13.0-1.0-1.0-0.2-0.132","503","","j","","","","","","","","","","","","","key","j","11.112054054053482","720","446","f","false","img/T_ambi40.png","常人","word_first",""
"","","","","","html-keyboard-response","428","612340","0.0-13.0-1.0-1.0-0.2-1.132","null","<span style='color:red; font-size: 70px;'>错误! </span>","null","","","","","","","","","","","","","","","","","","","","","","","feedback_test"
"","","","","","psychophysics","429","614165","0.0-13.0-1.0-1.0-0.2-0.133","668","","j","","","","","","","","","","","","","key","j","11.092061349692857","720","446","j","true","img/C_ambi40.png","好人","word_first",""
"","","","","","html-keyboard-response","430","614470","0.0-13.0-1.0-1.0-0.2-1.133","null","<span style='color:GreenYellow; font-size: 70px;'>正确! </span>","null","","","","","","","","","","","","","","","","","","","","","","","feedback_test"
"","","","","","psychophysics","431","616143","0.0-13.0-1.0-1.0-0.2-0.134","522","","j","","","","","","","","","","","","","key","j","11.110760000000397","720","446","j","true","img/T_ambi40.png","好人","word_first",""
"","","","","","html-keyboard-response","432","616454","0.0-13.0-1.0-1.0-0.2-1.134","null","<span style='color:GreenYellow; font-size: 70px;'>正确! </span>","null","","","","","","","","","","","","","","","","","","","","","","","feedback_test"
