"success","timeout","failed_images","failed_audio","failed_video","trial_type","trial_index","time_elapsed","internal_node_id","rt","stimulus","response","value","item_width_mm","item_height_mm","item_width_px","px2mm","view_dist_mm","item_width_deg","px2deg","scale_factor","win_width_deg","win_height_deg","view_history","response_type","key_press","avg_frame_time","center_x","center_y","correct_response","correct","Image","word","condition","screen_id"
"true","false","[]","[]","[]","preload","0","330","0.0-0.0","","","","","","","","","","","","","","","","","","","","","","","","","",""
"","","","","","html-keyboard-response","1","4568","0.0-1.0","4237","
     <p>您好，欢迎参加本次实验。</p>
     <p>为充分保障您的权利，请确保您已经知晓并同意《参与实验同意书》以及《数据公开知情同意书》。</p>
     <p>如果您未见过上述内容，请咨询实验员。</p>
     <p>如果您选择继续实验，则表示您已经清楚两份知情同意书的内容并同意。</p>
     <p> <div style = ""color: green""><按任意键至下页></div> </p>
     "," ","","","","","","","","","","","","","","","","","","","","","","",""
"","","","","","html-keyboard-response","2","5871","0.0-2.0","1302","
     <p>本实验首先需要您填写一些基本个人信息。</p>
     <p> <div style = ""color: green""><按任意键至下页></div></p>
     "," ","","","","","","","","","","","","","","","","","","","","","","",""
"","","","","","call-function","3","5873","0.0-3.0-0.0","","","","","","","","","","","","","","","","","","","","","","","","","",""
"","","","","","survey-html-form","4","10586","0.0-3.0-1.0","4711","","{""Q0"":""19""}","","","","","","","","","","","","","","","","","","","","","","",""
"","","","","","html-button-response","5","11480","0.0-3.0-2.0","892","<p style = 'color : white'>您的性别</p>","1","","","","","","","","","","","","","","","","","","","","","","",""
"","","","","","survey-html-form","6","15353","0.0-3.0-3.0","3872","","{""Q0"":""2003""}","","","","","","","","","","","","","","","","","","","","","","",""
"","","","","","survey-html-form","7","18033","0.0-3.0-4.0","2679","","{""Q0"":""5""}","","","","","","","","","","","","","","","","","","","","","","",""
"","","","","","virtual-chinrest","8","117435","0.0-4.0","99399","","","","85.6","53.98","539.2029232403463","6.293084515271946","453.45","10.784058464806925","50","0.6991801856978336","29.76","14.28","","","","","","","","","","","",""
"true","","","","","fullscreen","9","119528","0.0-5.0","","","","","","","","","","","","","","","","","","","","","","","","","",""
"","","","","","instructions","10","200842","0.0-6.0","81311","","","","","","","","","","","","","","[{""page_index"":0,""viewing_time"":4373},{""page_index"":1,""viewing_time"":72552},{""page_index"":2,""viewing_time"":2831},{""page_index"":3,""viewing_time"":1553}]","","","","","","","","","","",""
"","","","","","psychophysics","11","203481","0.0-7.0-0.0-0.0","1484","","f","","","","","","","","","","","","","key","f","16.66336305732494","768","428","f","true","img/T_ambi40.png","坏人","prac_image_first",""
"","","","","","html-keyboard-response","12","203784","0.0-7.0-0.0-1.0","null","<span style='color:GreenYellow; font-size: 70px;'>正确! </span>","null","","","","","","","","","","","","","","","","","","","","","","","feedback_test"
"","","","","","psychophysics","13","205776","0.0-7.0-0.0-0.1","834","","f","","","","","","","","","","","","","key","f","16.66264406779645","768","428","f","true","img/S_ambi40.png","常人","prac_image_first",""
"","","","","","html-keyboard-response","14","206084","0.0-7.0-0.0-1.1","null","<span style='color:GreenYellow; font-size: 70px;'>正确! </span>","null","","","","","","","","","","","","","","","","","","","","","","","feedback_test"
"","","","","","psychophysics","15","207970","0.0-7.0-0.0-0.2","731","","j","","","","","","","","","","","","","key","j","16.662687499999915","768","428","j","true","img/S_ambi40.png","坏人","prac_image_first",""
"","","","","","html-keyboard-response","16","208281","0.0-7.0-0.0-1.2","null","<span style='color:GreenYellow; font-size: 70px;'>正确! </span>","null","","","","","","","","","","","","","","","","","","","","","","","feedback_test"
"","","","","","psychophysics","17","210034","0.0-7.0-0.0-0.3","593","","f","","","","","","","","","","","","","key","f","16.661057142857075","768","428","f","true","img/C_ambi40.png","坏人","prac_image_first",""
"","","","","","html-keyboard-response","18","210351","0.0-7.0-0.0-1.3","null","<span style='color:GreenYellow; font-size: 70px;'>正确! </span>","null","","","","","","","","","","","","","","","","","","","","","","","feedback_test"
"","","","","","psychophysics","19","212422","0.0-7.0-0.0-0.4","918","","j","","","","","","","","","","","","","key","j","16.66334146341452","768","428","j","true","img/C_ambi40.png","好人","prac_image_first",""
"","","","","","html-keyboard-response","20","212730","0.0-7.0-0.0-1.4","null","<span style='color:GreenYellow; font-size: 70px;'>正确! </span>","null","","","","","","","","","","","","","","","","","","","","","","","feedback_test"
"","","","","","psychophysics","21","214928","0.0-7.0-0.0-0.5","1040","","f","","","","","","","","","","","","","key","f","16.663442748091548","768","428","f","true","img/C_ambi40.png","常人","prac_image_first",""
"","","","","","html-keyboard-response","22","215243","0.0-7.0-0.0-1.5","null","<span style='color:GreenYellow; font-size: 70px;'>正确! </span>","null","","","","","","","","","","","","","","","","","","","","","","","feedback_test"
"","","","","","psychophysics","23","216985","0.0-7.0-0.0-0.6","591","","j","","","","","","","","","","","","","key","j","16.663135922330238","768","428","j","true","img/S_ambi40.png","坏人","prac_image_first",""
"","","","","","html-keyboard-response","24","217300","0.0-7.0-0.0-1.6","null","<span style='color:GreenYellow; font-size: 70px;'>正确! </span>","null","","","","","","","","","","","","","","","","","","","","","","","feedback_test"
"","","","","","psychophysics","25","219211","0.0-7.0-0.0-0.7","755","","j","","","","","","","","","","","","","key","j","16.663412280701635","768","428","j","true","img/C_ambi40.png","好人","prac_image_first",""
"","","","","","html-keyboard-response","26","219522","0.0-7.0-0.0-1.7","null","<span style='color:GreenYellow; font-size: 70px;'>正确! </span>","null","","","","","","","","","","","","","","","","","","","","","","","feedback_test"
"","","","","","psychophysics","27","221410","0.0-7.0-0.0-0.8","734","","f","","","","","","","","","","","","","key","f","16.56734821428576","768","428","f","true","img/S_ambi40.png","好人","prac_image_first",""
"","","","","","html-keyboard-response","28","221728","0.0-7.0-0.0-1.8","null","<span style='color:GreenYellow; font-size: 70px;'>正确! </span>","null","","","","","","","","","","","","","","","","","","","","","","","feedback_test"
"","","","","","psychophysics","29","223791","0.0-7.0-0.0-0.9","903","","f","","","","","","","","","","","","","key","f","16.66256557377036","768","428","j","false","img/T_ambi40.png","常人","prac_image_first",""
"","","","","","html-keyboard-response","30","224099","0.0-7.0-0.0-1.9","null","<span style='color:red; font-size: 70px;'>错误! </span>","null","","","","","","","","","","","","","","","","","","","","","","","feedback_test"
"","","","","","psychophysics","31","225853","0.0-7.0-0.0-0.10","597","","j","","","","","","","","","","","","","key","j","16.66297115384609","768","428","j","true","img/T_ambi40.png","常人","prac_image_first",""
"","","","","","html-keyboard-response","32","226172","0.0-7.0-0.0-1.10","null","<span style='color:GreenYellow; font-size: 70px;'>正确! </span>","null","","","","","","","","","","","","","","","","","","","","","","","feedback_test"
"","","","","","psychophysics","33","228160","0.0-7.0-0.0-0.11","835","","f","","","","","","","","","","","","","key","f","16.803462184873897","768","428","f","true","img/T_ambi40.png","好人","prac_image_first",""
"","","","","","html-keyboard-response","34","228476","0.0-7.0-0.0-1.11","null","<span style='color:GreenYellow; font-size: 70px;'>正确! </span>","null","","","","","","","","","","","","","","","","","","","","","","","feedback_test"
"","","","","","psychophysics","35","230077","0.0-7.0-0.0-0.12","445","","j","","","","","","","","","","","","","key","j","16.663218749999942","768","428","j","true","img/C_ambi40.png","好人","prac_image_first",""
"","","","","","html-keyboard-response","36","230395","0.0-7.0-0.0-1.12","null","<span style='color:GreenYellow; font-size: 70px;'>正确! </span>","null","","","","","","","","","","","","","","","","","","","","","","","feedback_test"
"","","","","","psychophysics","37","232144","0.0-7.0-0.0-0.13","592","","f","","","","","","","","","","","","","key","f","16.664403846153828","768","428","f","true","img/T_ambi40.png","坏人","prac_image_first",""
"","","","","","html-keyboard-response","38","232460","0.0-7.0-0.0-1.13","null","<span style='color:GreenYellow; font-size: 70px;'>正确! </span>","null","","","","","","","","","","","","","","","","","","","","","","","feedback_test"
"","","","","","psychophysics","39","234489","0.0-7.0-0.0-0.14","874","","j","","","","","","","","","","","","","key","j","16.664181818181895","768","428","f","false","img/S_ambi40.png","常人","prac_image_first",""
"","","","","","html-keyboard-response","40","234805","0.0-7.0-0.0-1.14","null","<span style='color:red; font-size: 70px;'>错误! </span>","null","","","","","","","","","","","","","","","","","","","","","","","feedback_test"
"","","","","","psychophysics","41","236767","0.0-7.0-0.0-0.15","810","","j","","","","","","","","","","","","","key","j","16.661393162393175","768","428","f","false","img/C_ambi40.png","常人","prac_image_first",""
"","","","","","html-keyboard-response","42","237075","0.0-7.0-0.0-1.15","null","<span style='color:red; font-size: 70px;'>错误! </span>","null","","","","","","","","","","","","","","","","","","","","","","","feedback_test"
"","","","","","psychophysics","43","238948","0.0-7.0-0.0-0.16","716","","j","","","","","","","","","","","","","key","j","16.66396396396407","768","428","j","true","img/T_ambi40.png","常人","prac_image_first",""
"","","","","","html-keyboard-response","44","239264","0.0-7.0-0.0-1.16","null","<span style='color:GreenYellow; font-size: 70px;'>正确! </span>","null","","","","","","","","","","","","","","","","","","","","","","","feedback_test"
"","","","","","psychophysics","45","241138","0.0-7.0-0.0-0.17","716","","f","","","","","","","","","","","","","key","f","16.663714285714377","768","428","j","false","img/T_ambi40.png","常人","prac_image_first",""
"","","","","","html-keyboard-response","46","241448","0.0-7.0-0.0-1.17","null","<span style='color:red; font-size: 70px;'>错误! </span>","null","","","","","","","","","","","","","","","","","","","","","","","feedback_test"
"","","","","","psychophysics","47","243381","0.0-7.0-0.0-0.18","781","","f","","","","","","","","","","","","","key","f","16.66421551724137","768","428","f","true","img/T_ambi40.png","好人","prac_image_first",""
"","","","","","html-keyboard-response","48","243699","0.0-7.0-0.0-1.18","null","<span style='color:GreenYellow; font-size: 70px;'>正确! </span>","null","","","","","","","","","","","","","","","","","","","","","","","feedback_test"
"","","","","","psychophysics","49","245579","0.0-7.0-0.0-0.19","724","","f","","","","","","","","","","","","","key","f","16.66313274336265","768","428","f","true","img/C_ambi40.png","坏人","prac_image_first",""
"","","","","","html-keyboard-response","50","245901","0.0-7.0-0.0-1.19","null","<span style='color:GreenYellow; font-size: 70px;'>正确! </span>","null","","","","","","","","","","","","","","","","","","","","","","","feedback_test"
"","","","","","psychophysics","51","247826","0.0-7.0-0.0-0.20","772","","j","","","","","","","","","","","","","key","j","16.80845217391312","768","428","j","true","img/S_ambi40.png","坏人","prac_image_first",""
"","","","","","html-keyboard-response","52","248135","0.0-7.0-0.0-1.20","null","<span style='color:GreenYellow; font-size: 70px;'>正确! </span>","null","","","","","","","","","","","","","","","","","","","","","","","feedback_test"
"","","","","","psychophysics","53","250065","0.0-7.0-0.0-0.21","778","","j","","","","","","","","","","","","","key","j","16.663228070175503","768","428","j","true","img/C_ambi40.png","好人","prac_image_first",""
"","","","","","html-keyboard-response","54","250377","0.0-7.0-0.0-1.21","null","<span style='color:GreenYellow; font-size: 70px;'>正确! </span>","null","","","","","","","","","","","","","","","","","","","","","","","feedback_test"
"","","","","","psychophysics","55","252132","0.0-7.0-0.0-0.22","597","","f","","","","","","","","","","","","","key","f","16.664142857143002","768","428","f","true","img/S_ambi40.png","好人","prac_image_first",""
"","","","","","html-keyboard-response","56","252440","0.0-7.0-0.0-1.22","null","<span style='color:GreenYellow; font-size: 70px;'>正确! </span>","null","","","","","","","","","","","","","","","","","","","","","","","feedback_test"
"","","","","","psychophysics","57","254292","0.0-7.0-0.0-0.23","693","","j","","","","","","","","","","","","","key","j","16.66299099099103","768","428","j","true","img/S_ambi40.png","坏人","prac_image_first",""
"","","","","","html-keyboard-response","58","254613","0.0-7.0-0.0-1.23","null","<span style='color:GreenYellow; font-size: 70px;'>正确! </span>","null","","","","","","","","","","","","","","","","","","","","","","","feedback_test"
"","","","","","html-keyboard-response","59","257811","0.0-8.0","3190","<style>.context{color:white; font-size: 35px; line-height:40px}</style>                              <div><p class='context'>您正确回答了83% 的试次。</p><p class='context'>您的平均反应时为761毫秒。</p><p class='context'>恭喜您完成这一阶段的练习。按任意键进入<span style='color: yellow;'>先文字后图形条件</span>的练习。</p></div>"," ","","","","","","","","","","","","","","","","","","","","","","",""
"","","","","","psychophysics","60","259873","0.0-9.0-0.0-0.0","888","","f","","","","","","","","","","","","","key","f","16.663105691056955","768","428","f","true","img/S_ambi40.png","常人","prac_word_first",""
"","","","","","html-keyboard-response","61","260188","0.0-9.0-0.0-1.0","null","<span style='color:GreenYellow; font-size: 70px;'>正确! </span>","null","","","","","","","","","","","","","","","","","","","","","","","feedback_test"
"","","","","","psychophysics","62","262230","0.0-9.0-0.0-0.1","887","","f","","","","","","","","","","","","","key","f","16.662942148760454","768","428","f","true","img/C_ambi40.png","坏人","prac_word_first",""
"","","","","","html-keyboard-response","63","262544","0.0-9.0-0.0-1.1","null","<span style='color:GreenYellow; font-size: 70px;'>正确! </span>","null","","","","","","","","","","","","","","","","","","","","","","","feedback_test"
"","","","","","psychophysics","64","264508","0.0-9.0-0.0-0.2","808","","f","","","","","","","","","","","","","key","f","16.6627094017095","768","428","j","false","img/T_ambi40.png","常人","prac_word_first",""
"","","","","","html-keyboard-response","65","264828","0.0-9.0-0.0-1.2","null","<span style='color:red; font-size: 70px;'>错误! </span>","null","","","","","","","","","","","","","","","","","","","","","","","feedback_test"
"","","","","","psychophysics","66","266831","0.0-9.0-0.0-0.3","847","","f","","","","","","","","","","","","","key","f","16.664327731092378","768","428","f","true","img/C_ambi40.png","常人","prac_word_first",""
"","","","","","html-keyboard-response","67","267142","0.0-9.0-0.0-1.3","null","<span style='color:GreenYellow; font-size: 70px;'>正确! </span>","null","","","","","","","","","","","","","","","","","","","","","","","feedback_test"
"","","","","","psychophysics","68","268943","0.0-9.0-0.0-0.4","647","","f","","","","","","","","","","","","","key","f","16.663420560747433","768","428","f","true","img/T_ambi40.png","好人","prac_word_first",""
"","","","","","html-keyboard-response","69","269260","0.0-9.0-0.0-1.4","null","<span style='color:GreenYellow; font-size: 70px;'>正确! </span>","null","","","","","","","","","","","","","","","","","","","","","","","feedback_test"
"","","","","","psychophysics","70","270902","0.0-9.0-0.0-0.5","486","","j","","","","","","","","","","","","","key","j","16.663959595959778","768","428","j","true","img/C_ambi40.png","好人","prac_word_first",""
"","","","","","html-keyboard-response","71","271217","0.0-9.0-0.0-1.5","null","<span style='color:GreenYellow; font-size: 70px;'>正确! </span>","null","","","","","","","","","","","","","","","","","","","","","","","feedback_test"
"","","","","","psychophysics","72","273215","0.0-9.0-0.0-0.6","840","","f","","","","","","","","","","","","","key","f","16.664364406779324","768","428","f","true","img/S_ambi40.png","好人","prac_word_first",""
"","","","","","html-keyboard-response","73","273534","0.0-9.0-0.0-1.6","null","<span style='color:GreenYellow; font-size: 70px;'>正确! </span>","null","","","","","","","","","","","","","","","","","","","","","","","feedback_test"
"","","","","","psychophysics","74","275427","0.0-9.0-0.0-0.7","740","","f","","","","","","","","","","","","","key","f","16.664026548672854","768","428","f","true","img/T_ambi40.png","坏人","prac_word_first",""
"","","","","","html-keyboard-response","75","275741","0.0-9.0-0.0-1.7","null","<span style='color:GreenYellow; font-size: 70px;'>正确! </span>","null","","","","","","","","","","","","","","","","","","","","","","","feedback_test"
"","","","","","psychophysics","76","277624","0.0-9.0-0.0-0.8","728","","j","","","","","","","","","","","","","key","j","16.663637168141417","768","428","j","true","img/C_ambi40.png","好人","prac_word_first",""
"","","","","","html-keyboard-response","77","277937","0.0-9.0-0.0-1.8","null","<span style='color:GreenYellow; font-size: 70px;'>正确! </span>","null","","","","","","","","","","","","","","","","","","","","","","","feedback_test"
"","","","","","psychophysics","78","279672","0.0-9.0-0.0-0.9","576","","j","","","","","","","","","","","","","key","j","16.66470192307707","768","428","j","true","img/S_ambi40.png","坏人","prac_word_first",""
"","","","","","html-keyboard-response","79","279978","0.0-9.0-0.0-1.9","null","<span style='color:GreenYellow; font-size: 70px;'>正确! </span>","null","","","","","","","","","","","","","","","","","","","","","","","feedback_test"
"","","","","","psychophysics","80","282033","0.0-9.0-0.0-0.10","903","","f","","","","","","","","","","","","","key","f","16.558360655738145","768","428","j","false","img/T_ambi40.png","常人","prac_word_first",""
"","","","","","html-keyboard-response","81","282334","0.0-9.0-0.0-1.10","null","<span style='color:red; font-size: 70px;'>错误! </span>","null","","","","","","","","","","","","","","","","","","","","","","","feedback_test"
"","","","","","psychophysics","82","284525","0.0-9.0-0.0-0.11","1037","","j","","","","","","","","","","","","","key","j","16.66279230769231","768","428","j","true","img/S_ambi40.png","坏人","prac_word_first",""
"","","","","","html-keyboard-response","83","284839","0.0-9.0-0.0-1.11","null","<span style='color:GreenYellow; font-size: 70px;'>正确! </span>","null","","","","","","","","","","","","","","","","","","","","","","","feedback_test"
"","","","","","psychophysics","84","287042","0.0-9.0-0.0-0.12","1046","","f","","","","","","","","","","","","","key","f","16.660900000000122","768","428","f","true","img/S_ambi40.png","常人","prac_word_first",""
"","","","","","html-keyboard-response","85","287357","0.0-9.0-0.0-1.12","null","<span style='color:GreenYellow; font-size: 70px;'>正确! </span>","null","","","","","","","","","","","","","","","","","","","","","","","feedback_test"
"","","","","","psychophysics","86","289096","0.0-9.0-0.0-0.13","583","","j","","","","","","","","","","","","","key","j","16.665725490196458","768","428","j","true","img/C_ambi40.png","好人","prac_word_first",""
"","","","","","html-keyboard-response","87","289407","0.0-9.0-0.0-1.13","null","<span style='color:GreenYellow; font-size: 70px;'>正确! </span>","null","","","","","","","","","","","","","","","","","","","","","","","feedback_test"
"","","","","","psychophysics","88","291784","0.0-9.0-0.0-0.14","1221","","f","","","","","","","","","","","","","key","f","16.66289436619714","768","428","f","true","img/C_ambi40.png","坏人","prac_word_first",""
"","","","","","html-keyboard-response","89","292089","0.0-9.0-0.0-1.14","null","<span style='color:GreenYellow; font-size: 70px;'>正确! </span>","null","","","","","","","","","","","","","","","","","","","","","","","feedback_test"
"","","","","","psychophysics","90","294152","0.0-9.0-0.0-0.15","907","","f","","","","","","","","","","","","","key","f","16.662504065040277","768","428","f","true","img/C_ambi40.png","常人","prac_word_first",""
"","","","","","html-keyboard-response","91","294469","0.0-9.0-0.0-1.15","null","<span style='color:GreenYellow; font-size: 70px;'>正确! </span>","null","","","","","","","","","","","","","","","","","","","","","","","feedback_test"
"","","","","","psychophysics","92","296434","0.0-9.0-0.0-0.16","806","","j","","","","","","","","","","","","","key","j","16.6630512820512","768","428","j","true","img/S_ambi40.png","坏人","prac_word_first",""
"","","","","","html-keyboard-response","93","296749","0.0-9.0-0.0-1.16","null","<span style='color:GreenYellow; font-size: 70px;'>正确! </span>","null","","","","","","","","","","","","","","","","","","","","","","","feedback_test"
"","","","","","psychophysics","94","298587","0.0-9.0-0.0-0.17","684","","f","","","","","","","","","","","","","key","f","16.66295454545444","768","428","f","true","img/T_ambi40.png","好人","prac_word_first",""
"","","","","","html-keyboard-response","95","298904","0.0-9.0-0.0-1.17","null","<span style='color:GreenYellow; font-size: 70px;'>正确! </span>","null","","","","","","","","","","","","","","","","","","","","","","","feedback_test"
"","","","","","psychophysics","96","300845","0.0-9.0-0.0-0.18","785","","j","","","","","","","","","","","","","key","j","16.66352136752172","768","428","j","true","img/S_ambi40.png","坏人","prac_word_first",""
"","","","","","html-keyboard-response","97","301157","0.0-9.0-0.0-1.18","null","<span style='color:GreenYellow; font-size: 70px;'>正确! </span>","null","","","","","","","","","","","","","","","","","","","","","","","feedback_test"
"","","","","","psychophysics","98","303221","0.0-9.0-0.0-0.19","910","","j","","","","","","","","","","","","","key","j","16.663254098360785","768","428","j","true","img/T_ambi40.png","常人","prac_word_first",""
"","","","","","html-keyboard-response","99","303531","0.0-9.0-0.0-1.19","null","<span style='color:GreenYellow; font-size: 70px;'>正确! </span>","null","","","","","","","","","","","","","","","","","","","","","","","feedback_test"
"","","","","","psychophysics","100","305291","0.0-9.0-0.0-0.20","603","","f","","","","","","","","","","","","","key","f","16.662884615384637","768","428","j","false","img/T_ambi40.png","常人","prac_word_first",""
"","","","","","html-keyboard-response","101","305604","0.0-9.0-0.0-1.20","null","<span style='color:red; font-size: 70px;'>错误! </span>","null","","","","","","","","","","","","","","","","","","","","","","","feedback_test"
"","","","","","psychophysics","102","307333","0.0-9.0-0.0-0.21","574","","j","","","","","","","","","","","","","key","j","16.663495145631316","768","428","j","true","img/C_ambi40.png","好人","prac_word_first",""
"","","","","","html-keyboard-response","103","307645","0.0-9.0-0.0-1.21","null","<span style='color:GreenYellow; font-size: 70px;'>正确! </span>","null","","","","","","","","","","","","","","","","","","","","","","","feedback_test"
"","","","","","psychophysics","104","309538","0.0-9.0-0.0-0.22","739","","f","","","","","","","","","","","","","key","f","16.663830357142746","768","428","f","true","img/S_ambi40.png","好人","prac_word_first",""
"","","","","","html-keyboard-response","105","309853","0.0-9.0-0.0-1.22","null","<span style='color:GreenYellow; font-size: 70px;'>正确! </span>","null","","","","","","","","","","","","","","","","","","","","","","","feedback_test"
"","","","","","psychophysics","106","312227","0.0-9.0-0.0-0.23","1219","","f","","","","","","","","","","","","","key","f","16.66296503496506","768","428","f","true","img/T_ambi40.png","坏人","prac_word_first",""
"","","","","","html-keyboard-response","107","312545","0.0-9.0-0.0-1.23","null","<span style='color:GreenYellow; font-size: 70px;'>正确! </span>","null","","","","","","","","","","","","","","","","","","","","","","","feedback_test"
"","","","","","html-keyboard-response","108","317566","0.0-10.0","5020","<style>.context{color:white; font-size: 35px; line-height:40px}</style>                              <div><p class='context'>您正确回答了88% 的试次。</p><p class='context'>您的平均反应时为817毫秒。</p><p class='context'>恭喜您完成练习。按任意键进入<span style='color: yellow;'>图形和文字同时呈现条件</span>的练习。</p></div>"," ","","","","","","","","","","","","","","","","","","","","","","",""
"","","","","","psychophysics","109","320074","0.0-11.0-0.0-0.0","null","","null","","","","","","","","","","","","","key","null","16.663268456375775","768","428","j","false","img/T_ambi40.png","常人","prac_simultaneous",""
"","","","","","html-keyboard-response","110","320383","0.0-11.0-0.0-1.0","null","<span class='add_' style='color:yellow; font-size: 70px;'> 太慢! </span>","null","","","","","","","","","","","","","","","","","","","","","","","feedback_test"
"","","","","","psychophysics","111","322459","0.0-11.0-0.0-0.1","1069","","f","","","","","","","","","","","","","key","f","16.601097560976065","768","428","j","false","img/C_ambi40.png","好人","prac_simultaneous",""
"","","","","","html-keyboard-response","112","322775","0.0-11.0-0.0-1.1","null","<span style='color:red; font-size: 70px;'>错误! </span>","null","","","","","","","","","","","","","","","","","","","","","","","feedback_test"
"","","","","","psychophysics","113","324647","0.0-11.0-0.0-0.2","860","","f","","","","","","","","","","","","","key","f","16.664261261261327","768","428","f","true","img/C_ambi40.png","坏人","prac_simultaneous",""
"","","","","","html-keyboard-response","114","324956","0.0-11.0-0.0-1.2","null","<span style='color:GreenYellow; font-size: 70px;'>正确! </span>","null","","","","","","","","","","","","","","","","","","","","","","","feedback_test"
"","","","","","psychophysics","115","327159","0.0-11.0-0.0-0.3","1193","","f","","","","","","","","","","","","","key","f","16.66348484848453","768","428","f","true","img/C_ambi40.png","常人","prac_simultaneous",""
"","","","","","html-keyboard-response","116","327477","0.0-11.0-0.0-1.3","null","<span style='color:GreenYellow; font-size: 70px;'>正确! </span>","null","","","","","","","","","","","","","","","","","","","","","","","feedback_test"
"","","","","","psychophysics","117","329345","0.0-11.0-0.0-0.4","867","","j","","","","","","","","","","","","","key","j","16.66353571428564","768","428","f","false","img/S_ambi40.png","好人","prac_simultaneous",""
"","","","","","html-keyboard-response","118","329656","0.0-11.0-0.0-1.4","null","<span style='color:red; font-size: 70px;'>错误! </span>","null","","","","","","","","","","","","","","","","","","","","","","","feedback_test"
"","","","","","psychophysics","119","331633","0.0-11.0-0.0-0.5","970","","f","","","","","","","","","","","","","key","f","16.663313559322102","768","428","f","true","img/S_ambi40.png","常人","prac_simultaneous",""
"","","","","","html-keyboard-response","120","331938","0.0-11.0-0.0-1.5","null","<span style='color:GreenYellow; font-size: 70px;'>正确! </span>","null","","","","","","","","","","","","","","","","","","","","","","","feedback_test"
"","","","","","psychophysics","121","333831","0.0-11.0-0.0-0.6","891","","j","","","","","","","","","","","","","key","j","16.66123893805285","768","428","j","true","img/S_ambi40.png","坏人","prac_simultaneous",""
"","","","","","html-keyboard-response","122","334141","0.0-11.0-0.0-1.6","null","<span style='color:GreenYellow; font-size: 70px;'>正确! </span>","null","","","","","","","","","","","","","","","","","","","","","","","feedback_test"
"","","","","","psychophysics","123","335933","0.0-11.0-0.0-0.7","783","","j","","","","","","","","","","","","","key","j","16.660943396226394","768","428","j","true","img/S_ambi40.png","坏人","prac_simultaneous",""
"","","","","","html-keyboard-response","124","336240","0.0-11.0-0.0-1.7","null","<span style='color:GreenYellow; font-size: 70px;'>正确! </span>","null","","","","","","","","","","","","","","","","","","","","","","","feedback_test"
"","","","","","psychophysics","125","337909","0.0-11.0-0.0-0.8","662","","f","","","","","","","","","","","","","key","f","16.66396999999997","768","428","f","true","img/T_ambi40.png","好人","prac_simultaneous",""
"","","","","","html-keyboard-response","126","338228","0.0-11.0-0.0-1.8","null","<span style='color:GreenYellow; font-size: 70px;'>正确! </span>","null","","","","","","","","","","","","","","","","","","","","","","","feedback_test"
"","","","","","psychophysics","127","340129","0.0-11.0-0.0-0.9","894","","f","","","","","","","","","","","","","key","f","16.663575221238908","768","428","f","true","img/T_ambi40.png","坏人","prac_simultaneous",""
"","","","","","html-keyboard-response","128","340443","0.0-11.0-0.0-1.9","null","<span style='color:GreenYellow; font-size: 70px;'>正确! </span>","null","","","","","","","","","","","","","","","","","","","","","","","feedback_test"
"","","","","","psychophysics","129","342524","0.0-11.0-0.0-0.10","1077","","j","","","","","","","","","","","","","key","j","16.663056451612764","768","428","j","true","img/T_ambi40.png","常人","prac_simultaneous",""
"","","","","","html-keyboard-response","130","342831","0.0-11.0-0.0-1.10","null","<span style='color:GreenYellow; font-size: 70px;'>正确! </span>","null","","","","","","","","","","","","","","","","","","","","","","","feedback_test"
"","","","","","psychophysics","131","344485","0.0-11.0-0.0-0.11","650","","j","","","","","","","","","","","","","key","j","16.663666666666458","768","428","j","true","img/C_ambi40.png","好人","prac_simultaneous",""
"","","","","","html-keyboard-response","132","344792","0.0-11.0-0.0-1.11","null","<span style='color:GreenYellow; font-size: 70px;'>正确! </span>","null","","","","","","","","","","","","","","","","","","","","","","","feedback_test"
"","","","","","psychophysics","133","346711","0.0-11.0-0.0-0.12","913","","f","","","","","","","","","","","","","key","f","16.66341228070138","768","428","f","true","img/C_ambi40.png","坏人","prac_simultaneous",""
"","","","","","html-keyboard-response","134","347018","0.0-11.0-0.0-1.12","null","<span style='color:GreenYellow; font-size: 70px;'>正确! </span>","null","","","","","","","","","","","","","","","","","","","","","","","feedback_test"
"","","","","","psychophysics","135","348806","0.0-11.0-0.0-0.13","787","","f","","","","","","","","","","","","","key","f","16.66157943925224","768","428","f","true","img/T_ambi40.png","坏人","prac_simultaneous",""
"","","","","","html-keyboard-response","136","349120","0.0-11.0-0.0-1.13","null","<span style='color:GreenYellow; font-size: 70px;'>正确! </span>","null","","","","","","","","","","","","","","","","","","","","","","","feedback_test"
"","","","","","psychophysics","137","351072","0.0-11.0-0.0-0.14","946","","j","","","","","","","","","","","","","key","j","16.663863247862924","768","428","j","true","img/T_ambi40.png","常人","prac_simultaneous",""
"","","","","","html-keyboard-response","138","351385","0.0-11.0-0.0-1.14","null","<span style='color:GreenYellow; font-size: 70px;'>正确! </span>","null","","","","","","","","","","","","","","","","","","","","","","","feedback_test"
"","","","","","psychophysics","139","353206","0.0-11.0-0.0-0.15","816","","f","","","","","","","","","","","","","key","f","16.663798165137543","768","428","f","true","img/S_ambi40.png","常人","prac_simultaneous",""
"","","","","","html-keyboard-response","140","353524","0.0-11.0-0.0-1.15","null","<span style='color:GreenYellow; font-size: 70px;'>正确! </span>","null","","","","","","","","","","","","","","","","","","","","","","","feedback_test"
"","","","","","psychophysics","141","355424","0.0-11.0-0.0-0.16","891","","j","","","","","","","","","","","","","key","j","16.663858407079676","768","428","j","true","img/S_ambi40.png","坏人","prac_simultaneous",""
"","","","","","html-keyboard-response","142","355735","0.0-11.0-0.0-1.16","null","<span style='color:GreenYellow; font-size: 70px;'>正确! </span>","null","","","","","","","","","","","","","","","","","","","","","","","feedback_test"
"","","","","","psychophysics","143","357651","0.0-11.0-0.0-0.17","908","","j","","","","","","","","","","","","","key","j","16.661412280701864","768","428","j","true","img/C_ambi40.png","好人","prac_simultaneous",""
"","","","","","html-keyboard-response","144","357969","0.0-11.0-0.0-1.17","null","<span style='color:GreenYellow; font-size: 70px;'>正确! </span>","null","","","","","","","","","","","","","","","","","","","","","","","feedback_test"
"","","","","","psychophysics","145","359971","0.0-11.0-0.0-0.18","996","","f","","","","","","","","","","","","","key","f","16.662789915966655","768","428","f","true","img/C_ambi40.png","常人","prac_simultaneous",""
"","","","","","html-keyboard-response","146","360287","0.0-11.0-0.0-1.18","null","<span style='color:GreenYellow; font-size: 70px;'>正确! </span>","null","","","","","","","","","","","","","","","","","","","","","","","feedback_test"
"","","","","","psychophysics","147","362211","0.0-11.0-0.0-0.19","916","","f","","","","","","","","","","","","","key","f","16.66540350877167","768","428","f","true","img/S_ambi40.png","好人","prac_simultaneous",""
"","","","","","html-keyboard-response","148","362533","0.0-11.0-0.0-1.19","null","<span style='color:GreenYellow; font-size: 70px;'>正确! </span>","null","","","","","","","","","","","","","","","","","","","","","","","feedback_test"
"","","","","","psychophysics","149","364557","0.0-11.0-0.0-0.20","1014","","j","","","","","","","","","","","","","key","j","16.66387500000031","768","428","j","true","img/C_ambi40.png","好人","prac_simultaneous",""
"","","","","","html-keyboard-response","150","364868","0.0-11.0-0.0-1.20","null","<span style='color:GreenYellow; font-size: 70px;'>正确! </span>","null","","","","","","","","","","","","","","","","","","","","","","","feedback_test"
"","","","","","psychophysics","151","366704","0.0-11.0-0.0-0.21","833","","f","","","","","","","","","","","","","key","f","16.661761467890287","768","428","j","false","img/T_ambi40.png","常人","prac_simultaneous",""
"","","","","","html-keyboard-response","152","367012","0.0-11.0-0.0-1.21","null","<span style='color:red; font-size: 70px;'>错误! </span>","null","","","","","","","","","","","","","","","","","","","","","","","feedback_test"
"","","","","","psychophysics","153","368783","0.0-11.0-0.0-0.22","770","","j","","","","","","","","","","","","","key","j","16.663349056603796","768","428","j","true","img/S_ambi40.png","坏人","prac_simultaneous",""
"","","","","","html-keyboard-response","154","369090","0.0-11.0-0.0-1.22","null","<span style='color:GreenYellow; font-size: 70px;'>正确! </span>","null","","","","","","","","","","","","","","","","","","","","","","","feedback_test"
"","","","","","psychophysics","155","371269","0.0-11.0-0.0-0.23","1174","","f","","","","","","","","","","","","","key","f","16.664274809160002","768","428","f","true","img/T_ambi40.png","好人","prac_simultaneous",""
"","","","","","html-keyboard-response","156","371573","0.0-11.0-0.0-1.23","null","<span style='color:GreenYellow; font-size: 70px;'>正确! </span>","null","","","","","","","","","","","","","","","","","","","","","","","feedback_test"
"","","","","","html-keyboard-response","157","402189","0.0-12.0","30609","<style>.context{color:white; font-size: 35px; line-height:40px}</style>                              <div><p class='context'>您正确回答了83% 的试次。</p><p class='context'>您的平均反应时为906毫秒。</p><p class='context'>恭喜您完成练习。按任意键进入正式实验。</p><p class='footer' style='font-size: 35px; line-height:40px;'>请在进入正式实验实验之前将您的<span style='color: lightgreen;'>食指</span>放在电脑键盘的相应键位上进行按键。</p>"," ","","","","","","","","","","","","","","","","","","","","","","",""
"","","","","","html-keyboard-response","158","404363","0.0-13.0-0.0-0.0","2154","
      <p>请您将手指放在按键上，准备进入呈现顺序为<span style='color: yellow;'>先图形后文字条件</span>的正式匹配任务</p>
      <p> <div style = ""color: green""><按任意键进入下一阶段的匹配任务></div></p>
      "," ","","","","","","","","","","","","","","","","","","","","","","",""
"","","","","","psychophysics","159","406246","0.0-13.0-0.0-1.0-0.0-0.0","725","","j","","","","","","","","","","","","","key","j","16.65936936936939","768","428","j","true","img/C_ambi40.png","好人","image_first",""
"","","","","","html-keyboard-response","160","406562","0.0-13.0-0.0-1.0-0.0-1.0","null","<span style='color:GreenYellow; font-size: 70px;'>正确! </span>","null","","","","","","","","","","","","","","","","","","","","","","","feedback_test"
"","","","","","psychophysics","161","408263","0.0-13.0-0.0-1.0-0.0-0.1","544","","f","","","","","","","","","","","","","key","f","16.66240594059397","768","428","f","true","img/C_ambi40.png","坏人","image_first",""
"","","","","","html-keyboard-response","162","408581","0.0-13.0-0.0-1.0-0.0-1.1","null","<span style='color:GreenYellow; font-size: 70px;'>正确! </span>","null","","","","","","","","","","","","","","","","","","","","","","","feedback_test"
"","","","","","psychophysics","163","410238","0.0-13.0-0.0-1.0-0.0-0.2","503","","j","","","","","","","","","","","","","key","j","16.665343434343495","768","428","j","true","img/S_ambi40.png","坏人","image_first",""
"","","","","","html-keyboard-response","164","410558","0.0-13.0-0.0-1.0-0.0-1.2","null","<span style='color:GreenYellow; font-size: 70px;'>正确! </span>","null","","","","","","","","","","","","","","","","","","","","","","","feedback_test"
"","","","","","psychophysics","165","412446","0.0-13.0-0.0-1.0-0.0-0.3","735","","j","","","","","","","","","","","","","key","j","16.66553571428553","768","428","j","true","img/T_ambi40.png","常人","image_first",""
"","","","","","html-keyboard-response","166","412751","0.0-13.0-0.0-1.0-0.0-1.3","null","<span style='color:GreenYellow; font-size: 70px;'>正确! </span>","null","","","","","","","","","","","","","","","","","","","","","","","feedback_test"
"","","","","","psychophysics","167","414687","0.0-13.0-0.0-1.0-0.0-0.4","783","","j","","","","","","","","","","","","","key","j","16.806608695652255","768","428","j","true","img/T_ambi40.png","常人","image_first",""
"","","","","","html-keyboard-response","168","414991","0.0-13.0-0.0-1.0-0.0-1.4","null","<span style='color:GreenYellow; font-size: 70px;'>正确! </span>","null","","","","","","","","","","","","","","","","","","","","","","","feedback_test"
"","","","","","psychophysics","169","416684","0.0-13.0-0.0-1.0-0.0-0.5","541","","j","","","","","","","","","","","","","key","j","16.665839999999733","768","428","j","true","img/S_ambi40.png","坏人","image_first",""
"","","","","","html-keyboard-response","170","416995","0.0-13.0-0.0-1.0-0.0-1.5","null","<span style='color:GreenYellow; font-size: 70px;'>正确! </span>","null","","","","","","","","","","","","","","","","","","","","","","","feedback_test"
"","","","","","psychophysics","171","418786","0.0-13.0-0.0-1.0-0.0-0.6","635","","j","","","","","","","","","","","","","key","j","16.663641509434147","768","428","j","true","img/C_ambi40.png","好人","image_first",""
"","","","","","html-keyboard-response","172","419104","0.0-13.0-0.0-1.0-0.0-1.6","null","<span style='color:GreenYellow; font-size: 70px;'>正确! </span>","null","","","","","","","","","","","","","","","","","","","","","","","feedback_test"
"","","","","","psychophysics","173","420877","0.0-13.0-0.0-1.0-0.0-0.7","615","","f","","","","","","","","","","","","","key","f","16.663283018868103","768","428","f","true","img/C_ambi40.png","常人","image_first",""
"","","","","","html-keyboard-response","174","421190","0.0-13.0-0.0-1.0-0.0-1.7","null","<span style='color:GreenYellow; font-size: 70px;'>正确! </span>","null","","","","","","","","","","","","","","","","","","","","","","","feedback_test"
"","","","","","psychophysics","175","423024","0.0-13.0-0.0-1.0-0.0-0.8","673","","f","","","","","","","","","","","","","key","f","16.665681818181607","768","428","f","true","img/T_ambi40.png","坏人","image_first",""
"","","","","","html-keyboard-response","176","423332","0.0-13.0-0.0-1.0-0.0-1.8","null","<span style='color:GreenYellow; font-size: 70px;'>正确! </span>","null","","","","","","","","","","","","","","","","","","","","","","","feedback_test"
"","","","","","psychophysics","177","425091","0.0-13.0-0.0-1.0-0.0-0.9","606","","f","","","","","","","","","","","","","key","f","16.563826923076704","768","428","f","true","img/S_ambi40.png","好人","image_first",""
"","","","","","html-keyboard-response","178","425399","0.0-13.0-0.0-1.0-0.0-1.9","null","<span style='color:GreenYellow; font-size: 70px;'>正确! </span>","null","","","","","","","","","","","","","","","","","","","","","","","feedback_test"
"","","","","","psychophysics","179","427423","0.0-13.0-0.0-1.0-0.0-0.10","872","","f","","","","","","","","","","","","","key","f","16.66429166666688","768","428","f","true","img/S_ambi40.png","常人","image_first",""
"","","","","","html-keyboard-response","180","427727","0.0-13.0-0.0-1.0-0.0-1.10","null","<span style='color:GreenYellow; font-size: 70px;'>正确! </span>","null","","","","","","","","","","","","","","","","","","","","","","","feedback_test"
"","","","","","psychophysics","181","429654","0.0-13.0-0.0-1.0-0.0-0.11","775","","j","","","","","","","","","","","","","key","j","16.66328448275855","768","428","f","false","img/T_ambi40.png","好人","image_first",""
"","","","","","html-keyboard-response","182","429964","0.0-13.0-0.0-1.0-0.0-1.11","null","<span style='color:red; font-size: 70px;'>错误! </span>","null","","","","","","","","","","","","","","","","","","","","","","","feedback_test"
"","","","","","psychophysics","183","431681","0.0-13.0-0.0-1.0-0.0-0.12","556","","j","","","","","","","","","","","","","key","j","16.563158415841738","768","428","j","true","img/S_ambi40.png","坏人","image_first",""
"","","","","","html-keyboard-response","184","431994","0.0-13.0-0.0-1.0-0.0-1.12","null","<span style='color:GreenYellow; font-size: 70px;'>正确! </span>","null","","","","","","","","","","","","","","","","","","","","","","","feedback_test"
"","","","","","psychophysics","185","433638","0.0-13.0-0.0-1.0-0.0-0.13","487","","f","","","","","","","","","","","","","key","f","16.66433333333363","768","428","f","true","img/T_ambi40.png","坏人","image_first",""
"","","","","","html-keyboard-response","186","433955","0.0-13.0-0.0-1.0-0.0-1.13","null","<span style='color:GreenYellow; font-size: 70px;'>正确! </span>","null","","","","","","","","","","","","","","","","","","","","","","","feedback_test"
"","","","","","psychophysics","187","436062","0.0-13.0-0.0-1.0-0.0-0.14","951","","f","","","","","","","","","","","","","key","f","16.66350793650758","768","428","f","true","img/C_ambi40.png","常人","image_first",""
"","","","","","html-keyboard-response","188","436376","0.0-13.0-0.0-1.0-0.0-1.14","null","<span style='color:GreenYellow; font-size: 70px;'>正确! </span>","null","","","","","","","","","","","","","","","","","","","","","","","feedback_test"
"","","","","","psychophysics","189","438195","0.0-13.0-0.0-1.0-0.0-0.15","662","","f","","","","","","","","","","","","","key","f","16.66313761467896","768","428","f","true","img/S_ambi40.png","常人","image_first",""
"","","","","","html-keyboard-response","190","438511","0.0-13.0-0.0-1.0-0.0-1.15","null","<span style='color:GreenYellow; font-size: 70px;'>正确! </span>","null","","","","","","","","","","","","","","","","","","","","","","","feedback_test"
"","","","","","psychophysics","191","440892","0.0-13.0-0.0-1.0-0.0-0.16","1226","","f","","","","","","","","","","","","","key","f","16.66421276595772","768","428","f","true","img/C_ambi40.png","坏人","image_first",""
"","","","","","html-keyboard-response","192","441199","0.0-13.0-0.0-1.0-0.0-1.16","null","<span style='color:GreenYellow; font-size: 70px;'>正确! </span>","null","","","","","","","","","","","","","","","","","","","","","","","feedback_test"
"","","","","","psychophysics","193","443274","0.0-13.0-0.0-1.0-0.0-0.17","924","","f","","","","","","","","","","","","","key","f","16.663471544715595","768","428","j","false","img/C_ambi40.png","好人","image_first",""
"","","","","","html-keyboard-response","194","443594","0.0-13.0-0.0-1.0-0.0-1.17","null","<span style='color:red; font-size: 70px;'>错误! </span>","null","","","","","","","","","","","","","","","","","","","","","","","feedback_test"
"","","","","","psychophysics","195","445384","0.0-13.0-0.0-1.0-0.0-0.18","635","","f","","","","","","","","","","","","","key","f","16.819289719626617","768","428","f","true","img/S_ambi40.png","好人","image_first",""
"","","","","","html-keyboard-response","196","445695","0.0-13.0-0.0-1.0-0.0-1.18","null","<span style='color:GreenYellow; font-size: 70px;'>正确! </span>","null","","","","","","","","","","","","","","","","","","","","","","","feedback_test"
"","","","","","psychophysics","197","447539","0.0-13.0-0.0-1.0-0.0-0.19","692","","f","","","","","","","","","","","","","key","f","16.662972727272425","768","428","f","true","img/T_ambi40.png","好人","image_first",""
"","","","","","html-keyboard-response","198","447852","0.0-13.0-0.0-1.0-0.0-1.19","null","<span style='color:GreenYellow; font-size: 70px;'>正确! </span>","null","","","","","","","","","","","","","","","","","","","","","","","feedback_test"
"","","","","","psychophysics","199","449991","0.0-13.0-0.0-1.0-0.0-0.20","977","","j","","","","","","","","","","","","","key","j","16.663503937007984","768","428","j","true","img/T_ambi40.png","常人","image_first",""
"","","","","","html-keyboard-response","200","450296","0.0-13.0-0.0-1.0-0.0-1.20","null","<span style='color:GreenYellow; font-size: 70px;'>正确! </span>","null","","","","","","","","","","","","","","","","","","","","","","","feedback_test"
"","","","","","psychophysics","201","452034","0.0-13.0-0.0-1.0-0.0-0.21","587","","j","","","","","","","","","","","","","key","j","16.663326923077246","768","428","j","true","img/S_ambi40.png","坏人","image_first",""
"","","","","","html-keyboard-response","202","452349","0.0-13.0-0.0-1.0-0.0-1.21","null","<span style='color:GreenYellow; font-size: 70px;'>正确! </span>","null","","","","","","","","","","","","","","","","","","","","","","","feedback_test"
"","","","","","psychophysics","203","454214","0.0-13.0-0.0-1.0-0.0-0.22","701","","j","","","","","","","","","","","","","key","j","16.666387387387232","768","428","j","true","img/T_ambi40.png","常人","image_first",""
"","","","","","html-keyboard-response","204","454526","0.0-13.0-0.0-1.0-0.0-1.22","null","<span style='color:GreenYellow; font-size: 70px;'>正确! </span>","null","","","","","","","","","","","","","","","","","","","","","","","feedback_test"
"","","","","","psychophysics","205","456166","0.0-13.0-0.0-1.0-0.0-0.23","487","","j","","","","","","","","","","","","","key","j","16.662917525773345","768","428","j","true","img/C_ambi40.png","好人","image_first",""
"","","","","","html-keyboard-response","206","456486","0.0-13.0-0.0-1.0-0.0-1.23","null","<span style='color:GreenYellow; font-size: 70px;'>正确! </span>","null","","","","","","","","","","","","","","","","","","","","","","","feedback_test"
"","","","","","psychophysics","207","458372","0.0-13.0-0.0-1.0-0.0-0.24","734","","j","","","","","","","","","","","","","key","j","16.665176991150258","768","428","j","true","img/T_ambi40.png","常人","image_first",""
"","","","","","html-keyboard-response","208","458693","0.0-13.0-0.0-1.0-0.0-1.24","null","<span style='color:GreenYellow; font-size: 70px;'>正确! </span>","null","","","","","","","","","","","","","","","","","","","","","","","feedback_test"
"","","","","","psychophysics","209","460519","0.0-13.0-0.0-1.0-0.0-0.25","674","","j","","","","","","","","","","","","","key","j","16.662981481481605","768","428","j","true","img/C_ambi40.png","好人","image_first",""
"","","","","","html-keyboard-response","210","460837","0.0-13.0-0.0-1.0-0.0-1.25","null","<span style='color:GreenYellow; font-size: 70px;'>正确! </span>","null","","","","","","","","","","","","","","","","","","","","","","","feedback_test"
"","","","","","psychophysics","211","462548","0.0-13.0-0.0-1.0-0.0-0.26","558","","j","","","","","","","","","","","","","key","j","16.662372549019373","768","428","j","true","img/T_ambi40.png","常人","image_first",""
"","","","","","html-keyboard-response","212","462860","0.0-13.0-0.0-1.0-0.0-1.26","null","<span style='color:GreenYellow; font-size: 70px;'>正确! </span>","null","","","","","","","","","","","","","","","","","","","","","","","feedback_test"
"","","","","","psychophysics","213","464545","0.0-13.0-0.0-1.0-0.0-0.27","534","","j","","","","","","","","","","","","","key","j","16.66175247524752","768","428","f","false","img/T_ambi40.png","好人","image_first",""
"","","","","","html-keyboard-response","214","464849","0.0-13.0-0.0-1.0-0.0-1.27","null","<span style='color:red; font-size: 70px;'>错误! </span>","null","","","","","","","","","","","","","","","","","","","","","","","feedback_test"
"","","","","","psychophysics","215","466784","0.0-13.0-0.0-1.0-0.0-0.28","777","","f","","","","","","","","","","","","","key","f","16.662800000000075","768","428","f","true","img/T_ambi40.png","坏人","image_first",""
"","","","","","html-keyboard-response","216","467099","0.0-13.0-0.0-1.0-0.0-1.28","null","<span style='color:GreenYellow; font-size: 70px;'>正确! </span>","null","","","","","","","","","","","","","","","","","","","","","","","feedback_test"
"","","","","","psychophysics","217","469423","0.0-13.0-0.0-1.0-0.0-0.29","1168","","f","","","","","","","","","","","","","key","f","16.66451798561163","768","428","f","true","img/S_ambi40.png","常人","image_first",""
"","","","","","html-keyboard-response","218","469733","0.0-13.0-0.0-1.0-0.0-1.29","null","<span style='color:GreenYellow; font-size: 70px;'>正确! </span>","null","","","","","","","","","","","","","","","","","","","","","","","feedback_test"
"","","","","","psychophysics","219","471756","0.0-13.0-0.0-1.0-0.0-0.30","870","","f","","","","","","","","","","","","","key","f","16.662908333333327","768","428","f","true","img/C_ambi40.png","坏人","image_first",""
"","","","","","html-keyboard-response","220","472068","0.0-13.0-0.0-1.0-0.0-1.30","null","<span style='color:GreenYellow; font-size: 70px;'>正确! </span>","null","","","","","","","","","","","","","","","","","","","","","","","feedback_test"
"","","","","","psychophysics","221","473680","0.0-13.0-0.0-1.0-0.0-0.31","457","","j","","","","","","","","","","","","","key","j","16.664845360824646","768","428","j","true","img/C_ambi40.png","好人","image_first",""
"","","","","","html-keyboard-response","222","473996","0.0-13.0-0.0-1.0-0.0-1.31","null","<span style='color:GreenYellow; font-size: 70px;'>正确! </span>","null","","","","","","","","","","","","","","","","","","","","","","","feedback_test"
"","","","","","psychophysics","223","475786","0.0-13.0-0.0-1.0-0.0-0.32","635","","f","","","","","","","","","","","","","key","f","16.664794392523653","768","428","f","true","img/S_ambi40.png","好人","image_first",""
"","","","","","html-keyboard-response","224","476107","0.0-13.0-0.0-1.0-0.0-1.32","null","<span style='color:GreenYellow; font-size: 70px;'>正确! </span>","null","","","","","","","","","","","","","","","","","","","","","","","feedback_test"
"","","","","","psychophysics","225","477969","0.0-13.0-0.0-1.0-0.0-0.33","711","","j","","","","","","","","","","","","","key","j","16.664527272727256","768","428","j","true","img/S_ambi40.png","坏人","image_first",""
"","","","","","html-keyboard-response","226","478271","0.0-13.0-0.0-1.0-0.0-1.33","null","<span style='color:GreenYellow; font-size: 70px;'>正确! </span>","null","","","","","","","","","","","","","","","","","","","","","","","feedback_test"
"","","","","","psychophysics","227","480140","0.0-13.0-0.0-1.0-0.0-0.34","717","","j","","","","","","","","","","","","","key","j","16.665000000000354","768","428","j","true","img/S_ambi40.png","坏人","image_first",""
"","","","","","html-keyboard-response","228","480456","0.0-13.0-0.0-1.0-0.0-1.34","null","<span style='color:GreenYellow; font-size: 70px;'>正确! </span>","null","","","","","","","","","","","","","","","","","","","","","","","feedback_test"
"","","","","","psychophysics","229","482253","0.0-13.0-0.0-1.0-0.0-0.35","646","","f","","","","","","","","","","","","","key","f","16.66497196261684","768","428","f","true","img/C_ambi40.png","常人","image_first",""
"","","","","","html-keyboard-response","230","482571","0.0-13.0-0.0-1.0-0.0-1.35","null","<span style='color:GreenYellow; font-size: 70px;'>正确! </span>","null","","","","","","","","","","","","","","","","","","","","","","","feedback_test"
"","","","","","psychophysics","231","484345","0.0-13.0-0.0-1.0-0.0-0.36","621","","j","","","","","","","","","","","","","key","j","16.664594339622504","768","428","j","true","img/S_ambi40.png","坏人","image_first",""
"","","","","","html-keyboard-response","232","484647","0.0-13.0-0.0-1.0-0.0-1.36","null","<span style='color:GreenYellow; font-size: 70px;'>正确! </span>","null","","","","","","","","","","","","","","","","","","","","","","","feedback_test"
"","","","","","psychophysics","233","486519","0.0-13.0-0.0-1.0-0.0-0.37","720","","j","","","","","","","","","","","","","key","j","16.66446428571414","768","428","f","false","img/S_ambi40.png","好人","image_first",""
"","","","","","html-keyboard-response","234","486825","0.0-13.0-0.0-1.0-0.0-1.37","null","<span style='color:red; font-size: 70px;'>错误! </span>","null","","","","","","","","","","","","","","","","","","","","","","","feedback_test"
"","","","","","psychophysics","235","488947","0.0-13.0-0.0-1.0-0.0-0.38","964","","j","","","","","","","","","","","","","key","j","16.663992125984176","768","428","j","true","img/S_ambi40.png","坏人","image_first",""
"","","","","","html-keyboard-response","236","489255","0.0-13.0-0.0-1.0-0.0-1.38","null","<span style='color:GreenYellow; font-size: 70px;'>正确! </span>","null","","","","","","","","","","","","","","","","","","","","","","","feedback_test"
"","","","","","psychophysics","237","491219","0.0-13.0-0.0-1.0-0.0-0.39","813","","j","","","","","","","","","","","","","key","j","16.662461538461304","768","428","j","true","img/C_ambi40.png","好人","image_first",""
"","","","","","html-keyboard-response","238","491534","0.0-13.0-0.0-1.0-0.0-1.39","null","<span style='color:GreenYellow; font-size: 70px;'>正确! </span>","null","","","","","","","","","","","","","","","","","","","","","","","feedback_test"
"","","","","","psychophysics","239","493421","0.0-13.0-0.0-1.0-0.0-0.40","732","","j","","","","","","","","","","","","","key","j","16.581072072072168","768","428","j","true","img/T_ambi40.png","常人","image_first",""
"","","","","","html-keyboard-response","240","493735","0.0-13.0-0.0-1.0-0.0-1.40","null","<span style='color:GreenYellow; font-size: 70px;'>正确! </span>","null","","","","","","","","","","","","","","","","","","","","","","","feedback_test"
"","","","","","psychophysics","241","495676","0.0-13.0-0.0-1.0-0.0-0.41","788","","j","","","","","","","","","","","","","key","j","16.663767241379084","768","428","j","true","img/C_ambi40.png","好人","image_first",""
"","","","","","html-keyboard-response","242","495999","0.0-13.0-0.0-1.0-0.0-1.41","null","<span style='color:GreenYellow; font-size: 70px;'>正确! </span>","null","","","","","","","","","","","","","","","","","","","","","","","feedback_test"
"","","","","","psychophysics","243","498143","0.0-13.0-0.0-1.0-0.0-0.42","989","","f","","","","","","","","","","","","","key","f","16.66160629921241","768","428","f","true","img/C_ambi40.png","坏人","image_first",""
"","","","","","html-keyboard-response","244","498453","0.0-13.0-0.0-1.0-0.0-1.42","null","<span style='color:GreenYellow; font-size: 70px;'>正确! </span>","null","","","","","","","","","","","","","","","","","","","","","","","feedback_test"
"","","","","","psychophysics","245","500597","0.0-13.0-0.0-1.0-0.0-0.43","990","","f","","","","","","","","","","","","","key","f","16.66255905511826","768","428","f","true","img/T_ambi40.png","坏人","image_first",""
"","","","","","html-keyboard-response","246","500906","0.0-13.0-0.0-1.0-0.0-1.43","null","<span style='color:GreenYellow; font-size: 70px;'>正确! </span>","null","","","","","","","","","","","","","","","","","","","","","","","feedback_test"
"","","","","","psychophysics","247","503081","0.0-13.0-0.0-1.0-0.0-0.44","1018","","f","","","","","","","","","","","","","key","f","16.661542635659195","768","428","j","false","img/T_ambi40.png","常人","image_first",""
"","","","","","html-keyboard-response","248","503392","0.0-13.0-0.0-1.0-0.0-1.44","null","<span style='color:red; font-size: 70px;'>错误! </span>","null","","","","","","","","","","","","","","","","","","","","","","","feedback_test"
"","","","","","psychophysics","249","505378","0.0-13.0-0.0-1.0-0.0-0.45","828","","j","","","","","","","","","","","","","key","j","16.664487394957682","768","428","f","false","img/T_ambi40.png","好人","image_first",""
"","","","","","html-keyboard-response","250","505690","0.0-13.0-0.0-1.0-0.0-1.45","null","<span style='color:red; font-size: 70px;'>错误! </span>","null","","","","","","","","","","","","","","","","","","","","","","","feedback_test"
"","","","","","psychophysics","251","507433","0.0-13.0-0.0-1.0-0.0-0.46","587","","f","","","","","","","","","","","","","key","f","16.663528846154243","768","428","f","true","img/S_ambi40.png","常人","image_first",""
"","","","","","html-keyboard-response","252","507737","0.0-13.0-0.0-1.0-0.0-1.46","null","<span style='color:GreenYellow; font-size: 70px;'>正确! </span>","null","","","","","","","","","","","","","","","","","","","","","","","feedback_test"
"","","","","","psychophysics","253","509693","0.0-13.0-0.0-1.0-0.0-0.47","798","","f","","","","","","","","","","","","","key","f","16.66342241379306","768","428","f","true","img/C_ambi40.png","常人","image_first",""
"","","","","","html-keyboard-response","254","510011","0.0-13.0-0.0-1.0-0.0-1.47","null","<span style='color:GreenYellow; font-size: 70px;'>正确! </span>","null","","","","","","","","","","","","","","","","","","","","","","","feedback_test"
"","","","","","psychophysics","255","511925","0.0-13.0-0.0-1.0-0.0-0.48","758","","j","","","","","","","","","","","","","key","j","16.663460869565302","768","428","j","true","img/S_ambi40.png","坏人","image_first",""
"","","","","","html-keyboard-response","256","512243","0.0-13.0-0.0-1.0-0.0-1.48","null","<span style='color:GreenYellow; font-size: 70px;'>正确! </span>","null","","","","","","","","","","","","","","","","","","","","","","","feedback_test"
"","","","","","psychophysics","257","513968","0.0-13.0-0.0-1.0-0.0-0.49","569","","f","","","","","","","","","","","","","key","f","16.66367307692305","768","428","f","true","img/C_ambi40.png","坏人","image_first",""
"","","","","","html-keyboard-response","258","514277","0.0-13.0-0.0-1.0-0.0-1.49","null","<span style='color:GreenYellow; font-size: 70px;'>正确! </span>","null","","","","","","","","","","","","","","","","","","","","","","","feedback_test"
"","","","","","psychophysics","259","516714","0.0-13.0-0.0-1.0-0.0-0.50","1282","","f","","","","","","","","","","","","","key","f","16.66569178082186","768","428","f","true","img/S_ambi40.png","常人","image_first",""
"","","","","","html-keyboard-response","260","517027","0.0-13.0-0.0-1.0-0.0-1.50","null","<span style='color:GreenYellow; font-size: 70px;'>正确! </span>","null","","","","","","","","","","","","","","","","","","","","","","","feedback_test"
"","","","","","psychophysics","261","518935","0.0-13.0-0.0-1.0-0.0-0.51","752","","f","","","","","","","","","","","","","key","f","16.662263157894923","768","428","f","true","img/C_ambi40.png","常人","image_first",""
"","","","","","html-keyboard-response","262","519247","0.0-13.0-0.0-1.0-0.0-1.51","null","<span style='color:GreenYellow; font-size: 70px;'>正确! </span>","null","","","","","","","","","","","","","","","","","","","","","","","feedback_test"
"","","","","","psychophysics","263","521303","0.0-13.0-0.0-1.0-0.0-0.52","904","","j","","","","","","","","","","","","","key","j","16.79936585365889","768","428","j","true","img/T_ambi40.png","常人","image_first",""
"","","","","","html-keyboard-response","264","521609","0.0-13.0-0.0-1.0-0.0-1.52","null","<span style='color:GreenYellow; font-size: 70px;'>正确! </span>","null","","","","","","","","","","","","","","","","","","","","","","","feedback_test"
"","","","","","psychophysics","265","523289","0.0-13.0-0.0-1.0-0.0-0.53","523","","j","","","","","","","","","","","","","key","j","16.663666666667048","768","428","j","true","img/C_ambi40.png","好人","image_first",""
"","","","","","html-keyboard-response","266","523599","0.0-13.0-0.0-1.0-0.0-1.53","null","<span style='color:GreenYellow; font-size: 70px;'>正确! </span>","null","","","","","","","","","","","","","","","","","","","","","","","feedback_test"
"","","","","","psychophysics","267","525300","0.0-13.0-0.0-1.0-0.0-0.54","542","","j","","","","","","","","","","","","","key","j","16.66133333333339","768","428","j","true","img/S_ambi40.png","坏人","image_first",""
"","","","","","html-keyboard-response","268","525616","0.0-13.0-0.0-1.0-0.0-1.54","null","<span style='color:GreenYellow; font-size: 70px;'>正确! </span>","null","","","","","","","","","","","","","","","","","","","","","","","feedback_test"
"","","","","","psychophysics","269","527445","0.0-13.0-0.0-1.0-0.0-0.55","670","","j","","","","","","","","","","","","","key","j","16.664407407406813","768","428","j","true","img/C_ambi40.png","好人","image_first",""
"","","","","","html-keyboard-response","270","527760","0.0-13.0-0.0-1.0-0.0-1.55","null","<span style='color:GreenYellow; font-size: 70px;'>正确! </span>","null","","","","","","","","","","","","","","","","","","","","","","","feedback_test"
"","","","","","psychophysics","271","529954","0.0-13.0-0.0-1.0-0.0-0.56","1039","","j","","","","","","","","","","","","","key","j","16.663610687023493","768","428","f","false","img/T_ambi40.png","坏人","image_first",""
"","","","","","html-keyboard-response","272","530256","0.0-13.0-0.0-1.0-0.0-1.56","null","<span style='color:red; font-size: 70px;'>错误! </span>","null","","","","","","","","","","","","","","","","","","","","","","","feedback_test"
"","","","","","psychophysics","273","532140","0.0-13.0-0.0-1.0-0.0-0.57","726","","f","","","","","","","","","","","","","key","f","16.662840707965227","768","428","f","true","img/S_ambi40.png","好人","image_first",""
"","","","","","html-keyboard-response","274","532461","0.0-13.0-0.0-1.0-0.0-1.57","null","<span style='color:GreenYellow; font-size: 70px;'>正确! </span>","null","","","","","","","","","","","","","","","","","","","","","","","feedback_test"
"","","","","","psychophysics","275","534734","0.0-13.0-0.0-1.0-0.0-0.58","1120","","j","","","","","","","","","","","","","key","j","16.66397058823478","768","428","j","true","img/T_ambi40.png","常人","image_first",""
"","","","","","html-keyboard-response","276","535042","0.0-13.0-0.0-1.0-0.0-1.58","null","<span style='color:GreenYellow; font-size: 70px;'>正确! </span>","null","","","","","","","","","","","","","","","","","","","","","","","feedback_test"
"","","","","","psychophysics","277","537273","0.0-13.0-0.0-1.0-0.0-0.59","1075","","f","","","","","","","","","","","","","key","f","16.664305970149197","768","428","f","true","img/T_ambi40.png","好人","image_first",""
"","","","","","html-keyboard-response","278","537576","0.0-13.0-0.0-1.0-0.0-1.59","null","<span style='color:GreenYellow; font-size: 70px;'>正确! </span>","null","","","","","","","","","","","","","","","","","","","","","","","feedback_test"
"","","","","","html-keyboard-response","279","541737","0.0-13.0-0.0-1.0-1.0","4158","<style>.context{color:white; font-size: 35px; line-height:40px}</style>                              <div><p class='context'>您正确回答了88% 的试次。</p><p class='context'>您的平均反应时为742毫秒。</p><p class='context'>请按任意键进入休息</p></div>"," ","","","","","","","","","","","","","","","","","","","","","","",""
"","","","","","html-button-response","280","607337","0.0-13.0-0.0-1.0-2.0","65596","
                      <p>您当前还剩余3组实验</p>
                      <p>现在是休息时间，当您结束休息后，您可以点击 结束休息 按钮 继续</p>
                      <p>建议休息时间还剩余<span id=""iii"">60</span>秒</p>","0","","","","","","","","","","","","","","","","","","","","","","",""
"","","","","","psychophysics","281","609226","0.0-13.0-0.0-1.0-0.1-0.60","730","","f","","","","","","","","","","","","","key","f","16.664357142856584","768","428","j","false","img/S_ambi40.png","坏人","image_first",""
"","","","","","html-keyboard-response","282","609534","0.0-13.0-0.0-1.0-0.1-1.60","null","<span style='color:red; font-size: 70px;'>错误! </span>","null","","","","","","","","","","","","","","","","","","","","","","","feedback_test"
"","","","","","psychophysics","283","611350","0.0-13.0-0.0-1.0-0.1-0.61","663","","j","","","","","","","","","","","","","key","j","16.663018518518786","768","428","f","false","img/T_ambi40.png","好人","image_first",""
"","","","","","html-keyboard-response","284","611664","0.0-13.0-0.0-1.0-0.1-1.61","null","<span style='color:red; font-size: 70px;'>错误! </span>","null","","","","","","","","","","","","","","","","","","","","","","","feedback_test"
"","","","","","psychophysics","285","613275","0.0-13.0-0.0-1.0-0.1-0.62","459","","j","","","","","","","","","","","","","key","j","16.662410526315828","768","428","j","true","img/C_ambi40.png","好人","image_first",""
"","","","","","html-keyboard-response","286","613591","0.0-13.0-0.0-1.0-0.1-1.62","null","<span style='color:GreenYellow; font-size: 70px;'>正确! </span>","null","","","","","","","","","","","","","","","","","","","","","","","feedback_test"
"","","","","","psychophysics","287","615494","0.0-13.0-0.0-1.0-0.1-0.63","746","","j","","","","","","","","","","","","","key","j","16.812168141593126","768","428","j","true","img/C_ambi40.png","好人","image_first",""
"","","","","","html-keyboard-response","288","615799","0.0-13.0-0.0-1.0-0.1-1.63","null","<span style='color:GreenYellow; font-size: 70px;'>正确! </span>","null","","","","","","","","","","","","","","","","","","","","","","","feedback_test"
"","","","","","psychophysics","289","617523","0.0-13.0-0.0-1.0-0.1-0.64","568","","f","","","","","","","","","","","","","key","f","16.663912621359522","768","428","f","true","img/C_ambi40.png","坏人","image_first",""
"","","","","","html-keyboard-response","290","617825","0.0-13.0-0.0-1.0-0.1-1.64","null","<span style='color:GreenYellow; font-size: 70px;'>正确! </span>","null","","","","","","","","","","","","","","","","","","","","","","","feedback_test"
"","","","","","psychophysics","291","619528","0.0-13.0-0.0-1.0-0.1-0.65","547","","f","","","","","","","","","","","","","key","f","16.665539215686366","768","428","f","true","img/S_ambi40.png","好人","image_first",""
"","","","","","html-keyboard-response","292","619833","0.0-13.0-0.0-1.0-0.1-1.65","null","<span style='color:GreenYellow; font-size: 70px;'>正确! </span>","null","","","","","","","","","","","","","","","","","","","","","","","feedback_test"
"","","","","","psychophysics","293","621625","0.0-13.0-0.0-1.0-0.1-0.66","634","","f","","","","","","","","","","","","","key","f","16.663792452829856","768","428","f","true","img/T_ambi40.png","坏人","image_first",""
"","","","","","html-keyboard-response","294","621929","0.0-13.0-0.0-1.0-0.1-1.66","null","<span style='color:GreenYellow; font-size: 70px;'>正确! </span>","null","","","","","","","","","","","","","","","","","","","","","","","feedback_test"
"","","","","","psychophysics","295","623885","0.0-13.0-0.0-1.0-0.1-0.67","805","","j","","","","","","","","","","","","","key","j","16.663508620690195","768","428","j","true","img/T_ambi40.png","常人","image_first",""
"","","","","","html-keyboard-response","296","624196","0.0-13.0-0.0-1.0-0.1-1.67","null","<span style='color:GreenYellow; font-size: 70px;'>正确! </span>","null","","","","","","","","","","","","","","","","","","","","","","","feedback_test"
"","","","","","psychophysics","297","626178","0.0-13.0-0.0-1.0-0.1-0.68","829","","j","","","","","","","","","","","","","key","j","16.664474576271644","768","428","j","true","img/S_ambi40.png","坏人","image_first",""
"","","","","","html-keyboard-response","298","626493","0.0-13.0-0.0-1.0-0.1-1.68","null","<span style='color:GreenYellow; font-size: 70px;'>正确! </span>","null","","","","","","","","","","","","","","","","","","","","","","","feedback_test"
"","","","","","psychophysics","299","628860","0.0-13.0-0.0-1.0-0.1-0.69","1214","","j","","","","","","","","","","","","","key","j","16.662857142857476","768","428","j","true","img/T_ambi40.png","常人","image_first",""
"","","","","","html-keyboard-response","300","629167","0.0-13.0-0.0-1.0-0.1-1.69","null","<span style='color:GreenYellow; font-size: 70px;'>正确! </span>","null","","","","","","","","","","","","","","","","","","","","","","","feedback_test"
"","","","","","psychophysics","301","631354","0.0-13.0-0.0-1.0-0.1-0.70","1027","","f","","","","","","","","","","","","","key","f","16.66310000000074","768","428","f","true","img/C_ambi40.png","常人","image_first",""
"","","","","","html-keyboard-response","302","631659","0.0-13.0-0.0-1.0-0.1-1.70","null","<span style='color:GreenYellow; font-size: 70px;'>正确! </span>","null","","","","","","","","","","","","","","","","","","","","","","","feedback_test"
"","","","","","psychophysics","303","633453","0.0-13.0-0.0-1.0-0.1-0.71","641","","f","","","","","","","","","","","","","key","f","16.663084112150184","768","428","f","true","img/S_ambi40.png","常人","image_first",""
"","","","","","html-keyboard-response","304","633756","0.0-13.0-0.0-1.0-0.1-1.71","null","<span style='color:GreenYellow; font-size: 70px;'>正确! </span>","null","","","","","","","","","","","","","","","","","","","","","","","feedback_test"
"","","","","","psychophysics","305","635873","0.0-13.0-0.0-1.0-0.1-0.72","962","","f","","","","","","","","","","","","","key","f","16.662865079365606","768","428","f","true","img/T_ambi40.png","坏人","image_first",""
"","","","","","html-keyboard-response","306","636181","0.0-13.0-0.0-1.0-0.1-1.72","null","<span style='color:GreenYellow; font-size: 70px;'>正确! </span>","null","","","","","","","","","","","","","","","","","","","","","","","feedback_test"
"","","","","","psychophysics","307","637867","0.0-13.0-0.0-1.0-0.1-0.73","532","","j","","","","","","","","","","","","","key","j","16.663099999999396","768","428","j","true","img/C_ambi40.png","好人","image_first",""
"","","","","","html-keyboard-response","308","638171","0.0-13.0-0.0-1.0-0.1-1.73","null","<span style='color:GreenYellow; font-size: 70px;'>正确! </span>","null","","","","","","","","","","","","","","","","","","","","","","","feedback_test"
"","","","","","psychophysics","309","639801","0.0-13.0-0.0-1.0-0.1-0.74","474","","j","","","","","","","","","","","","","key","j","16.66347959183622","768","428","j","true","img/S_ambi40.png","坏人","image_first",""
"","","","","","html-keyboard-response","310","640104","0.0-13.0-0.0-1.0-0.1-1.74","null","<span style='color:GreenYellow; font-size: 70px;'>正确! </span>","null","","","","","","","","","","","","","","","","","","","","","","","feedback_test"
"","","","","","psychophysics","311","642058","0.0-13.0-0.0-1.0-0.1-0.75","798","","f","","","","","","","","","","","","","key","f","16.663275862068485","768","428","j","false","img/C_ambi40.png","好人","image_first",""
"","","","","","html-keyboard-response","312","642360","0.0-13.0-0.0-1.0-0.1-1.75","null","<span style='color:red; font-size: 70px;'>错误! </span>","null","","","","","","","","","","","","","","","","","","","","","","","feedback_test"
"","","","","","psychophysics","313","644114","0.0-13.0-0.0-1.0-0.1-0.76","594","","f","","","","","","","","","","","","","key","f","16.66480952381001","768","428","f","true","img/S_ambi40.png","好人","image_first",""
"","","","","","html-keyboard-response","314","644427","0.0-13.0-0.0-1.0-0.1-1.76","null","<span style='color:GreenYellow; font-size: 70px;'>正确! </span>","null","","","","","","","","","","","","","","","","","","","","","","","feedback_test"
"","","","","","psychophysics","315","646095","0.0-13.0-0.0-1.0-0.1-0.77","502","","j","","","","","","","","","","","","","key","j","16.66382828282752","768","428","j","true","img/S_ambi40.png","坏人","image_first",""
"","","","","","html-keyboard-response","316","646404","0.0-13.0-0.0-1.0-0.1-1.77","null","<span style='color:GreenYellow; font-size: 70px;'>正确! </span>","null","","","","","","","","","","","","","","","","","","","","","","","feedback_test"
"","","","","","psychophysics","317","648170","0.0-13.0-0.0-1.0-0.1-0.78","610","","f","","","","","","","","","","","","","key","f","16.663161904761743","768","428","f","true","img/S_ambi40.png","常人","image_first",""
"","","","","","html-keyboard-response","318","648484","0.0-13.0-0.0-1.0-0.1-1.78","null","<span style='color:GreenYellow; font-size: 70px;'>正确! </span>","null","","","","","","","","","","","","","","","","","","","","","","","feedback_test"
"","","","","","psychophysics","319","650296","0.0-13.0-0.0-1.0-0.1-0.79","657","","f","","","","","","","","","","","","","key","f","16.66494444444349","768","428","f","true","img/C_ambi40.png","常人","image_first",""
"","","","","","html-keyboard-response","320","650611","0.0-13.0-0.0-1.0-0.1-1.79","null","<span style='color:GreenYellow; font-size: 70px;'>正确! </span>","null","","","","","","","","","","","","","","","","","","","","","","","feedback_test"
"","","","","","psychophysics","321","652350","0.0-13.0-0.0-1.0-0.1-0.80","577","","f","","","","","","","","","","","","","key","f","16.66379611650414","768","428","f","true","img/C_ambi40.png","坏人","image_first",""
"","","","","","html-keyboard-response","322","652657","0.0-13.0-0.0-1.0-0.1-1.80","null","<span style='color:GreenYellow; font-size: 70px;'>正确! </span>","null","","","","","","","","","","","","","","","","","","","","","","","feedback_test"
"","","","","","psychophysics","323","654489","0.0-13.0-0.0-1.0-0.1-0.81","674","","f","","","","","","","","","","","","","key","f","16.663926605503672","768","428","f","true","img/T_ambi40.png","好人","image_first",""
"","","","","","html-keyboard-response","324","654794","0.0-13.0-0.0-1.0-0.1-1.81","null","<span style='color:GreenYellow; font-size: 70px;'>正确! </span>","null","","","","","","","","","","","","","","","","","","","","","","","feedback_test"
"","","","","","psychophysics","325","656787","0.0-13.0-0.0-1.0-0.1-0.82","835","","j","","","","","","","","","","","","","key","j","16.663025423728513","768","428","j","true","img/T_ambi40.png","常人","image_first",""
"","","","","","html-keyboard-response","326","657100","0.0-13.0-0.0-1.0-0.1-1.82","null","<span style='color:GreenYellow; font-size: 70px;'>正确! </span>","null","","","","","","","","","","","","","","","","","","","","","","","feedback_test"
"","","","","","psychophysics","327","658982","0.0-13.0-0.0-1.0-0.1-0.83","727","","j","","","","","","","","","","","","","key","j","16.663283185840715","768","428","j","true","img/T_ambi40.png","常人","image_first",""
"","","","","","html-keyboard-response","328","659291","0.0-13.0-0.0-1.0-0.1-1.83","null","<span style='color:GreenYellow; font-size: 70px;'>正确! </span>","null","","","","","","","","","","","","","","","","","","","","","","","feedback_test"
"","","","","","psychophysics","329","661164","0.0-13.0-0.0-1.0-0.1-0.84","716","","f","","","","","","","","","","","","","key","f","16.663857142856745","768","428","f","true","img/S_ambi40.png","好人","image_first",""
"","","","","","html-keyboard-response","330","661474","0.0-13.0-0.0-1.0-0.1-1.84","null","<span style='color:GreenYellow; font-size: 70px;'>正确! </span>","null","","","","","","","","","","","","","","","","","","","","","","","feedback_test"
"","","","","","psychophysics","331","663419","0.0-13.0-0.0-1.0-0.1-0.85","788","","j","","","","","","","","","","","","","key","j","16.661182608695338","768","428","j","true","img/T_ambi40.png","常人","image_first",""
"","","","","","html-keyboard-response","332","663727","0.0-13.0-0.0-1.0-0.1-1.85","null","<span style='color:GreenYellow; font-size: 70px;'>正确! </span>","null","","","","","","","","","","","","","","","","","","","","","","","feedback_test"
"","","","","","psychophysics","333","665758","0.0-13.0-0.0-1.0-0.1-0.86","870","","j","","","","","","","","","","","","","key","j","16.66452459016334","768","428","j","true","img/T_ambi40.png","常人","image_first",""
"","","","","","html-keyboard-response","334","666078","0.0-13.0-0.0-1.0-0.1-1.86","null","<span style='color:GreenYellow; font-size: 70px;'>正确! </span>","null","","","","","","","","","","","","","","","","","","","","","","","feedback_test"
"","","","","","psychophysics","335","668327","0.0-13.0-0.0-1.0-0.1-0.87","1096","","f","","","","","","","","","","","","","key","f","16.66374814814836","768","428","f","true","img/T_ambi40.png","坏人","image_first",""
"","","","","","html-keyboard-response","336","668633","0.0-13.0-0.0-1.0-0.1-1.87","null","<span style='color:GreenYellow; font-size: 70px;'>正确! </span>","null","","","","","","","","","","","","","","","","","","","","","","","feedback_test"
"","","","","","psychophysics","337","670885","0.0-13.0-0.0-1.0-0.1-0.88","1098","","f","","","","","","","","","","","","","key","f","16.66533582089573","768","428","f","true","img/S_ambi40.png","常人","image_first",""
"","","","","","html-keyboard-response","338","671197","0.0-13.0-0.0-1.0-0.1-1.88","null","<span style='color:GreenYellow; font-size: 70px;'>正确! </span>","null","","","","","","","","","","","","","","","","","","","","","","","feedback_test"
"","","","","","psychophysics","339","673045","0.0-13.0-0.0-1.0-0.1-0.89","694","","f","","","","","","","","","","","","","key","f","16.66273636363595","768","428","f","true","img/C_ambi40.png","常人","image_first",""
"","","","","","html-keyboard-response","340","673360","0.0-13.0-0.0-1.0-0.1-1.89","null","<span style='color:GreenYellow; font-size: 70px;'>正确! </span>","null","","","","","","","","","","","","","","","","","","","","","","","feedback_test"
"","","","","","psychophysics","341","675079","0.0-13.0-0.0-1.0-0.1-0.90","559","","j","","","","","","","","","","","","","key","j","16.664274509804432","768","428","j","true","img/C_ambi40.png","好人","image_first",""
"","","","","","html-keyboard-response","342","675395","0.0-13.0-0.0-1.0-0.1-1.90","null","<span style='color:GreenYellow; font-size: 70px;'>正确! </span>","null","","","","","","","","","","","","","","","","","","","","","","","feedback_test"
"","","","","","psychophysics","343","677343","0.0-13.0-0.0-1.0-0.1-0.91","792","","j","","","","","","","","","","","","","key","j","16.664350427349863","768","428","j","true","img/S_ambi40.png","坏人","image_first",""
"","","","","","html-keyboard-response","344","677647","0.0-13.0-0.0-1.0-0.1-1.91","null","<span style='color:GreenYellow; font-size: 70px;'>正确! </span>","null","","","","","","","","","","","","","","","","","","","","","","","feedback_test"
"","","","","","psychophysics","345","679761","0.0-13.0-0.0-1.0-0.1-0.92","959","","j","","","","","","","","","","","","","key","j","16.79634920634987","768","428","f","false","img/T_ambi40.png","好人","image_first",""
"","","","","","html-keyboard-response","346","680073","0.0-13.0-0.0-1.0-0.1-1.92","null","<span style='color:red; font-size: 70px;'>错误! </span>","null","","","","","","","","","","","","","","","","","","","","","","","feedback_test"
"","","","","","psychophysics","347","681762","0.0-13.0-0.0-1.0-0.1-0.93","531","","j","","","","","","","","","","","","","key","j","16.66410891089178","768","428","j","true","img/S_ambi40.png","坏人","image_first",""
"","","","","","html-keyboard-response","348","682083","0.0-13.0-0.0-1.0-0.1-1.93","null","<span style='color:GreenYellow; font-size: 70px;'>正确! </span>","null","","","","","","","","","","","","","","","","","","","","","","","feedback_test"
"","","","","","psychophysics","349","684533","0.0-13.0-0.0-1.0-0.1-0.94","1298","","f","","","","","","","","","","","","","key","f","16.66297241379266","768","428","f","true","img/C_ambi40.png","坏人","image_first",""
"","","","","","html-keyboard-response","350","684849","0.0-13.0-0.0-1.0-0.1-1.94","null","<span style='color:GreenYellow; font-size: 70px;'>正确! </span>","null","","","","","","","","","","","","","","","","","","","","","","","feedback_test"
"","","","","","psychophysics","351","687398","0.0-13.0-0.0-1.0-0.1-0.95","1396","","j","","","","","","","","","","","","","key","j","16.66330463576149","768","428","j","true","img/C_ambi40.png","好人","image_first",""
"","","","","","html-keyboard-response","352","687712","0.0-13.0-0.0-1.0-0.1-1.95","null","<span style='color:GreenYellow; font-size: 70px;'>正确! </span>","null","","","","","","","","","","","","","","","","","","","","","","","feedback_test"
"","","","","","psychophysics","353","689658","0.0-13.0-0.0-1.0-0.1-0.96","791","","j","","","","","","","","","","","","","key","j","16.663435897435676","768","428","j","true","img/S_ambi40.png","坏人","image_first",""
"","","","","","html-keyboard-response","354","689964","0.0-13.0-0.0-1.0-0.1-1.96","null","<span style='color:GreenYellow; font-size: 70px;'>正确! </span>","null","","","","","","","","","","","","","","","","","","","","","","","feedback_test"
"","","","","","psychophysics","355","692108","0.0-13.0-0.0-1.0-0.1-0.97","991","","j","","","","","","","","","","","","","key","j","16.66387500000019","768","428","j","true","img/C_ambi40.png","好人","image_first",""
"","","","","","html-keyboard-response","356","692426","0.0-13.0-0.0-1.0-0.1-1.97","null","<span style='color:GreenYellow; font-size: 70px;'>正确! </span>","null","","","","","","","","","","","","","","","","","","","","","","","feedback_test"
"","","","","","psychophysics","357","694566","0.0-13.0-0.0-1.0-0.1-0.98","983","","f","","","","","","","","","","","","","key","f","16.66430158730197","768","428","f","true","img/C_ambi40.png","常人","image_first",""
"","","","","","html-keyboard-response","358","694881","0.0-13.0-0.0-1.0-0.1-1.98","null","<span style='color:GreenYellow; font-size: 70px;'>正确! </span>","null","","","","","","","","","","","","","","","","","","","","","","","feedback_test"
"","","","","","psychophysics","359","697488","0.0-13.0-0.0-1.0-0.1-0.99","1456","","j","","","","","","","","","","","","","key","j","16.66234615384616","768","428","j","true","img/T_ambi40.png","常人","image_first",""
"","","","","","html-keyboard-response","360","697805","0.0-13.0-0.0-1.0-0.1-1.99","null","<span style='color:GreenYellow; font-size: 70px;'>正确! </span>","null","","","","","","","","","","","","","","","","","","","","","","","feedback_test"
"","","","","","psychophysics","361","699574","0.0-13.0-0.0-1.0-0.1-0.100","609","","j","","","","","","","","","","","","","key","j","16.663048076923587","768","428","j","true","img/C_ambi40.png","好人","image_first",""
"","","","","","html-keyboard-response","362","699886","0.0-13.0-0.0-1.0-0.1-1.100","null","<span style='color:GreenYellow; font-size: 70px;'>正确! </span>","null","","","","","","","","","","","","","","","","","","","","","","","feedback_test"
"","","","","","psychophysics","363","701782","0.0-13.0-0.0-1.0-0.1-0.101","743","","j","","","","","","","","","","","","","key","j","16.66277876106272","768","428","j","true","img/T_ambi40.png","常人","image_first",""
"","","","","","html-keyboard-response","364","702098","0.0-13.0-0.0-1.0-0.1-1.101","null","<span style='color:GreenYellow; font-size: 70px;'>正确! </span>","null","","","","","","","","","","","","","","","","","","","","","","","feedback_test"
"","","","","","psychophysics","365","704195","0.0-13.0-0.0-1.0-0.1-0.102","939","","f","","","","","","","","","","","","","key","f","16.663768000000157","768","428","f","true","img/T_ambi40.png","坏人","image_first",""
"","","","","","html-keyboard-response","366","704512","0.0-13.0-0.0-1.0-0.1-1.102","null","<span style='color:GreenYellow; font-size: 70px;'>正确! </span>","null","","","","","","","","","","","","","","","","","","","","","","","feedback_test"
"","","","","","psychophysics","367","707091","0.0-13.0-0.0-1.0-0.1-0.103","1427","","f","","","","","","","","","","","","","key","f","16.663461038960726","768","428","f","true","img/T_ambi40.png","好人","image_first",""
"","","","","","html-keyboard-response","368","707405","0.0-13.0-0.0-1.0-0.1-1.103","null","<span style='color:GreenYellow; font-size: 70px;'>正确! </span>","null","","","","","","","","","","","","","","","","","","","","","","","feedback_test"
"","","","","","psychophysics","369","709951","0.0-13.0-0.0-1.0-0.1-0.104","1392","","f","","","","","","","","","","","","","key","f","16.66428289473697","768","428","f","true","img/S_ambi40.png","常人","image_first",""
"","","","","","html-keyboard-response","370","710264","0.0-13.0-0.0-1.0-0.1-1.104","null","<span style='color:GreenYellow; font-size: 70px;'>正确! </span>","null","","","","","","","","","","","","","","","","","","","","","","","feedback_test"
"","","","","","psychophysics","371","712158","0.0-13.0-0.0-1.0-0.1-0.105","743","","f","","","","","","","","","","","","","key","f","16.663258928571718","768","428","f","true","img/S_ambi40.png","好人","image_first",""
"","","","","","html-keyboard-response","372","712469","0.0-13.0-0.0-1.0-0.1-1.105","null","<span style='color:GreenYellow; font-size: 70px;'>正确! </span>","null","","","","","","","","","","","","","","","","","","","","","","","feedback_test"
"","","","","","psychophysics","373","714170","0.0-13.0-0.0-1.0-0.1-0.106","546","","f","","","","","","","","","","","","","key","f","16.6645098039207","768","428","f","true","img/C_ambi40.png","坏人","image_first",""
"","","","","","html-keyboard-response","374","714476","0.0-13.0-0.0-1.0-0.1-1.106","null","<span style='color:GreenYellow; font-size: 70px;'>正确! </span>","null","","","","","","","","","","","","","","","","","","","","","","","feedback_test"
"","","","","","psychophysics","375","716213","0.0-13.0-0.0-1.0-0.1-0.107","585","","j","","","","","","","","","","","","","key","j","16.824990384615376","768","428","j","true","img/S_ambi40.png","坏人","image_first",""
"","","","","","html-keyboard-response","376","716532","0.0-13.0-0.0-1.0-0.1-1.107","null","<span style='color:GreenYellow; font-size: 70px;'>正确! </span>","null","","","","","","","","","","","","","","","","","","","","","","","feedback_test"
"","","","","","psychophysics","377","718414","0.0-13.0-0.0-1.0-0.1-0.108","727","","j","","","","","","","","","","","","","key","j","16.66138938053066","768","428","j","true","img/S_ambi40.png","坏人","image_first",""
"","","","","","html-keyboard-response","378","718732","0.0-13.0-0.0-1.0-0.1-1.108","null","<span style='color:GreenYellow; font-size: 70px;'>正确! </span>","null","","","","","","","","","","","","","","","","","","","","","","","feedback_test"
"","","","","","psychophysics","379","720506","0.0-13.0-0.0-1.0-0.1-0.109","612","","j","","","","","","","","","","","","","key","j","16.663933962265048","768","428","j","true","img/S_ambi40.png","坏人","image_first",""
"","","","","","html-keyboard-response","380","720809","0.0-13.0-0.0-1.0-0.1-1.109","null","<span style='color:GreenYellow; font-size: 70px;'>正确! </span>","null","","","","","","","","","","","","","","","","","","","","","","","feedback_test"
"","","","","","psychophysics","381","723067","0.0-13.0-0.0-1.0-0.1-0.110","1106","","j","","","","","","","","","","","","","key","j","16.663511111111276","768","428","j","true","img/C_ambi40.png","好人","image_first",""
"","","","","","html-keyboard-response","382","723376","0.0-13.0-0.0-1.0-0.1-1.110","null","<span style='color:GreenYellow; font-size: 70px;'>正确! </span>","null","","","","","","","","","","","","","","","","","","","","","","","feedback_test"
"","","","","","psychophysics","383","725994","0.0-13.0-0.0-1.0-0.1-0.111","1466","","f","","","","","","","","","","","","","key","f","16.66321794871832","768","428","j","false","img/C_ambi40.png","好人","image_first",""
"","","","","","html-keyboard-response","384","726308","0.0-13.0-0.0-1.0-0.1-1.111","null","<span style='color:red; font-size: 70px;'>错误! </span>","null","","","","","","","","","","","","","","","","","","","","","","","feedback_test"
"","","","","","psychophysics","385","728760","0.0-13.0-0.0-1.0-0.1-0.112","1300","","f","","","","","","","","","","","","","key","f","16.573627586207547","768","428","f","true","img/S_ambi40.png","好人","image_first",""
"","","","","","html-keyboard-response","386","729070","0.0-13.0-0.0-1.0-0.1-1.112","null","<span style='color:GreenYellow; font-size: 70px;'>正确! </span>","null","","","","","","","","","","","","","","","","","","","","","","","feedback_test"
"","","","","","psychophysics","387","731188","0.0-13.0-0.0-1.0-0.1-0.113","965","","f","","","","","","","","","","","","","key","f","16.663936507937105","768","428","f","true","img/C_ambi40.png","常人","image_first",""
"","","","","","html-keyboard-response","388","731493","0.0-13.0-0.0-1.0-0.1-1.113","null","<span style='color:GreenYellow; font-size: 70px;'>正确! </span>","null","","","","","","","","","","","","","","","","","","","","","","","feedback_test"
"","","","","","psychophysics","389","734176","0.0-13.0-0.0-1.0-0.1-0.114","null","","null","","","","","","","","","","","","","key","null","16.66364150943378","768","428","f","false","img/C_ambi40.png","坏人","image_first",""
"","","","","","html-keyboard-response","390","734485","0.0-13.0-0.0-1.0-0.1-1.114","null","<span class='add_' style='color:yellow; font-size: 70px;'> 太慢! </span>","null","","","","","","","","","","","","","","","","","","","","","","","feedback_test"
"","","","","","psychophysics","391","736797","0.0-13.0-0.0-1.0-0.1-0.115","1157","","f","","","","","","","","","","","","","key","f","16.66312318840621","768","428","f","true","img/T_ambi40.png","坏人","image_first",""
"","","","","","html-keyboard-response","392","737115","0.0-13.0-0.0-1.0-0.1-1.115","null","<span style='color:GreenYellow; font-size: 70px;'>正确! </span>","null","","","","","","","","","","","","","","","","","","","","","","","feedback_test"
"","","","","","psychophysics","393","739273","0.0-13.0-0.0-1.0-0.1-0.116","1003","","j","","","","","","","","","","","","","key","j","16.664457364340834","768","428","j","true","img/T_ambi40.png","常人","image_first",""
"","","","","","html-keyboard-response","394","739582","0.0-13.0-0.0-1.0-0.1-1.116","null","<span style='color:GreenYellow; font-size: 70px;'>正确! </span>","null","","","","","","","","","","","","","","","","","","","","","","","feedback_test"
"","","","","","psychophysics","395","741482","0.0-13.0-0.0-1.0-0.1-0.117","747","","f","","","","","","","","","","","","","key","f","16.665324561403075","768","428","f","true","img/T_ambi40.png","好人","image_first",""
"","","","","","html-keyboard-response","396","741802","0.0-13.0-0.0-1.0-0.1-1.117","null","<span style='color:GreenYellow; font-size: 70px;'>正确! </span>","null","","","","","","","","","","","","","","","","","","","","","","","feedback_test"
"","","","","","psychophysics","397","743732","0.0-13.0-0.0-1.0-0.1-0.118","775","","f","","","","","","","","","","","","","key","f","16.66346086956581","768","428","j","false","img/T_ambi40.png","常人","image_first",""
"","","","","","html-keyboard-response","398","744053","0.0-13.0-0.0-1.0-0.1-1.118","null","<span style='color:red; font-size: 70px;'>错误! </span>","null","","","","","","","","","","","","","","","","","","","","","","","feedback_test"
"","","","","","psychophysics","399","745867","0.0-13.0-0.0-1.0-0.1-0.119","661","","f","","","","","","","","","","","","","key","f","16.66328037383196","768","428","f","true","img/S_ambi40.png","常人","image_first",""
"","","","","","html-keyboard-response","400","746181","0.0-13.0-0.0-1.0-0.1-1.119","null","<span style='color:GreenYellow; font-size: 70px;'>正确! </span>","null","","","","","","","","","","","","","","","","","","","","","","","feedback_test"
"","","","","","html-keyboard-response","401","753949","0.0-13.0-0.0-1.0-1.1","7764","<style>.context{color:white; font-size: 35px; line-height:40px}</style>                              <div><p class='context'>您正确回答了88% 的试次。</p><p class='context'>您的平均反应时为829毫秒。</p><p class='context'>请按任意键进入休息</p></div>"," ","","","","","","","","","","","","","","","","","","","","","","",""
"","","","","","html-button-response","402","755259","0.0-13.0-0.0-1.0-2.1","1299","
                      <p>您当前还剩余2组实验</p>
                      <p>现在是休息时间，当您结束休息后，您可以点击 结束休息 按钮 继续</p>
                      <p>建议休息时间还剩余<span id=""iii"">60</span>秒</p>","0","","","","","","","","","","","","","","","","","","","","","","",""
"","","","","","psychophysics","403","756936","0.0-13.0-0.0-1.0-0.2-0.120","521","","j","","","","","","","","","","","","","key","j","16.662939393939922","768","428","j","true","img/C_ambi40.png","好人","image_first",""
"","","","","","html-keyboard-response","404","757247","0.0-13.0-0.0-1.0-0.2-1.120","null","<span style='color:GreenYellow; font-size: 70px;'>正确! </span>","null","","","","","","","","","","","","","","","","","","","","","","","feedback_test"
"","","","","","psychophysics","405","759059","0.0-13.0-0.0-1.0-0.2-0.121","655","","j","","","","","","","","","","","","","key","j","16.6636018518518","768","428","j","true","img/T_ambi40.png","常人","image_first",""
"","","","","","html-keyboard-response","406","759377","0.0-13.0-0.0-1.0-0.2-1.121","null","<span style='color:GreenYellow; font-size: 70px;'>正确! </span>","null","","","","","","","","","","","","","","","","","","","","","","","feedback_test"
"","","","","","psychophysics","407","761045","0.0-13.0-0.0-1.0-0.2-0.122","510","","j","","","","","","","","","","","","","key","j","16.662737373737713","768","428","j","true","img/S_ambi40.png","坏人","image_first",""
"","","","","","html-keyboard-response","408","761357","0.0-13.0-0.0-1.0-0.2-1.122","null","<span style='color:GreenYellow; font-size: 70px;'>正确! </span>","null","","","","","","","","","","","","","","","","","","","","","","","feedback_test"
"","","","","","psychophysics","409","763172","0.0-13.0-0.0-1.0-0.2-0.123","662","","f","","","","","","","","","","","","","key","f","16.663249999999405","768","428","f","true","img/T_ambi40.png","坏人","image_first",""
"","","","","","html-keyboard-response","410","763489","0.0-13.0-0.0-1.0-0.2-1.123","null","<span style='color:GreenYellow; font-size: 70px;'>正确! </span>","null","","","","","","","","","","","","","","","","","","","","","","","feedback_test"
"","","","","","psychophysics","411","765432","0.0-13.0-0.0-1.0-0.2-0.124","780","","f","","","","","","","","","","","","","key","f","16.663243478261258","768","428","f","true","img/S_ambi40.png","常人","image_first",""
"","","","","","html-keyboard-response","412","765739","0.0-13.0-0.0-1.0-0.2-1.124","null","<span style='color:GreenYellow; font-size: 70px;'>正确! </span>","null","","","","","","","","","","","","","","","","","","","","","","","feedback_test"
"","","","","","psychophysics","413","767555","0.0-13.0-0.0-1.0-0.2-0.125","661","","f","","","","","","","","","","","","","key","f","16.663844036696684","768","428","f","true","img/C_ambi40.png","常人","image_first",""
"","","","","","html-keyboard-response","414","767868","0.0-13.0-0.0-1.0-0.2-1.125","null","<span style='color:GreenYellow; font-size: 70px;'>正确! </span>","null","","","","","","","","","","","","","","","","","","","","","","","feedback_test"
"","","","","","psychophysics","415","769575","0.0-13.0-0.0-1.0-0.2-0.126","555","","f","","","","","","","","","","","","","key","f","16.666784313725373","768","428","j","false","img/T_ambi40.png","常人","image_first",""
"","","","","","html-keyboard-response","416","769883","0.0-13.0-0.0-1.0-0.2-1.126","null","<span style='color:red; font-size: 70px;'>错误! </span>","null","","","","","","","","","","","","","","","","","","","","","","","feedback_test"
"","","","","","psychophysics","417","771663","0.0-13.0-0.0-1.0-0.2-0.127","628","","f","","","","","","","","","","","","","key","f","16.663542857143053","768","428","f","true","img/C_ambi40.png","坏人","image_first",""
"","","","","","html-keyboard-response","418","771971","0.0-13.0-0.0-1.0-0.2-1.127","null","<span style='color:GreenYellow; font-size: 70px;'>正确! </span>","null","","","","","","","","","","","","","","","","","","","","","","","feedback_test"
"","","","","","psychophysics","419","773979","0.0-13.0-0.0-1.0-0.2-0.128","853","","j","","","","","","","","","","","","","key","j","16.663625000000078","768","428","j","true","img/S_ambi40.png","坏人","image_first",""
"","","","","","html-keyboard-response","420","774292","0.0-13.0-0.0-1.0-0.2-1.128","null","<span style='color:GreenYellow; font-size: 70px;'>正确! </span>","null","","","","","","","","","","","","","","","","","","","","","","","feedback_test"
"","","","","","psychophysics","421","775979","0.0-13.0-0.0-1.0-0.2-0.129","532","","j","","","","","","","","","","","","","key","j","16.66359999999986","768","428","j","true","img/C_ambi40.png","好人","image_first",""
"","","","","","html-keyboard-response","422","776297","0.0-13.0-0.0-1.0-0.2-1.129","null","<span style='color:GreenYellow; font-size: 70px;'>正确! </span>","null","","","","","","","","","","","","","","","","","","","","","","","feedback_test"
"","","","","","psychophysics","423","778094","0.0-13.0-0.0-1.0-0.2-0.130","644","","f","","","","","","","","","","","","","key","f","16.666663551401722","768","428","f","true","img/T_ambi40.png","好人","image_first",""
"","","","","","html-keyboard-response","424","778401","0.0-13.0-0.0-1.0-0.2-1.130","null","<span style='color:GreenYellow; font-size: 70px;'>正确! </span>","null","","","","","","","","","","","","","","","","","","","","","","","feedback_test"
"","","","","","psychophysics","425","780176","0.0-13.0-0.0-1.0-0.2-0.131","616","","f","","","","","","","","","","","","","key","f","16.662133333333102","768","428","f","true","img/S_ambi40.png","好人","image_first",""
"","","","","","html-keyboard-response","426","780482","0.0-13.0-0.0-1.0-0.2-1.131","null","<span style='color:GreenYellow; font-size: 70px;'>正确! </span>","null","","","","","","","","","","","","","","","","","","","","","","","feedback_test"
"","","","","","psychophysics","427","782300","0.0-13.0-0.0-1.0-0.2-0.132","666","","j","","","","","","","","","","","","","key","j","16.66450925925919","768","428","j","true","img/T_ambi40.png","常人","image_first",""
"","","","","","html-keyboard-response","428","782613","0.0-13.0-0.0-1.0-0.2-1.132","null","<span style='color:GreenYellow; font-size: 70px;'>正确! </span>","null","","","","","","","","","","","","","","","","","","","","","","","feedback_test"
"","","","","","psychophysics","429","784411","0.0-13.0-0.0-1.0-0.2-0.133","646","","f","","","","","","","","","","","","","key","f","16.546273584905926","768","428","f","true","img/S_ambi40.png","常人","image_first",""
"","","","","","html-keyboard-response","430","784727","0.0-13.0-0.0-1.0-0.2-1.133","null","<span style='color:GreenYellow; font-size: 70px;'>正确! </span>","null","","","","","","","","","","","","","","","","","","","","","","","feedback_test"
"","","","","","psychophysics","431","786769","0.0-13.0-0.0-1.0-0.2-0.134","890","","f","","","","","","","","","","","","","key","f","16.66340650406541","768","428","f","true","img/T_ambi40.png","好人","image_first",""
