"success","timeout","failed_images","failed_audio","failed_video","trial_type","trial_index","time_elapsed","internal_node_id","rt","stimulus","response","value","item_width_mm","item_height_mm","item_width_px","px2mm","view_dist_mm","item_width_deg","px2deg","scale_factor","win_width_deg","win_height_deg","view_history","response_type","key_press","avg_frame_time","center_x","center_y","correct_response","correct","Image","word","condition","screen_id"
"true","false","[]","[]","[]","preload","0","658","0.0-0.0","","","","","","","","","","","","","","","","","","","","","","","","","",""
"","","","","","html-keyboard-response","1","61875","0.0-1.0","61217","
     <p>您好，欢迎参加本次实验。</p>
     <p>为充分保障您的权利，请确保您已经知晓并同意《参与实验同意书》以及《数据公开知情同意书》。</p>
     <p>如果您未见过上述内容，请咨询实验员。</p>
     <p>如果您选择继续实验，则表示您已经清楚两份知情同意书的内容并同意。</p>
     <p> <div style = ""color: green""><按任意键至下页></div> </p>
     ","enter","","","","","","","","","","","","","","","","","","","","","","",""
"","","","","","html-keyboard-response","2","62830","0.0-2.0","955","
     <p>本实验首先需要您填写一些基本个人信息。</p>
     <p> <div style = ""color: green""><按任意键至下页></div></p>
     ","enter","","","","","","","","","","","","","","","","","","","","","","",""
"","","","","","call-function","3","62832","0.0-3.0-0.0","","","","","","","","","","","","","","","","","","","","","","","","","",""
"","","","","","survey-html-form","4","68362","0.0-3.0-1.0","5530","","{""Q0"":""29""}","","","","","","","","","","","","","","","","","","","","","","",""
"","","","","","html-button-response","5","70198","0.0-3.0-2.0","1833","<p style = 'color : white'>您的性别</p>","0","","","","","","","","","","","","","","","","","","","","","","",""
"","","","","","survey-html-form","6","73839","0.0-3.0-3.0","3640","","{""Q0"":""2001""}","","","","","","","","","","","","","","","","","","","","","","",""
"","","","","","survey-html-form","7","76753","0.0-3.0-4.0","2913","","{""Q0"":""5""}","","","","","","","","","","","","","","","","","","","","","","",""
"","","","","","virtual-chinrest","8","144297","0.0-4.0","67543","","","","85.6","53.98","450.18595669589905","5.259084793659466","543.6","9.003719133917981","50","0.9640460648424165","34.56","20.56","","","","","","","","","","","",""
"true","","","","","fullscreen","9","147908","0.0-5.0","","","","","","","","","","","","","","","","","","","","","","","","","",""
"","","","","","instructions","10","195827","0.0-6.0","47916","","","","","","","","","","","","","","[{""page_index"":0,""viewing_time"":8218},{""page_index"":1,""viewing_time"":34444},{""page_index"":2,""viewing_time"":2662},{""page_index"":3,""viewing_time"":2592}]","","","","","","","","","","",""
"","","","","","psychophysics","11","198069","0.0-7.0-0.0-0.0","1084","","j","","","","","","","","","","","","","key","j","33.333333333333336","864","536","j","true","img/S_ambi40.png","常人","prac_image_first",""
"","","","","","html-keyboard-response","12","198372","0.0-7.0-0.0-1.0","null","<span style='color:GreenYellow; font-size: 70px;'>正确! </span>","null","","","","","","","","","","","","","","","","","","","","","","","feedback_test"
"","","","","","psychophysics","13","200596","0.0-7.0-0.0-0.1","1071","","j","","","","","","","","","","","","","key","j","33.36363636363637","864","536","j","true","img/T_ambi40.png","好人","prac_image_first",""
"","","","","","html-keyboard-response","14","200899","0.0-7.0-0.0-1.1","null","<span style='color:GreenYellow; font-size: 70px;'>正确! </span>","null","","","","","","","","","","","","","","","","","","","","","","","feedback_test"
"","","","","","psychophysics","15","202901","0.0-7.0-0.0-0.2","848","","j","","","","","","","","","","","","","key","j","33.389830508474574","864","536","j","true","img/S_ambi40.png","常人","prac_image_first",""
"","","","","","html-keyboard-response","16","203205","0.0-7.0-0.0-1.2","null","<span style='color:GreenYellow; font-size: 70px;'>正确! </span>","null","","","","","","","","","","","","","","","","","","","","","","","feedback_test"
"","","","","","psychophysics","17","205146","0.0-7.0-0.0-0.3","787","","f","","","","","","","","","","","","","key","f","33.333333333333336","864","536","f","true","img/C_ambi40.png","好人","prac_image_first",""
"","","","","","html-keyboard-response","18","205449","0.0-7.0-0.0-1.3","null","<span style='color:GreenYellow; font-size: 70px;'>正确! </span>","null","","","","","","","","","","","","","","","","","","","","","","","feedback_test"
"","","","","","psychophysics","19","207610","0.0-7.0-0.0-0.4","1006","","f","","","","","","","","","","","","","key","f","33.328125","864","536","f","true","img/S_ambi40.png","好人","prac_image_first",""
"","","","","","html-keyboard-response","20","207912","0.0-7.0-0.0-1.4","null","<span style='color:GreenYellow; font-size: 70px;'>正确! </span>","null","","","","","","","","","","","","","","","","","","","","","","","feedback_test"
"","","","","","psychophysics","21","210230","0.0-7.0-0.0-0.5","1165","","f","","","","","","","","","","","","","key","f","33.333333333333336","864","536","f","true","img/C_ambi40.png","常人","prac_image_first",""
"","","","","","html-keyboard-response","22","210533","0.0-7.0-0.0-1.5","null","<span style='color:GreenYellow; font-size: 70px;'>正确! </span>","null","","","","","","","","","","","","","","","","","","","","","","","feedback_test"
"","","","","","psychophysics","23","212916","0.0-7.0-0.0-0.6","1229","","f","","","","","","","","","","","","","key","f","33.33802816901409","864","536","f","true","img/S_ambi40.png","坏人","prac_image_first",""
"","","","","","html-keyboard-response","24","213219","0.0-7.0-0.0-1.6","null","<span style='color:GreenYellow; font-size: 70px;'>正确! </span>","null","","","","","","","","","","","","","","","","","","","","","","","feedback_test"
"","","","","","psychophysics","25","215411","0.0-7.0-0.0-0.7","1038","","f","","","","","","","","","","","","","key","f","33.33846153846154","864","536","j","false","img/T_ambi40.png","好人","prac_image_first",""
"","","","","","html-keyboard-response","26","215714","0.0-7.0-0.0-1.7","null","<span style='color:red; font-size: 70px;'>错误! </span>","null","","","","","","","","","","","","","","","","","","","","","","","feedback_test"
"","","","","","psychophysics","27","218173","0.0-7.0-0.0-0.8","1306","","f","","","","","","","","","","","","","key","f","33.32876712328767","864","536","f","true","img/T_ambi40.png","坏人","prac_image_first",""
"","","","","","html-keyboard-response","28","218475","0.0-7.0-0.0-1.8","null","<span style='color:GreenYellow; font-size: 70px;'>正确! </span>","null","","","","","","","","","","","","","","","","","","","","","","","feedback_test"
"","","","","","psychophysics","29","220660","0.0-7.0-0.0-0.9","1032","","j","","","","","","","","","","","","","key","j","33.33846153846154","864","536","j","true","img/C_ambi40.png","坏人","prac_image_first",""
"","","","","","html-keyboard-response","30","220964","0.0-7.0-0.0-1.9","null","<span style='color:GreenYellow; font-size: 70px;'>正确! </span>","null","","","","","","","","","","","","","","","","","","","","","","","feedback_test"
"","","","","","psychophysics","31","222822","0.0-7.0-0.0-0.10","702","","j","","","","","","","","","","","","","key","j","33.351851851851855","864","536","j","true","img/C_ambi40.png","坏人","prac_image_first",""
"","","","","","html-keyboard-response","32","223126","0.0-7.0-0.0-1.10","null","<span style='color:GreenYellow; font-size: 70px;'>正确! </span>","null","","","","","","","","","","","","","","","","","","","","","","","feedback_test"
"","","","","","psychophysics","33","225486","0.0-7.0-0.0-0.11","1205","","f","","","","","","","","","","","","","key","f","33.34285714285714","864","536","f","true","img/T_ambi40.png","常人","prac_image_first",""
"","","","","","html-keyboard-response","34","225788","0.0-7.0-0.0-1.11","null","<span style='color:GreenYellow; font-size: 70px;'>正确! </span>","null","","","","","","","","","","","","","","","","","","","","","","","feedback_test"
"","","","","","psychophysics","35","228311","0.0-7.0-0.0-0.12","1367","","j","","","","","","","","","","","","","key","j","33.333333333333336","864","536","j","true","img/C_ambi40.png","坏人","prac_image_first",""
"","","","","","html-keyboard-response","36","228614","0.0-7.0-0.0-1.12","null","<span style='color:GreenYellow; font-size: 70px;'>正确! </span>","null","","","","","","","","","","","","","","","","","","","","","","","feedback_test"
"","","","","","psychophysics","37","230857","0.0-7.0-0.0-0.13","1089","","j","","","","","","","","","","","","","key","j","33.333333333333336","864","536","j","true","img/T_ambi40.png","好人","prac_image_first",""
"","","","","","html-keyboard-response","38","231160","0.0-7.0-0.0-1.13","null","<span style='color:GreenYellow; font-size: 70px;'>正确! </span>","null","","","","","","","","","","","","","","","","","","","","","","","feedback_test"
"","","","","","psychophysics","39","233289","0.0-7.0-0.0-0.14","975","","j","","","","","","","","","","","","","key","j","33.34920634920635","864","536","f","false","img/T_ambi40.png","常人","prac_image_first",""
"","","","","","html-keyboard-response","40","233592","0.0-7.0-0.0-1.14","null","<span style='color:red; font-size: 70px;'>错误! </span>","null","","","","","","","","","","","","","","","","","","","","","","","feedback_test"
"","","","","","psychophysics","41","235663","0.0-7.0-0.0-0.15","915","","j","","","","","","","","","","","","","key","j","33.333333333333336","864","536","j","true","img/C_ambi40.png","坏人","prac_image_first",""
"","","","","","html-keyboard-response","42","235966","0.0-7.0-0.0-1.15","null","<span style='color:GreenYellow; font-size: 70px;'>正确! </span>","null","","","","","","","","","","","","","","","","","","","","","","","feedback_test"
"","","","","","psychophysics","43","238088","0.0-7.0-0.0-0.16","968","","j","","","","","","","","","","","","","key","j","33.333333333333336","864","536","j","true","img/S_ambi40.png","常人","prac_image_first",""
"","","","","","html-keyboard-response","44","238391","0.0-7.0-0.0-1.16","null","<span style='color:GreenYellow; font-size: 70px;'>正确! </span>","null","","","","","","","","","","","","","","","","","","","","","","","feedback_test"
"","","","","","psychophysics","45","240726","0.0-7.0-0.0-0.17","1182","","f","","","","","","","","","","","","","key","f","33.333333333333336","864","536","f","true","img/C_ambi40.png","好人","prac_image_first",""
"","","","","","html-keyboard-response","46","241029","0.0-7.0-0.0-1.17","null","<span style='color:GreenYellow; font-size: 70px;'>正确! </span>","null","","","","","","","","","","","","","","","","","","","","","","","feedback_test"
"","","","","","psychophysics","47","243245","0.0-7.0-0.0-0.18","1060","","j","","","","","","","","","","","","","key","j","33.33846153846154","864","536","j","true","img/S_ambi40.png","常人","prac_image_first",""
"","","","","","html-keyboard-response","48","243547","0.0-7.0-0.0-1.18","null","<span style='color:GreenYellow; font-size: 70px;'>正确! </span>","null","","","","","","","","","","","","","","","","","","","","","","","feedback_test"
"","","","","","psychophysics","49","246158","0.0-7.0-0.0-0.19","1457","","f","","","","","","","","","","","","","key","f","33.35064935064935","864","536","f","true","img/C_ambi40.png","常人","prac_image_first",""
"","","","","","html-keyboard-response","50","246461","0.0-7.0-0.0-1.19","null","<span style='color:GreenYellow; font-size: 70px;'>正确! </span>","null","","","","","","","","","","","","","","","","","","","","","","","feedback_test"
"","","","","","psychophysics","51","248676","0.0-7.0-0.0-0.20","1064","","f","","","","","","","","","","","","","key","f","33.333333333333336","864","536","f","true","img/T_ambi40.png","坏人","prac_image_first",""
"","","","","","html-keyboard-response","52","248979","0.0-7.0-0.0-1.20","null","<span style='color:GreenYellow; font-size: 70px;'>正确! </span>","null","","","","","","","","","","","","","","","","","","","","","","","feedback_test"
"","","","","","psychophysics","53","251469","0.0-7.0-0.0-0.21","1338","","f","","","","","","","","","","","","","key","f","33.342465753424655","864","536","f","true","img/S_ambi40.png","好人","prac_image_first",""
"","","","","","html-keyboard-response","54","251773","0.0-7.0-0.0-1.21","null","<span style='color:GreenYellow; font-size: 70px;'>正确! </span>","null","","","","","","","","","","","","","","","","","","","","","","","feedback_test"
"","","","","","psychophysics","55","253987","0.0-7.0-0.0-0.22","1062","","f","","","","","","","","","","","","","key","f","33.333333333333336","864","536","f","true","img/S_ambi40.png","坏人","prac_image_first",""
"","","","","","html-keyboard-response","56","254290","0.0-7.0-0.0-1.22","null","<span style='color:GreenYellow; font-size: 70px;'>正确! </span>","null","","","","","","","","","","","","","","","","","","","","","","","feedback_test"
"","","","","","psychophysics","57","256567","0.0-7.0-0.0-0.23","1126","","f","","","","","","","","","","","","","key","f","33.3134328358209","864","536","j","false","img/T_ambi40.png","好人","prac_image_first",""
"","","","","","html-keyboard-response","58","256869","0.0-7.0-0.0-1.23","null","<span style='color:red; font-size: 70px;'>错误! </span>","null","","","","","","","","","","","","","","","","","","","","","","","feedback_test"
"","","","","","html-keyboard-response","59","261073","0.0-8.0","4199","<style>.context{color:white; font-size: 35px; line-height:40px}</style>                              <div><p class='context'>您正确回答了88% 的试次。</p><p class='context'>您的平均反应时为1092毫秒。</p><p class='context'>恭喜您完成这一阶段的练习。按任意键进入<span style='color: yellow;'>先文字后图形条件</span>的练习。</p></div>","j","","","","","","","","","","","","","","","","","","","","","","",""
"","","","","","psychophysics","60","263258","0.0-9.0-0.0-0.0","1031","","j","","","","","","","","","","","","","key","j","33.276923076923076","864","536","j","true","img/C_ambi40.png","坏人","prac_word_first",""
"","","","","","html-keyboard-response","61","263561","0.0-9.0-0.0-1.0","null","<span style='color:GreenYellow; font-size: 70px;'>正确! </span>","null","","","","","","","","","","","","","","","","","","","","","","","feedback_test"
"","","","","","psychophysics","62","265948","0.0-9.0-0.0-0.1","1233","","j","","","","","","","","","","","","","key","j","33.32394366197183","864","536","j","true","img/T_ambi40.png","好人","prac_word_first",""
"","","","","","html-keyboard-response","63","266251","0.0-9.0-0.0-1.1","null","<span style='color:GreenYellow; font-size: 70px;'>正确! </span>","null","","","","","","","","","","","","","","","","","","","","","","","feedback_test"
"","","","","","psychophysics","64","268286","0.0-9.0-0.0-0.2","882","","f","","","","","","","","","","","","","key","f","33.31666666666667","864","536","f","true","img/S_ambi40.png","坏人","prac_word_first",""
"","","","","","html-keyboard-response","65","268588","0.0-9.0-0.0-1.2","null","<span style='color:GreenYellow; font-size: 70px;'>正确! </span>","null","","","","","","","","","","","","","","","","","","","","","","","feedback_test"
"","","","","","psychophysics","66","270549","0.0-9.0-0.0-0.3","807","","j","","","","","","","","","","","","","key","j","33.333333333333336","864","536","j","true","img/S_ambi40.png","常人","prac_word_first",""
"","","","","","html-keyboard-response","67","270851","0.0-9.0-0.0-1.3","null","<span style='color:GreenYellow; font-size: 70px;'>正确! </span>","null","","","","","","","","","","","","","","","","","","","","","","","feedback_test"
"","","","","","psychophysics","68","272886","0.0-9.0-0.0-0.4","882","","f","","","","","","","","","","","","","key","f","33.333333333333336","864","536","f","true","img/C_ambi40.png","好人","prac_word_first",""
"","","","","","html-keyboard-response","69","273189","0.0-9.0-0.0-1.4","null","<span style='color:GreenYellow; font-size: 70px;'>正确! </span>","null","","","","","","","","","","","","","","","","","","","","","","","feedback_test"
"","","","","","psychophysics","70","275589","0.0-9.0-0.0-0.5","1243","","f","","","","","","","","","","","","","key","f","33.25352112676056","864","536","f","true","img/T_ambi40.png","坏人","prac_word_first",""
"","","","","","html-keyboard-response","71","275890","0.0-9.0-0.0-1.5","null","<span style='color:GreenYellow; font-size: 70px;'>正确! </span>","null","","","","","","","","","","","","","","","","","","","","","","","feedback_test"
"","","","","","psychophysics","72","278021","0.0-9.0-0.0-0.6","976","","f","","","","","","","","","","","","","key","f","33.333333333333336","864","536","f","true","img/T_ambi40.png","常人","prac_word_first",""
"","","","","","html-keyboard-response","73","278324","0.0-9.0-0.0-1.6","null","<span style='color:GreenYellow; font-size: 70px;'>正确! </span>","null","","","","","","","","","","","","","","","","","","","","","","","feedback_test"
"","","","","","psychophysics","74","280361","0.0-9.0-0.0-0.7","883","","j","","","","","","","","","","","","","key","j","33.31666666666667","864","536","j","true","img/S_ambi40.png","常人","prac_word_first",""
"","","","","","html-keyboard-response","75","280669","0.0-9.0-0.0-1.7","null","<span style='color:GreenYellow; font-size: 70px;'>正确! </span>","null","","","","","","","","","","","","","","","","","","","","","","","feedback_test"
"","","","","","psychophysics","76","283060","0.0-9.0-0.0-0.8","1236","","f","","","","","","","","","","","","","key","f","33.352112676056336","864","536","j","false","img/T_ambi40.png","好人","prac_word_first",""
"","","","","","html-keyboard-response","77","283362","0.0-9.0-0.0-1.8","null","<span style='color:red; font-size: 70px;'>错误! </span>","null","","","","","","","","","","","","","","","","","","","","","","","feedback_test"
"","","","","","psychophysics","78","285759","0.0-9.0-0.0-0.9","1242","","f","","","","","","","","","","","","","key","f","33.31428571428572","864","536","f","true","img/C_ambi40.png","常人","prac_word_first",""
"","","","","","html-keyboard-response","79","286061","0.0-9.0-0.0-1.9","null","<span style='color:GreenYellow; font-size: 70px;'>正确! </span>","null","","","","","","","","","","","","","","","","","","","","","","","feedback_test"
"","","","","","psychophysics","80","287983","0.0-9.0-0.0-0.10","764","","j","","","","","","","","","","","","","key","j","33.35087719298246","864","536","j","true","img/C_ambi40.png","坏人","prac_word_first",""
"","","","","","html-keyboard-response","81","288286","0.0-9.0-0.0-1.10","null","<span style='color:GreenYellow; font-size: 70px;'>正确! </span>","null","","","","","","","","","","","","","","","","","","","","","","","feedback_test"
"","","","","","psychophysics","82","290366","0.0-9.0-0.0-0.11","927","","f","","","","","","","","","","","","","key","f","33.33870967741935","864","536","f","true","img/S_ambi40.png","好人","prac_word_first",""
"","","","","","html-keyboard-response","83","290667","0.0-9.0-0.0-1.11","null","<span style='color:GreenYellow; font-size: 70px;'>正确! </span>","null","","","","","","","","","","","","","","","","","","","","","","","feedback_test"
"","","","","","psychophysics","84","292784","0.0-9.0-0.0-0.12","963","","f","","","","","","","","","","","","","key","f","33.34920634920635","864","536","f","true","img/T_ambi40.png","常人","prac_word_first",""
"","","","","","html-keyboard-response","85","293086","0.0-9.0-0.0-1.12","null","<span style='color:GreenYellow; font-size: 70px;'>正确! </span>","null","","","","","","","","","","","","","","","","","","","","","","","feedback_test"
"","","","","","psychophysics","86","295118","0.0-9.0-0.0-0.13","880","","f","","","","","","","","","","","","","key","f","33.333333333333336","864","536","f","true","img/S_ambi40.png","好人","prac_word_first",""
"","","","","","html-keyboard-response","87","295420","0.0-9.0-0.0-1.13","null","<span style='color:GreenYellow; font-size: 70px;'>正确! </span>","null","","","","","","","","","","","","","","","","","","","","","","","feedback_test"
"","","","","","psychophysics","88","297877","0.0-9.0-0.0-0.14","1306","","f","","","","","","","","","","","","","key","f","33.342465753424655","864","536","f","true","img/T_ambi40.png","坏人","prac_word_first",""
"","","","","","html-keyboard-response","89","298180","0.0-9.0-0.0-1.14","null","<span style='color:GreenYellow; font-size: 70px;'>正确! </span>","null","","","","","","","","","","","","","","","","","","","","","","","feedback_test"
"","","","","","psychophysics","90","300387","0.0-9.0-0.0-0.15","1055","","j","","","","","","","","","","","","","key","j","33.33846153846154","864","536","j","true","img/S_ambi40.png","常人","prac_word_first",""
"","","","","","html-keyboard-response","91","300690","0.0-9.0-0.0-1.15","null","<span style='color:GreenYellow; font-size: 70px;'>正确! </span>","null","","","","","","","","","","","","","","","","","","","","","","","feedback_test"
"","","","","","psychophysics","92","302844","0.0-9.0-0.0-0.16","1001","","j","","","","","","","","","","","","","key","j","33.328125","864","536","j","true","img/S_ambi40.png","常人","prac_word_first",""
"","","","","","html-keyboard-response","93","303147","0.0-9.0-0.0-1.16","null","<span style='color:GreenYellow; font-size: 70px;'>正确! </span>","null","","","","","","","","","","","","","","","","","","","","","","","feedback_test"
"","","","","","psychophysics","94","304928","0.0-9.0-0.0-0.17","628","","j","","","","","","","","","","","","","key","j","33.339622641509436","864","536","j","true","img/C_ambi40.png","坏人","prac_word_first",""
"","","","","","html-keyboard-response","95","305231","0.0-9.0-0.0-1.17","null","<span style='color:GreenYellow; font-size: 70px;'>正确! </span>","null","","","","","","","","","","","","","","","","","","","","","","","feedback_test"
"","","","","","psychophysics","96","307359","0.0-9.0-0.0-0.18","973","","f","","","","","","","","","","","","","key","f","33.33870967741935","864","536","f","true","img/C_ambi40.png","常人","prac_word_first",""
"","","","","","html-keyboard-response","97","307662","0.0-9.0-0.0-1.18","null","<span style='color:GreenYellow; font-size: 70px;'>正确! </span>","null","","","","","","","","","","","","","","","","","","","","","","","feedback_test"
"","","","","","psychophysics","98","309819","0.0-9.0-0.0-0.19","1004","","f","","","","","","","","","","","","","key","f","33.171875","864","536","j","false","img/T_ambi40.png","好人","prac_word_first",""
"","","","","","html-keyboard-response","99","310121","0.0-9.0-0.0-1.19","null","<span style='color:red; font-size: 70px;'>错误! </span>","null","","","","","","","","","","","","","","","","","","","","","","","feedback_test"
"","","","","","psychophysics","100","312036","0.0-9.0-0.0-0.20","761","","j","","","","","","","","","","","","","key","j","33.333333333333336","864","536","j","true","img/C_ambi40.png","坏人","prac_word_first",""
"","","","","","html-keyboard-response","101","312338","0.0-9.0-0.0-1.20","null","<span style='color:GreenYellow; font-size: 70px;'>正确! </span>","null","","","","","","","","","","","","","","","","","","","","","","","feedback_test"
"","","","","","psychophysics","102","314229","0.0-9.0-0.0-0.21","735","","f","","","","","","","","","","","","","key","f","33.32142857142857","864","536","f","true","img/S_ambi40.png","坏人","prac_word_first",""
"","","","","","html-keyboard-response","103","314532","0.0-9.0-0.0-1.21","null","<span style='color:GreenYellow; font-size: 70px;'>正确! </span>","null","","","","","","","","","","","","","","","","","","","","","","","feedback_test"
"","","","","","psychophysics","104","316568","0.0-9.0-0.0-0.22","882","","f","","","","","","","","","","","","","key","f","33.333333333333336","864","536","j","false","img/T_ambi40.png","好人","prac_word_first",""
"","","","","","html-keyboard-response","105","316871","0.0-9.0-0.0-1.22","null","<span style='color:red; font-size: 70px;'>错误! </span>","null","","","","","","","","","","","","","","","","","","","","","","","feedback_test"
"","","","","","psychophysics","106","318969","0.0-9.0-0.0-0.23","946","","f","","","","","","","","","","","","","key","f","33.354838709677416","864","536","f","true","img/C_ambi40.png","好人","prac_word_first",""
"","","","","","html-keyboard-response","107","319272","0.0-9.0-0.0-1.23","null","<span style='color:GreenYellow; font-size: 70px;'>正确! </span>","null","","","","","","","","","","","","","","","","","","","","","","","feedback_test"
"","","","","","html-keyboard-response","108","324495","0.0-10.0","5218","<style>.context{color:white; font-size: 35px; line-height:40px}</style>                              <div><p class='context'>您正确回答了88% 的试次。</p><p class='context'>您的平均反应时为958毫秒。</p><p class='context'>恭喜您完成练习。按任意键进入<span style='color: yellow;'>图形和文字同时呈现条件</span>的练习。</p></div>","j","","","","","","","","","","","","","","","","","","","","","","",""
"","","","","","psychophysics","109","326829","0.0-11.0-0.0-0.0","1329","","f","","","","","","","","","","","","","key","f","33.30434782608695","864","536","f","true","img/T_ambi40.png","常人","prac_simultaneous",""
"","","","","","html-keyboard-response","110","327135","0.0-11.0-0.0-1.0","null","<span style='color:GreenYellow; font-size: 70px;'>正确! </span>","null","","","","","","","","","","","","","","","","","","","","","","","feedback_test"
"","","","","","psychophysics","111","329078","0.0-11.0-0.0-0.1","937","","f","","","","","","","","","","","","","key","f","33.3448275862069","864","536","f","true","img/C_ambi40.png","好人","prac_simultaneous",""
"","","","","","html-keyboard-response","112","329380","0.0-11.0-0.0-1.1","null","<span style='color:GreenYellow; font-size: 70px;'>正确! </span>","null","","","","","","","","","","","","","","","","","","","","","","","feedback_test"
"","","","","","psychophysics","113","331513","0.0-11.0-0.0-0.2","1127","","f","","","","","","","","","","","","","key","f","33.285714285714285","864","536","j","false","img/C_ambi40.png","坏人","prac_simultaneous",""
"","","","","","html-keyboard-response","114","331815","0.0-11.0-0.0-1.2","null","<span style='color:red; font-size: 70px;'>错误! </span>","null","","","","","","","","","","","","","","","","","","","","","","","feedback_test"
"","","","","","psychophysics","115","333910","0.0-11.0-0.0-0.3","1091","","f","","","","","","","","","","","","","key","f","33.32258064516129","864","536","f","true","img/S_ambi40.png","好人","prac_simultaneous",""
"","","","","","html-keyboard-response","116","334213","0.0-11.0-0.0-1.3","null","<span style='color:GreenYellow; font-size: 70px;'>正确! </span>","null","","","","","","","","","","","","","","","","","","","","","","","feedback_test"
"","","","","","psychophysics","117","336330","0.0-11.0-0.0-0.4","1115","","j","","","","","","","","","","","","","key","j","33.317460317460316","864","536","f","false","img/T_ambi40.png","坏人","prac_simultaneous",""
"","","","","","html-keyboard-response","118","336632","0.0-11.0-0.0-1.4","null","<span style='color:red; font-size: 70px;'>错误! </span>","null","","","","","","","","","","","","","","","","","","","","","","","feedback_test"
"","","","","","psychophysics","119","338475","0.0-11.0-0.0-0.5","838","","f","","","","","","","","","","","","","key","f","33.351851851851855","864","536","f","true","img/C_ambi40.png","常人","prac_simultaneous",""
"","","","","","html-keyboard-response","120","338778","0.0-11.0-0.0-1.5","null","<span style='color:GreenYellow; font-size: 70px;'>正确! </span>","null","","","","","","","","","","","","","","","","","","","","","","","feedback_test"
"","","","","","psychophysics","121","340929","0.0-11.0-0.0-0.6","1148","","f","","","","","","","","","","","","","key","f","33.34375","864","536","j","false","img/S_ambi40.png","常人","prac_simultaneous",""
"","","","","","html-keyboard-response","122","341231","0.0-11.0-0.0-1.6","null","<span style='color:red; font-size: 70px;'>错误! </span>","null","","","","","","","","","","","","","","","","","","","","","","","feedback_test"
"","","","","","psychophysics","123","343178","0.0-11.0-0.0-0.7","944","","j","","","","","","","","","","","","","key","j","33.36206896551724","864","536","j","true","img/C_ambi40.png","坏人","prac_simultaneous",""
"","","","","","html-keyboard-response","124","343483","0.0-11.0-0.0-1.7","null","<span style='color:GreenYellow; font-size: 70px;'>正确! </span>","null","","","","","","","","","","","","","","","","","","","","","","","feedback_test"
"","","","","","psychophysics","125","345698","0.0-11.0-0.0-0.8","1211","","j","","","","","","","","","","","","","key","j","33.333333333333336","864","536","j","true","img/T_ambi40.png","好人","prac_simultaneous",""
"","","","","","html-keyboard-response","126","345999","0.0-11.0-0.0-1.8","null","<span style='color:GreenYellow; font-size: 70px;'>正确! </span>","null","","","","","","","","","","","","","","","","","","","","","","","feedback_test"
"","","","","","psychophysics","127","348128","0.0-11.0-0.0-0.9","1124","","f","","","","","","","","","","","","","key","f","33.34920634920635","864","536","f","true","img/S_ambi40.png","坏人","prac_simultaneous",""
"","","","","","html-keyboard-response","128","348431","0.0-11.0-0.0-1.9","null","<span style='color:GreenYellow; font-size: 70px;'>正确! </span>","null","","","","","","","","","","","","","","","","","","","","","","","feedback_test"
"","","","","","psychophysics","129","350938","0.0-11.0-0.0-0.10","null","","null","","","","","","","","","","","","","key","null","33.33783783783784","864","536","j","false","img/T_ambi40.png","好人","prac_simultaneous",""
"","","","","","html-keyboard-response","130","351241","0.0-11.0-0.0-1.10","null","<span class='add_' style='color:yellow; font-size: 70px;'> 太慢! </span>","null","","","","","","","","","","","","","","","","","","","","","","","feedback_test"
"","","","","","psychophysics","131","353021","0.0-11.0-0.0-0.11","777","","j","","","","","","","","","","","","","key","j","33.339622641509436","864","536","j","true","img/S_ambi40.png","常人","prac_simultaneous",""
"","","","","","html-keyboard-response","132","353324","0.0-11.0-0.0-1.11","null","<span style='color:GreenYellow; font-size: 70px;'>正确! </span>","null","","","","","","","","","","","","","","","","","","","","","","","feedback_test"
"","","","","","psychophysics","133","355259","0.0-11.0-0.0-0.12","929","","f","","","","","","","","","","","","","key","f","33.333333333333336","864","536","f","true","img/S_ambi40.png","坏人","prac_simultaneous",""
"","","","","","html-keyboard-response","134","355561","0.0-11.0-0.0-1.12","null","<span style='color:GreenYellow; font-size: 70px;'>正确! </span>","null","","","","","","","","","","","","","","","","","","","","","","","feedback_test"
"","","","","","psychophysics","135","357490","0.0-11.0-0.0-0.13","924","","j","","","","","","","","","","","","","key","j","33.31578947368421","864","536","f","false","img/T_ambi40.png","常人","prac_simultaneous",""
"","","","","","html-keyboard-response","136","357794","0.0-11.0-0.0-1.13","null","<span style='color:red; font-size: 70px;'>错误! </span>","null","","","","","","","","","","","","","","","","","","","","","","","feedback_test"
"","","","","","psychophysics","137","360039","0.0-11.0-0.0-0.14","1243","","f","","","","","","","","","","","","","key","f","33.35820895522388","864","536","j","false","img/T_ambi40.png","好人","prac_simultaneous",""
"","","","","","html-keyboard-response","138","360341","0.0-11.0-0.0-1.14","null","<span style='color:red; font-size: 70px;'>错误! </span>","null","","","","","","","","","","","","","","","","","","","","","","","feedback_test"
"","","","","","psychophysics","139","362805","0.0-11.0-0.0-0.15","1461","","j","","","","","","","","","","","","","key","j","33.32876712328767","864","536","f","false","img/T_ambi40.png","坏人","prac_simultaneous",""
"","","","","","html-keyboard-response","140","363107","0.0-11.0-0.0-1.15","null","<span style='color:red; font-size: 70px;'>错误! </span>","null","","","","","","","","","","","","","","","","","","","","","","","feedback_test"
"","","","","","psychophysics","141","364990","0.0-11.0-0.0-0.16","878","","j","","","","","","","","","","","","","key","j","33.32727272727273","864","536","f","false","img/C_ambi40.png","好人","prac_simultaneous",""
"","","","","","html-keyboard-response","142","365292","0.0-11.0-0.0-1.16","null","<span style='color:red; font-size: 70px;'>错误! </span>","null","","","","","","","","","","","","","","","","","","","","","","","feedback_test"
"","","","","","psychophysics","143","367360","0.0-11.0-0.0-0.17","1062","","j","","","","","","","","","","","","","key","j","33.32786885245902","864","536","j","true","img/C_ambi40.png","坏人","prac_simultaneous",""
"","","","","","html-keyboard-response","144","367662","0.0-11.0-0.0-1.17","null","<span style='color:GreenYellow; font-size: 70px;'>正确! </span>","null","","","","","","","","","","","","","","","","","","","","","","","feedback_test"
"","","","","","psychophysics","145","369405","0.0-11.0-0.0-0.18","738","","j","","","","","","","","","","","","","key","j","33.35294117647059","864","536","j","true","img/S_ambi40.png","常人","prac_simultaneous",""
"","","","","","html-keyboard-response","146","369707","0.0-11.0-0.0-1.18","null","<span style='color:GreenYellow; font-size: 70px;'>正确! </span>","null","","","","","","","","","","","","","","","","","","","","","","","feedback_test"
"","","","","","psychophysics","147","371744","0.0-11.0-0.0-0.19","1034","","f","","","","","","","","","","","","","key","f","33.31666666666667","864","536","j","false","img/S_ambi40.png","常人","prac_simultaneous",""
"","","","","","html-keyboard-response","148","372046","0.0-11.0-0.0-1.19","null","<span style='color:red; font-size: 70px;'>错误! </span>","null","","","","","","","","","","","","","","","","","","","","","","","feedback_test"
"","","","","","psychophysics","149","373928","0.0-11.0-0.0-0.20","879","","f","","","","","","","","","","","","","key","f","33.32142857142857","864","536","f","true","img/C_ambi40.png","常人","prac_simultaneous",""
"","","","","","html-keyboard-response","150","374231","0.0-11.0-0.0-1.20","null","<span style='color:GreenYellow; font-size: 70px;'>正确! </span>","null","","","","","","","","","","","","","","","","","","","","","","","feedback_test"
"","","","","","psychophysics","151","376405","0.0-11.0-0.0-0.21","1166","","j","","","","","","","","","","","","","key","j","33.34375","864","536","f","false","img/S_ambi40.png","好人","prac_simultaneous",""
"","","","","","html-keyboard-response","152","376708","0.0-11.0-0.0-1.21","null","<span style='color:red; font-size: 70px;'>错误! </span>","null","","","","","","","","","","","","","","","","","","","","","","","feedback_test"
"","","","","","psychophysics","153","378733","0.0-11.0-0.0-0.22","1022","","j","","","","","","","","","","","","","key","j","33.333333333333336","864","536","j","true","img/T_ambi40.png","好人","prac_simultaneous",""
"","","","","","html-keyboard-response","154","379037","0.0-11.0-0.0-1.22","null","<span style='color:GreenYellow; font-size: 70px;'>正确! </span>","null","","","","","","","","","","","","","","","","","","","","","","","feedback_test"
"","","","","","psychophysics","155","380888","0.0-11.0-0.0-0.23","848","","j","","","","","","","","","","","","","key","j","33.38181818181818","864","536","j","true","img/C_ambi40.png","坏人","prac_simultaneous",""
"","","","","","html-keyboard-response","156","381189","0.0-11.0-0.0-1.23","null","<span style='color:GreenYellow; font-size: 70px;'>正确! </span>","null","","","","","","","","","","","","","","","","","","","","","","","feedback_test"
"","","","","","html-keyboard-response","157","391094","0.0-11.0-1.0-0.0","9902","<style>.context{color:white; font-size: 35px; line-height:40px}</style>                              <div><p class='context'>您正确回答了58% 的试次。</p><p class='context'>您的平均反应时为981毫秒。</p>","j","","","","","","","","","","","","","","","","","","","","","","",""
"","","","","","instructions","158","400223","0.0-11.0-1.0-1.0","9128","","","","","","","","","","","","","","[{""page_index"":0,""viewing_time"":2635},{""page_index"":1,""viewing_time"":4161},{""page_index"":2,""viewing_time"":2332}]","","","","","","","","","","",""
"","","","","","psychophysics","159","402727","0.0-11.1-0.1-0.24","null","","null","","","","","","","","","","","","","key","null","33.33783783783784","864","536","f","false","img/S_ambi40.png","好人","prac_simultaneous",""
"","","","","","html-keyboard-response","160","403030","0.0-11.1-0.1-1.24","null","<span class='add_' style='color:yellow; font-size: 70px;'> 太慢! </span>","null","","","","","","","","","","","","","","","","","","","","","","","feedback_test"
"","","","","","psychophysics","161","404980","0.0-11.1-0.1-0.25","948","","f","","","","","","","","","","","","","key","f","33.37931034482759","864","536","j","false","img/S_ambi40.png","常人","prac_simultaneous",""
"","","","","","html-keyboard-response","162","405283","0.0-11.1-0.1-1.25","null","<span style='color:red; font-size: 70px;'>错误! </span>","null","","","","","","","","","","","","","","","","","","","","","","","feedback_test"
"","","","","","psychophysics","163","407380","0.0-11.1-0.1-0.26","1089","","f","","","","","","","","","","","","","key","f","33.32258064516129","864","536","f","true","img/C_ambi40.png","好人","prac_simultaneous",""
"","","","","","html-keyboard-response","164","407683","0.0-11.1-0.1-1.26","null","<span style='color:GreenYellow; font-size: 70px;'>正确! </span>","null","","","","","","","","","","","","","","","","","","","","","","","feedback_test"
"","","","","","psychophysics","165","409988","0.0-11.1-0.1-0.27","1302","","f","","","","","","","","","","","","","key","f","33.35294117647059","864","536","f","true","img/S_ambi40.png","坏人","prac_simultaneous",""
"","","","","","html-keyboard-response","166","410290","0.0-11.1-0.1-1.27","null","<span style='color:GreenYellow; font-size: 70px;'>正确! </span>","null","","","","","","","","","","","","","","","","","","","","","","","feedback_test"
"","","","","","psychophysics","167","412179","0.0-11.1-0.1-0.28","884","","j","","","","","","","","","","","","","key","j","33.339285714285715","864","536","j","true","img/T_ambi40.png","好人","prac_simultaneous",""
"","","","","","html-keyboard-response","168","412482","0.0-11.1-0.1-1.28","null","<span style='color:GreenYellow; font-size: 70px;'>正确! </span>","null","","","","","","","","","","","","","","","","","","","","","","","feedback_test"
"","","","","","psychophysics","169","414371","0.0-11.1-0.1-0.29","884","","f","","","","","","","","","","","","","key","f","33.339285714285715","864","536","f","true","img/T_ambi40.png","坏人","prac_simultaneous",""
"","","","","","html-keyboard-response","170","414674","0.0-11.1-0.1-1.29","null","<span style='color:GreenYellow; font-size: 70px;'>正确! </span>","null","","","","","","","","","","","","","","","","","","","","","","","feedback_test"
"","","","","","psychophysics","171","416708","0.0-11.1-0.1-0.30","1032","","f","","","","","","","","","","","","","key","f","33.333333333333336","864","536","f","true","img/T_ambi40.png","常人","prac_simultaneous",""
"","","","","","html-keyboard-response","172","417010","0.0-11.1-0.1-1.30","null","<span style='color:GreenYellow; font-size: 70px;'>正确! </span>","null","","","","","","","","","","","","","","","","","","","","","","","feedback_test"
"","","","","","psychophysics","173","419034","0.0-11.1-0.1-0.31","1020","","j","","","","","","","","","","","","","key","j","33.33898305084746","864","536","j","true","img/T_ambi40.png","好人","prac_simultaneous",""
"","","","","","html-keyboard-response","174","419335","0.0-11.1-0.1-1.31","null","<span style='color:GreenYellow; font-size: 70px;'>正确! </span>","null","","","","","","","","","","","","","","","","","","","","","","","feedback_test"
"","","","","","psychophysics","175","421225","0.0-11.1-0.1-0.32","887","","f","","","","","","","","","","","","","key","f","33.339285714285715","864","536","f","true","img/C_ambi40.png","常人","prac_simultaneous",""
"","","","","","html-keyboard-response","176","421527","0.0-11.1-0.1-1.32","null","<span style='color:GreenYellow; font-size: 70px;'>正确! </span>","null","","","","","","","","","","","","","","","","","","","","","","","feedback_test"
"","","","","","psychophysics","177","424030","0.0-11.1-0.1-0.33","1500","","f","","","","","","","","","","","","","key","f","33.33783783783784","864","536","j","false","img/C_ambi40.png","坏人","prac_simultaneous",""
"","","","","","html-keyboard-response","178","424332","0.0-11.1-0.1-1.33","null","<span style='color:red; font-size: 70px;'>错误! </span>","null","","","","","","","","","","","","","","","","","","","","","","","feedback_test"
"","","","","","psychophysics","179","426432","0.0-11.1-0.1-0.34","1096","","j","","","","","","","","","","","","","key","j","33.33870967741935","864","536","j","true","img/C_ambi40.png","坏人","prac_simultaneous",""
"","","","","","html-keyboard-response","180","426734","0.0-11.1-0.1-1.34","null","<span style='color:GreenYellow; font-size: 70px;'>正确! </span>","null","","","","","","","","","","","","","","","","","","","","","","","feedback_test"
"","","","","","psychophysics","181","428737","0.0-11.1-0.1-0.35","995","","j","","","","","","","","","","","","","key","j","33.32203389830509","864","536","j","true","img/S_ambi40.png","常人","prac_simultaneous",""
"","","","","","html-keyboard-response","182","429040","0.0-11.1-0.1-1.35","null","<span style='color:GreenYellow; font-size: 70px;'>正确! </span>","null","","","","","","","","","","","","","","","","","","","","","","","feedback_test"
"","","","","","psychophysics","183","431139","0.0-11.1-0.1-0.36","1096","","j","","","","","","","","","","","","","key","j","33.33870967741935","864","536","j","true","img/S_ambi40.png","常人","prac_simultaneous",""
"","","","","","html-keyboard-response","184","431441","0.0-11.1-0.1-1.36","null","<span style='color:GreenYellow; font-size: 70px;'>正确! </span>","null","","","","","","","","","","","","","","","","","","","","","","","feedback_test"
"","","","","","psychophysics","185","433663","0.0-11.1-0.1-0.37","1219","","j","","","","","","","","","","","","","key","j","33.31818181818182","864","536","j","true","img/C_ambi40.png","坏人","prac_simultaneous",""
"","","","","","html-keyboard-response","186","433965","0.0-11.1-0.1-1.37","null","<span style='color:GreenYellow; font-size: 70px;'>正确! </span>","null","","","","","","","","","","","","","","","","","","","","","","","feedback_test"
"","","","","","psychophysics","187","436210","0.0-11.1-0.1-0.38","1242","","f","","","","","","","","","","","","","key","f","33.343283582089555","864","536","j","false","img/S_ambi40.png","常人","prac_simultaneous",""
"","","","","","html-keyboard-response","188","436513","0.0-11.1-0.1-1.38","null","<span style='color:red; font-size: 70px;'>错误! </span>","null","","","","","","","","","","","","","","","","","","","","","","","feedback_test"
"","","","","","psychophysics","189","438461","0.0-11.1-0.1-0.39","947","","f","","","","","","","","","","","","","key","f","33.48275862068966","864","536","f","true","img/C_ambi40.png","常人","prac_simultaneous",""
"","","","","","html-keyboard-response","190","438763","0.0-11.1-0.1-1.39","null","<span style='color:GreenYellow; font-size: 70px;'>正确! </span>","null","","","","","","","","","","","","","","","","","","","","","","","feedback_test"
"","","","","","psychophysics","191","441053","0.0-11.1-0.1-0.40","1289","","f","","","","","","","","","","","","","key","f","33.32835820895522","864","536","f","true","img/T_ambi40.png","坏人","prac_simultaneous",""
"","","","","","html-keyboard-response","192","441356","0.0-11.1-0.1-1.40","null","<span style='color:GreenYellow; font-size: 70px;'>正确! </span>","null","","","","","","","","","","","","","","","","","","","","","","","feedback_test"
"","","","","","psychophysics","193","443323","0.0-11.1-0.1-0.41","963","","j","","","","","","","","","","","","","key","j","33.327586206896555","864","536","j","true","img/T_ambi40.png","好人","prac_simultaneous",""
"","","","","","html-keyboard-response","194","443626","0.0-11.1-0.1-1.41","null","<span style='color:GreenYellow; font-size: 70px;'>正确! </span>","null","","","","","","","","","","","","","","","","","","","","","","","feedback_test"
"","","","","","psychophysics","195","445328","0.0-11.1-0.1-0.42","700","","j","","","","","","","","","","","","","key","j","33.34","864","536","j","true","img/T_ambi40.png","好人","prac_simultaneous",""
"","","","","","html-keyboard-response","196","445631","0.0-11.1-0.1-1.42","null","<span style='color:GreenYellow; font-size: 70px;'>正确! </span>","null","","","","","","","","","","","","","","","","","","","","","","","feedback_test"
"","","","","","psychophysics","197","447522","0.0-11.1-0.1-0.43","887","","f","","","","","","","","","","","","","key","f","33.339285714285715","864","536","f","true","img/C_ambi40.png","好人","prac_simultaneous",""
"","","","","","html-keyboard-response","198","447824","0.0-11.1-0.1-1.43","null","<span style='color:GreenYellow; font-size: 70px;'>正确! </span>","null","","","","","","","","","","","","","","","","","","","","","","","feedback_test"
"","","","","","psychophysics","199","450011","0.0-11.1-0.1-0.44","1183","","f","","","","","","","","","","","","","key","f","33.353846153846156","864","536","f","true","img/T_ambi40.png","常人","prac_simultaneous",""
"","","","","","html-keyboard-response","200","450314","0.0-11.1-0.1-1.44","null","<span style='color:GreenYellow; font-size: 70px;'>正确! </span>","null","","","","","","","","","","","","","","","","","","","","","","","feedback_test"
"","","","","","psychophysics","201","452230","0.0-11.1-0.1-0.45","913","","f","","","","","","","","","","","","","key","f","33.31578947368421","864","536","f","true","img/S_ambi40.png","好人","prac_simultaneous",""
"","","","","","html-keyboard-response","202","452533","0.0-11.1-0.1-1.45","null","<span style='color:GreenYellow; font-size: 70px;'>正确! </span>","null","","","","","","","","","","","","","","","","","","","","","","","feedback_test"
"","","","","","psychophysics","203","454872","0.0-11.1-0.1-0.46","1336","","f","","","","","","","","","","","","","key","f","33.27536231884058","864","536","f","true","img/S_ambi40.png","坏人","prac_simultaneous",""
"","","","","","html-keyboard-response","204","455175","0.0-11.1-0.1-1.46","null","<span style='color:GreenYellow; font-size: 70px;'>正确! </span>","null","","","","","","","","","","","","","","","","","","","","","","","feedback_test"
"","","","","","psychophysics","205","457063","0.0-11.1-0.1-0.47","883","","f","","","","","","","","","","","","","key","f","33.357142857142854","864","536","j","false","img/C_ambi40.png","坏人","prac_simultaneous",""
"","","","","","html-keyboard-response","206","457366","0.0-11.1-0.1-1.47","null","<span style='color:red; font-size: 70px;'>错误! </span>","null","","","","","","","","","","","","","","","","","","","","","","","feedback_test"
"","","","","","html-keyboard-response","207","462973","0.0-12.0","5603","<style>.context{color:white; font-size: 35px; line-height:40px}</style>                              <div><p class='context'>您正确回答了79% 的试次。</p><p class='context'>您的平均反应时为1038毫秒。</p><p class='context'>恭喜您完成练习。按任意键进入正式实验。</p><p class='footer' style='font-size: 35px; line-height:40px;'>请在进入正式实验实验之前将您的<span style='color: lightgreen;'>食指</span>放在电脑键盘的相应键位上进行按键。</p>","j","","","","","","","","","","","","","","","","","","","","","","",""
"","","","","","html-keyboard-response","208","465199","0.0-13.0-0.0-0.0","2224","
      <p>请您将手指放在按键上，准备进入呈现顺序为<span style='color: yellow;'>先图形后文字条件</span>的正式匹配任务</p>
      <p> <div style = ""color: green""><按任意键进入下一阶段的匹配任务></div></p>
      ","j","","","","","","","","","","","","","","","","","","","","","","",""
"","","","","","psychophysics","209","467200","0.0-13.0-0.0-1.0-0.0-0.0","847","","j","","","","","","","","","","","","","key","j","33.355932203389834","864","536","f","false","img/C_ambi40.png","好人","image_first",""
"","","","","","html-keyboard-response","210","467503","0.0-13.0-0.0-1.0-0.0-1.0","null","<span style='color:red; font-size: 70px;'>错误! </span>","null","","","","","","","","","","","","","","","","","","","","","","","feedback_test"
"","","","","","psychophysics","211","469240","0.0-13.0-0.0-1.0-0.0-0.1","579","","j","","","","","","","","","","","","","key","j","33.411764705882355","864","536","j","true","img/S_ambi40.png","常人","image_first",""
"","","","","","html-keyboard-response","212","469542","0.0-13.0-0.0-1.0-0.0-1.1","null","<span style='color:GreenYellow; font-size: 70px;'>正确! </span>","null","","","","","","","","","","","","","","","","","","","","","","","feedback_test"
"","","","","","psychophysics","213","471521","0.0-13.0-0.0-1.0-0.0-0.2","824","","f","","","","","","","","","","","","","key","f","33.327586206896555","864","536","f","true","img/S_ambi40.png","好人","image_first",""
"","","","","","html-keyboard-response","214","471824","0.0-13.0-0.0-1.0-0.0-1.2","null","<span style='color:GreenYellow; font-size: 70px;'>正确! </span>","null","","","","","","","","","","","","","","","","","","","","","","","feedback_test"
"","","","","","psychophysics","215","473919","0.0-13.0-0.0-1.0-0.0-0.3","942","","f","","","","","","","","","","","","","key","f","33.33870967741935","864","536","j","false","img/T_ambi40.png","好人","image_first",""
"","","","","","html-keyboard-response","216","474222","0.0-13.0-0.0-1.0-0.0-1.3","null","<span style='color:red; font-size: 70px;'>错误! </span>","null","","","","","","","","","","","","","","","","","","","","","","","feedback_test"
"","","","","","psychophysics","217","476469","0.0-13.0-0.0-1.0-0.0-0.4","1094","","f","","","","","","","","","","","","","key","f","33.343283582089555","864","536","f","true","img/C_ambi40.png","常人","image_first",""
"","","","","","html-keyboard-response","218","476772","0.0-13.0-0.0-1.0-0.0-1.4","null","<span style='color:GreenYellow; font-size: 70px;'>正确! </span>","null","","","","","","","","","","","","","","","","","","","","","","","feedback_test"
"","","","","","psychophysics","219","478932","0.0-13.0-0.0-1.0-0.0-0.5","1006","","j","","","","","","","","","","","","","key","j","33.328125","864","536","f","false","img/T_ambi40.png","常人","image_first",""
"","","","","","html-keyboard-response","220","479235","0.0-13.0-0.0-1.0-0.0-1.5","null","<span style='color:red; font-size: 70px;'>错误! </span>","null","","","","","","","","","","","","","","","","","","","","","","","feedback_test"
"","","","","","psychophysics","221","481301","0.0-13.0-0.0-1.0-0.0-0.6","913","","j","","","","","","","","","","","","","key","j","33.26229508196721","864","536","j","true","img/C_ambi40.png","坏人","image_first",""
"","","","","","html-keyboard-response","222","481604","0.0-13.0-0.0-1.0-0.0-1.6","null","<span style='color:GreenYellow; font-size: 70px;'>正确! </span>","null","","","","","","","","","","","","","","","","","","","","","","","feedback_test"
"","","","","","psychophysics","223","483549","0.0-13.0-0.0-1.0-0.0-0.7","792","","f","","","","","","","","","","","","","key","f","33.3448275862069","864","536","f","true","img/S_ambi40.png","坏人","image_first",""
"","","","","","html-keyboard-response","224","483850","0.0-13.0-0.0-1.0-0.0-1.7","null","<span style='color:GreenYellow; font-size: 70px;'>正确! </span>","null","","","","","","","","","","","","","","","","","","","","","","","feedback_test"
"","","","","","psychophysics","225","485984","0.0-13.0-0.0-1.0-0.0-0.8","978","","f","","","","","","","","","","","","","key","f","33.34920634920635","864","536","f","true","img/T_ambi40.png","坏人","image_first",""
"","","","","","html-keyboard-response","226","486286","0.0-13.0-0.0-1.0-0.0-1.8","null","<span style='color:GreenYellow; font-size: 70px;'>正确! </span>","null","","","","","","","","","","","","","","","","","","","","","","","feedback_test"
"","","","","","psychophysics","227","488308","0.0-13.0-0.0-1.0-0.0-0.9","866","","j","","","","","","","","","","","","","key","j","33.333333333333336","864","536","j","true","img/T_ambi40.png","好人","image_first",""
"","","","","","html-keyboard-response","228","488611","0.0-13.0-0.0-1.0-0.0-1.9","null","<span style='color:GreenYellow; font-size: 70px;'>正确! </span>","null","","","","","","","","","","","","","","","","","","","","","","","feedback_test"
"","","","","","psychophysics","229","490780","0.0-13.0-0.0-1.0-0.0-0.10","1016","","j","","","","","","","","","","","","","key","j","33.34375","864","536","j","true","img/S_ambi40.png","常人","image_first",""
"","","","","","html-keyboard-response","230","491082","0.0-13.0-0.0-1.0-0.0-1.10","null","<span style='color:GreenYellow; font-size: 70px;'>正确! </span>","null","","","","","","","","","","","","","","","","","","","","","","","feedback_test"
"","","","","","psychophysics","231","493332","0.0-13.0-0.0-1.0-0.0-0.11","1098","","f","","","","","","","","","","","","","key","f","33.343283582089555","864","536","j","false","img/C_ambi40.png","坏人","image_first",""
"","","","","","html-keyboard-response","232","493634","0.0-13.0-0.0-1.0-0.0-1.11","null","<span style='color:red; font-size: 70px;'>错误! </span>","null","","","","","","","","","","","","","","","","","","","","","","","feedback_test"
"","","","","","psychophysics","233","495793","0.0-13.0-0.0-1.0-0.0-0.12","1005","","j","","","","","","","","","","","","","key","j","33.333333333333336","864","536","j","true","img/S_ambi40.png","常人","image_first",""
"","","","","","html-keyboard-response","234","496095","0.0-13.0-0.0-1.0-0.0-1.12","null","<span style='color:GreenYellow; font-size: 70px;'>正确! </span>","null","","","","","","","","","","","","","","","","","","","","","","","feedback_test"
"","","","","","psychophysics","235","498446","0.0-13.0-0.0-1.0-0.0-0.13","1197","","f","","","","","","","","","","","","","key","f","33.32857142857143","864","536","f","true","img/T_ambi40.png","常人","image_first",""
"","","","","","html-keyboard-response","236","498749","0.0-13.0-0.0-1.0-0.0-1.13","null","<span style='color:GreenYellow; font-size: 70px;'>正确! </span>","null","","","","","","","","","","","","","","","","","","","","","","","feedback_test"
"","","","","","psychophysics","237","500980","0.0-13.0-0.0-1.0-0.0-0.14","1078","","f","","","","","","","","","","","","","key","f","33.333333333333336","864","536","f","true","img/C_ambi40.png","好人","image_first",""
"","","","","","html-keyboard-response","238","501282","0.0-13.0-0.0-1.0-0.0-1.14","null","<span style='color:GreenYellow; font-size: 70px;'>正确! </span>","null","","","","","","","","","","","","","","","","","","","","","","","feedback_test"
"","","","","","psychophysics","239","503260","0.0-13.0-0.0-1.0-0.0-0.15","824","","j","","","","","","","","","","","","","key","j","33.3448275862069","864","536","j","true","img/S_ambi40.png","常人","image_first",""
"","","","","","html-keyboard-response","240","503562","0.0-13.0-0.0-1.0-0.0-1.15","null","<span style='color:GreenYellow; font-size: 70px;'>正确! </span>","null","","","","","","","","","","","","","","","","","","","","","","","feedback_test"
"","","","","","psychophysics","241","505690","0.0-13.0-0.0-1.0-0.0-0.16","976","","f","","","","","","","","","","","","","key","f","33.333333333333336","864","536","j","false","img/T_ambi40.png","好人","image_first",""
"","","","","","html-keyboard-response","242","505994","0.0-13.0-0.0-1.0-0.0-1.16","null","<span style='color:red; font-size: 70px;'>错误! </span>","null","","","","","","","","","","","","","","","","","","","","","","","feedback_test"
"","","","","","psychophysics","243","508358","0.0-13.0-0.0-1.0-0.0-0.17","1209","","f","","","","","","","","","","","","","key","f","33.32857142857143","864","536","f","true","img/T_ambi40.png","坏人","image_first",""
"","","","","","html-keyboard-response","244","508661","0.0-13.0-0.0-1.0-0.0-1.17","null","<span style='color:GreenYellow; font-size: 70px;'>正确! </span>","null","","","","","","","","","","","","","","","","","","","","","","","feedback_test"
"","","","","","psychophysics","245","510761","0.0-13.0-0.0-1.0-0.0-0.18","944","","j","","","","","","","","","","","","","key","j","33.33870967741935","864","536","j","true","img/C_ambi40.png","坏人","image_first",""
"","","","","","html-keyboard-response","246","511064","0.0-13.0-0.0-1.0-0.0-1.18","null","<span style='color:GreenYellow; font-size: 70px;'>正确! </span>","null","","","","","","","","","","","","","","","","","","","","","","","feedback_test"
"","","","","","psychophysics","247","513101","0.0-13.0-0.0-1.0-0.0-0.19","879","","f","","","","","","","","","","","","","key","f","33.33898305084746","864","536","f","true","img/S_ambi40.png","坏人","image_first",""
"","","","","","html-keyboard-response","248","513403","0.0-13.0-0.0-1.0-0.0-1.19","null","<span style='color:GreenYellow; font-size: 70px;'>正确! </span>","null","","","","","","","","","","","","","","","","","","","","","","","feedback_test"
"","","","","","psychophysics","249","515536","0.0-13.0-0.0-1.0-0.0-0.20","977","","f","","","","","","","","","","","","","key","f","33.333333333333336","864","536","f","true","img/C_ambi40.png","常人","image_first",""
"","","","","","html-keyboard-response","250","515839","0.0-13.0-0.0-1.0-0.0-1.20","null","<span style='color:GreenYellow; font-size: 70px;'>正确! </span>","null","","","","","","","","","","","","","","","","","","","","","","","feedback_test"
"","","","","","psychophysics","251","518109","0.0-13.0-0.0-1.0-0.0-0.21","1118","","f","","","","","","","","","","","","","key","f","33.343283582089555","864","536","j","false","img/T_ambi40.png","好人","image_first",""
"","","","","","html-keyboard-response","252","518412","0.0-13.0-0.0-1.0-0.0-1.21","null","<span style='color:red; font-size: 70px;'>错误! </span>","null","","","","","","","","","","","","","","","","","","","","","","","feedback_test"
"","","","","","psychophysics","253","520331","0.0-13.0-0.0-1.0-0.0-0.22","766","","f","","","","","","","","","","","","","key","f","33.35087719298246","864","536","j","false","img/C_ambi40.png","坏人","image_first",""
"","","","","","html-keyboard-response","254","520634","0.0-13.0-0.0-1.0-0.0-1.22","null","<span style='color:red; font-size: 70px;'>错误! </span>","null","","","","","","","","","","","","","","","","","","","","","","","feedback_test"
"","","","","","psychophysics","255","522911","0.0-13.0-0.0-1.0-0.0-0.23","1123","","f","","","","","","","","","","","","","key","f","33.3235294117647","864","536","f","true","img/S_ambi40.png","好人","image_first",""
"","","","","","html-keyboard-response","256","523213","0.0-13.0-0.0-1.0-0.0-1.23","null","<span style='color:GreenYellow; font-size: 70px;'>正确! </span>","null","","","","","","","","","","","","","","","","","","","","","","","feedback_test"
"","","","","","psychophysics","257","525249","0.0-13.0-0.0-1.0-0.0-0.24","879","","f","","","","","","","","","","","","","key","f","33.35","864","536","f","true","img/S_ambi40.png","好人","image_first",""
"","","","","","html-keyboard-response","258","525551","0.0-13.0-0.0-1.0-0.0-1.24","null","<span style='color:GreenYellow; font-size: 70px;'>正确! </span>","null","","","","","","","","","","","","","","","","","","","","","","","feedback_test"
"","","","","","psychophysics","259","527801","0.0-13.0-0.0-1.0-0.0-0.25","1093","","f","","","","","","","","","","","","","key","f","33.34848484848485","864","536","f","true","img/C_ambi40.png","好人","image_first",""
"","","","","","html-keyboard-response","260","528103","0.0-13.0-0.0-1.0-0.0-1.25","null","<span style='color:GreenYellow; font-size: 70px;'>正确! </span>","null","","","","","","","","","","","","","","","","","","","","","","","feedback_test"
"","","","","","psychophysics","261","530234","0.0-13.0-0.0-1.0-0.0-0.26","975","","j","","","","","","","","","","","","","key","j","33.333333333333336","864","536","j","true","img/S_ambi40.png","常人","image_first",""
"","","","","","html-keyboard-response","262","530537","0.0-13.0-0.0-1.0-0.0-1.26","null","<span style='color:GreenYellow; font-size: 70px;'>正确! </span>","null","","","","","","","","","","","","","","","","","","","","","","","feedback_test"
"","","","","","psychophysics","263","532721","0.0-13.0-0.0-1.0-0.0-0.27","1031","","f","","","","","","","","","","","","","key","f","33.33846153846154","864","536","j","false","img/T_ambi40.png","好人","image_first",""
"","","","","","html-keyboard-response","264","533023","0.0-13.0-0.0-1.0-0.0-1.27","null","<span style='color:red; font-size: 70px;'>错误! </span>","null","","","","","","","","","","","","","","","","","","","","","","","feedback_test"
"","","","","","psychophysics","265","535028","0.0-13.0-0.0-1.0-0.0-0.28","852","","j","","","","","","","","","","","","","key","j","33.33898305084746","864","536","j","true","img/C_ambi40.png","坏人","image_first",""
"","","","","","html-keyboard-response","266","535332","0.0-13.0-0.0-1.0-0.0-1.28","null","<span style='color:GreenYellow; font-size: 70px;'>正确! </span>","null","","","","","","","","","","","","","","","","","","","","","","","feedback_test"
"","","","","","psychophysics","267","537250","0.0-13.0-0.0-1.0-0.0-0.29","765","","j","","","","","","","","","","","","","key","j","33.35087719298246","864","536","j","true","img/S_ambi40.png","常人","image_first",""
"","","","","","html-keyboard-response","268","537552","0.0-13.0-0.0-1.0-0.0-1.29","null","<span style='color:GreenYellow; font-size: 70px;'>正确! </span>","null","","","","","","","","","","","","","","","","","","","","","","","feedback_test"
"","","","","","psychophysics","269","539622","0.0-13.0-0.0-1.0-0.0-0.30","915","","j","","","","","","","","","","","","","key","j","33.34426229508197","864","536","j","true","img/T_ambi40.png","好人","image_first",""
"","","","","","html-keyboard-response","270","539924","0.0-13.0-0.0-1.0-0.0-1.30","null","<span style='color:GreenYellow; font-size: 70px;'>正确! </span>","null","","","","","","","","","","","","","","","","","","","","","","","feedback_test"
"","","","","","psychophysics","271","542261","0.0-13.0-0.0-1.0-0.0-0.31","1182","","j","","","","","","","","","","","","","key","j","33.338235294117645","864","536","j","true","img/C_ambi40.png","坏人","image_first",""
"","","","","","html-keyboard-response","272","542563","0.0-13.0-0.0-1.0-0.0-1.31","null","<span style='color:GreenYellow; font-size: 70px;'>正确! </span>","null","","","","","","","","","","","","","","","","","","","","","","","feedback_test"
"","","","","","psychophysics","273","544600","0.0-13.0-0.0-1.0-0.0-0.32","884","","f","","","","","","","","","","","","","key","f","33.333333333333336","864","536","f","true","img/C_ambi40.png","常人","image_first",""
"","","","","","html-keyboard-response","274","544903","0.0-13.0-0.0-1.0-0.0-1.32","null","<span style='color:GreenYellow; font-size: 70px;'>正确! </span>","null","","","","","","","","","","","","","","","","","","","","","","","feedback_test"
"","","","","","psychophysics","275","547001","0.0-13.0-0.0-1.0-0.0-0.33","945","","f","","","","","","","","","","","","","key","f","33.354838709677416","864","536","f","true","img/T_ambi40.png","常人","image_first",""
"","","","","","html-keyboard-response","276","547305","0.0-13.0-0.0-1.0-0.0-1.33","null","<span style='color:GreenYellow; font-size: 70px;'>正确! </span>","null","","","","","","","","","","","","","","","","","","","","","","","feedback_test"
"","","","","","psychophysics","277","549252","0.0-13.0-0.0-1.0-0.0-0.34","792","","f","","","","","","","","","","","","","key","f","33.36206896551724","864","536","f","true","img/S_ambi40.png","坏人","image_first",""
"","","","","","html-keyboard-response","278","549554","0.0-13.0-0.0-1.0-0.0-1.34","null","<span style='color:GreenYellow; font-size: 70px;'>正确! </span>","null","","","","","","","","","","","","","","","","","","","","","","","feedback_test"
"","","","","","psychophysics","279","551409","0.0-13.0-0.0-1.0-0.0-0.35","702","","f","","","","","","","","","","","","","key","f","33.345454545454544","864","536","f","true","img/T_ambi40.png","坏人","image_first",""
"","","","","","html-keyboard-response","280","551713","0.0-13.0-0.0-1.0-0.0-1.35","null","<span style='color:GreenYellow; font-size: 70px;'>正确! </span>","null","","","","","","","","","","","","","","","","","","","","","","","feedback_test"
"","","","","","psychophysics","281","553779","0.0-13.0-0.0-1.0-0.0-0.36","912","","j","","","","","","","","","","","","","key","j","33.32786885245902","864","536","j","true","img/S_ambi40.png","常人","image_first",""
"","","","","","html-keyboard-response","282","554081","0.0-13.0-0.0-1.0-0.0-1.36","null","<span style='color:GreenYellow; font-size: 70px;'>正确! </span>","null","","","","","","","","","","","","","","","","","","","","","","","feedback_test"
"","","","","","psychophysics","283","555879","0.0-13.0-0.0-1.0-0.0-0.37","645","","f","","","","","","","","","","","","","key","f","33.320754716981135","864","536","f","true","img/S_ambi40.png","好人","image_first",""
"","","","","","html-keyboard-response","284","556181","0.0-13.0-0.0-1.0-0.0-1.37","null","<span style='color:GreenYellow; font-size: 70px;'>正确! </span>","null","","","","","","","","","","","","","","","","","","","","","","","feedback_test"
"","","","","","psychophysics","285","558343","0.0-13.0-0.0-1.0-0.0-0.38","1008","","j","","","","","","","","","","","","","key","j","33.34375","864","536","j","true","img/C_ambi40.png","坏人","image_first",""
"","","","","","html-keyboard-response","286","558648","0.0-13.0-0.0-1.0-0.0-1.38","null","<span style='color:GreenYellow; font-size: 70px;'>正确! </span>","null","","","","","","","","","","","","","","","","","","","","","","","feedback_test"
"","","","","","psychophysics","287","560862","0.0-13.0-0.0-1.0-0.0-0.39","1058","","f","","","","","","","","","","","","","key","f","33.34848484848485","864","536","f","true","img/T_ambi40.png","常人","image_first",""
"","","","","","html-keyboard-response","288","561164","0.0-13.0-0.0-1.0-0.0-1.39","null","<span style='color:GreenYellow; font-size: 70px;'>正确! </span>","null","","","","","","","","","","","","","","","","","","","","","","","feedback_test"
"","","","","","psychophysics","289","563561","0.0-13.0-0.0-1.0-0.0-0.40","1243","","j","","","","","","","","","","","","","key","j","33.352112676056336","864","536","j","true","img/T_ambi40.png","好人","image_first",""
"","","","","","html-keyboard-response","290","563864","0.0-13.0-0.0-1.0-0.0-1.40","null","<span style='color:GreenYellow; font-size: 70px;'>正确! </span>","null","","","","","","","","","","","","","","","","","","","","","","","feedback_test"
"","","","","","psychophysics","291","565988","0.0-13.0-0.0-1.0-0.0-0.41","970","","f","","","","","","","","","","","","","key","f","33.33870967741935","864","536","f","true","img/T_ambi40.png","坏人","image_first",""
"","","","","","html-keyboard-response","292","566290","0.0-13.0-0.0-1.0-0.0-1.41","null","<span style='color:GreenYellow; font-size: 70px;'>正确! </span>","null","","","","","","","","","","","","","","","","","","","","","","","feedback_test"
"","","","","","psychophysics","293","568044","0.0-13.0-0.0-1.0-0.0-0.42","598","","j","","","","","","","","","","","","","key","j","33.34615384615385","864","536","j","true","img/S_ambi40.png","常人","image_first",""
"","","","","","html-keyboard-response","294","568346","0.0-13.0-0.0-1.0-0.0-1.42","null","<span style='color:GreenYellow; font-size: 70px;'>正确! </span>","null","","","","","","","","","","","","","","","","","","","","","","","feedback_test"
"","","","","","psychophysics","295","570330","0.0-13.0-0.0-1.0-0.0-0.43","831","","j","","","","","","","","","","","","","key","j","33.355932203389834","864","536","j","true","img/T_ambi40.png","好人","image_first",""
"","","","","","html-keyboard-response","296","570633","0.0-13.0-0.0-1.0-0.0-1.43","null","<span style='color:GreenYellow; font-size: 70px;'>正确! </span>","null","","","","","","","","","","","","","","","","","","","","","","","feedback_test"
"","","","","","psychophysics","297","572862","0.0-13.0-0.0-1.0-0.0-0.44","1076","","f","","","","","","","","","","","","","key","f","33.333333333333336","864","536","f","true","img/C_ambi40.png","常人","image_first",""
"","","","","","html-keyboard-response","298","573165","0.0-13.0-0.0-1.0-0.0-1.44","null","<span style='color:GreenYellow; font-size: 70px;'>正确! </span>","null","","","","","","","","","","","","","","","","","","","","","","","feedback_test"
"","","","","","psychophysics","299","575201","0.0-13.0-0.0-1.0-0.0-0.45","880","","j","","","","","","","","","","","","","key","j","33.33898305084746","864","536","j","true","img/C_ambi40.png","坏人","image_first",""
"","","","","","html-keyboard-response","300","575504","0.0-13.0-0.0-1.0-0.0-1.45","null","<span style='color:GreenYellow; font-size: 70px;'>正确! </span>","null","","","","","","","","","","","","","","","","","","","","","","","feedback_test"
"","","","","","psychophysics","301","577544","0.0-13.0-0.0-1.0-0.0-0.46","885","","f","","","","","","","","","","","","","key","f","33.35","864","536","f","true","img/S_ambi40.png","坏人","image_first",""
"","","","","","html-keyboard-response","302","577846","0.0-13.0-0.0-1.0-0.0-1.46","null","<span style='color:GreenYellow; font-size: 70px;'>正确! </span>","null","","","","","","","","","","","","","","","","","","","","","","","feedback_test"
"","","","","","psychophysics","303","580488","0.0-13.0-0.0-1.0-0.0-0.47","1487","","f","","","","","","","","","","","","","key","f","33.32911392405063","864","536","f","true","img/C_ambi40.png","好人","image_first",""
"","","","","","html-keyboard-response","304","580790","0.0-13.0-0.0-1.0-0.0-1.47","null","<span style='color:GreenYellow; font-size: 70px;'>正确! </span>","null","","","","","","","","","","","","","","","","","","","","","","","feedback_test"
"","","","","","psychophysics","305","582911","0.0-13.0-0.0-1.0-0.0-0.48","965","","f","","","","","","","","","","","","","key","f","33.33870967741935","864","536","f","true","img/C_ambi40.png","常人","image_first",""
"","","","","","html-keyboard-response","306","583213","0.0-13.0-0.0-1.0-0.0-1.48","null","<span style='color:GreenYellow; font-size: 70px;'>正确! </span>","null","","","","","","","","","","","","","","","","","","","","","","","feedback_test"
"","","","","","psychophysics","307","585241","0.0-13.0-0.0-1.0-0.0-0.49","874","","j","","","","","","","","","","","","","key","j","33.35","864","536","j","true","img/C_ambi40.png","坏人","image_first",""
"","","","","","html-keyboard-response","308","585543","0.0-13.0-0.0-1.0-0.0-1.49","null","<span style='color:GreenYellow; font-size: 70px;'>正确! </span>","null","","","","","","","","","","","","","","","","","","","","","","","feedback_test"
"","","","","","psychophysics","309","587531","0.0-13.0-0.0-1.0-0.0-0.50","834","","f","","","","","","","","","","","","","key","f","33.33898305084746","864","536","f","true","img/C_ambi40.png","好人","image_first",""
"","","","","","html-keyboard-response","310","587834","0.0-13.0-0.0-1.0-0.0-1.50","null","<span style='color:GreenYellow; font-size: 70px;'>正确! </span>","null","","","","","","","","","","","","","","","","","","","","","","","feedback_test"
"","","","","","psychophysics","311","589735","0.0-13.0-0.0-1.0-0.0-0.51","748","","f","","","","","","","","","","","","","key","f","33.32727272727273","864","536","f","true","img/T_ambi40.png","常人","image_first",""
"","","","","","html-keyboard-response","312","590040","0.0-13.0-0.0-1.0-0.0-1.51","null","<span style='color:GreenYellow; font-size: 70px;'>正确! </span>","null","","","","","","","","","","","","","","","","","","","","","","","feedback_test"
"","","","","","psychophysics","313","592124","0.0-13.0-0.0-1.0-0.0-0.52","931","","f","","","","","","","","","","","","","key","f","33.32258064516129","864","536","f","true","img/T_ambi40.png","坏人","image_first",""
"","","","","","html-keyboard-response","314","592427","0.0-13.0-0.0-1.0-0.0-1.52","null","<span style='color:GreenYellow; font-size: 70px;'>正确! </span>","null","","","","","","","","","","","","","","","","","","","","","","","feedback_test"
"","","","","","psychophysics","315","594240","0.0-13.0-0.0-1.0-0.0-0.53","659","","j","","","","","","","","","","","","","key","j","33.351851851851855","864","536","j","true","img/C_ambi40.png","坏人","image_first",""
"","","","","","html-keyboard-response","316","594542","0.0-13.0-0.0-1.0-0.0-1.53","null","<span style='color:GreenYellow; font-size: 70px;'>正确! </span>","null","","","","","","","","","","","","","","","","","","","","","","","feedback_test"
"","","","","","psychophysics","317","596593","0.0-13.0-0.0-1.0-0.0-0.54","898","","f","","","","","","","","","","","","","key","f","33.377049180327866","864","536","f","true","img/S_ambi40.png","好人","image_first",""
"","","","","","html-keyboard-response","318","596897","0.0-13.0-0.0-1.0-0.0-1.54","null","<span style='color:GreenYellow; font-size: 70px;'>正确! </span>","null","","","","","","","","","","","","","","","","","","","","","","","feedback_test"
"","","","","","psychophysics","319","598811","0.0-13.0-0.0-1.0-0.0-0.55","760","","j","","","","","","","","","","","","","key","j","33.35087719298246","864","536","j","true","img/S_ambi40.png","常人","image_first",""
"","","","","","html-keyboard-response","320","599114","0.0-13.0-0.0-1.0-0.0-1.55","null","<span style='color:GreenYellow; font-size: 70px;'>正确! </span>","null","","","","","","","","","","","","","","","","","","","","","","","feedback_test"
"","","","","","psychophysics","321","601299","0.0-13.0-0.0-1.0-0.0-0.56","1030","","j","","","","","","","","","","","","","key","j","33.323076923076925","864","536","j","true","img/T_ambi40.png","好人","image_first",""
"","","","","","html-keyboard-response","322","601601","0.0-13.0-0.0-1.0-0.0-1.56","null","<span style='color:GreenYellow; font-size: 70px;'>正确! </span>","null","","","","","","","","","","","","","","","","","","","","","","","feedback_test"
"","","","","","psychophysics","323","603820","0.0-13.0-0.0-1.0-0.0-0.57","1062","","f","","","","","","","","","","","","","key","f","33.34848484848485","864","536","j","false","img/T_ambi40.png","好人","image_first",""
"","","","","","html-keyboard-response","324","604123","0.0-13.0-0.0-1.0-0.0-1.57","null","<span style='color:red; font-size: 70px;'>错误! </span>","null","","","","","","","","","","","","","","","","","","","","","","","feedback_test"
"","","","","","psychophysics","325","606113","0.0-13.0-0.0-1.0-0.0-0.58","837","","j","","","","","","","","","","","","","key","j","33.355932203389834","864","536","f","false","img/S_ambi40.png","坏人","image_first",""
"","","","","","html-keyboard-response","326","606416","0.0-13.0-0.0-1.0-0.0-1.58","null","<span style='color:red; font-size: 70px;'>错误! </span>","null","","","","","","","","","","","","","","","","","","","","","","","feedback_test"
"","","","","","psychophysics","327","608259","0.0-13.0-0.0-1.0-0.0-0.59","691","","j","","","","","","","","","","","","","key","j","33.351851851851855","864","536","j","true","img/S_ambi40.png","常人","image_first",""
"","","","","","html-keyboard-response","328","608561","0.0-13.0-0.0-1.0-0.0-1.59","null","<span style='color:GreenYellow; font-size: 70px;'>正确! </span>","null","","","","","","","","","","","","","","","","","","","","","","","feedback_test"
"","","","","","html-keyboard-response","329","610598","0.0-13.0-0.0-1.0-1.0","2035","<style>.context{color:white; font-size: 35px; line-height:40px}</style>                              <div><p class='context'>您正确回答了83% 的试次。</p><p class='context'>您的平均反应时为925毫秒。</p><p class='context'>请按任意键进入休息</p></div>","j","","","","","","","","","","","","","","","","","","","","","","",""
"","","","","","html-button-response","330","672027","0.0-13.0-0.0-1.0-2.0","61424","
                      <p>您当前还剩余3组实验</p>
                      <p>现在是休息时间，当您结束休息后，您可以点击 结束休息 按钮 继续</p>
                      <p>建议休息时间还剩余<span id=""iii"">60</span>秒</p>","0","","","","","","","","","","","","","","","","","","","","","","",""
"","","","","","psychophysics","331","673931","0.0-13.0-0.0-1.0-0.1-0.60","750","","j","","","","","","","","","","","","","key","j","33.32142857142857","864","536","j","true","img/S_ambi40.png","常人","image_first",""
"","","","","","html-keyboard-response","332","674235","0.0-13.0-0.0-1.0-0.1-1.60","null","<span style='color:GreenYellow; font-size: 70px;'>正确! </span>","null","","","","","","","","","","","","","","","","","","","","","","","feedback_test"
"","","","","","psychophysics","333","676451","0.0-13.0-0.0-1.0-0.1-0.61","1060","","f","","","","","","","","","","","","","key","f","33.36363636363637","864","536","f","true","img/T_ambi40.png","坏人","image_first",""
"","","","","","html-keyboard-response","334","676754","0.0-13.0-0.0-1.0-0.1-1.61","null","<span style='color:GreenYellow; font-size: 70px;'>正确! </span>","null","","","","","","","","","","","","","","","","","","","","","","","feedback_test"
"","","","","","psychophysics","335","678640","0.0-13.0-0.0-1.0-0.1-0.62","732","","j","","","","","","","","","","","","","key","j","33.339285714285715","864","536","j","true","img/S_ambi40.png","常人","image_first",""
"","","","","","html-keyboard-response","336","678943","0.0-13.0-0.0-1.0-0.1-1.62","null","<span style='color:GreenYellow; font-size: 70px;'>正确! </span>","null","","","","","","","","","","","","","","","","","","","","","","","feedback_test"
"","","","","","psychophysics","337","681100","0.0-13.0-0.0-1.0-0.1-0.63","1003","","f","","","","","","","","","","","","","key","f","33.328125","864","536","f","true","img/C_ambi40.png","常人","image_first",""
"","","","","","html-keyboard-response","338","681403","0.0-13.0-0.0-1.0-0.1-1.63","null","<span style='color:GreenYellow; font-size: 70px;'>正确! </span>","null","","","","","","","","","","","","","","","","","","","","","","","feedback_test"
"","","","","","psychophysics","339","683441","0.0-13.0-0.0-1.0-0.1-0.64","884","","j","","","","","","","","","","","","","key","j","33.333333333333336","864","536","j","true","img/C_ambi40.png","坏人","image_first",""
"","","","","","html-keyboard-response","340","683745","0.0-13.0-0.0-1.0-0.1-1.64","null","<span style='color:GreenYellow; font-size: 70px;'>正确! </span>","null","","","","","","","","","","","","","","","","","","","","","","","feedback_test"
"","","","","","psychophysics","341","685842","0.0-13.0-0.0-1.0-0.1-0.65","942","","j","","","","","","","","","","","","","key","j","33.354838709677416","864","536","j","true","img/T_ambi40.png","好人","image_first",""
"","","","","","html-keyboard-response","342","686147","0.0-13.0-0.0-1.0-0.1-1.65","null","<span style='color:GreenYellow; font-size: 70px;'>正确! </span>","null","","","","","","","","","","","","","","","","","","","","","","","feedback_test"
"","","","","","psychophysics","343","688242","0.0-13.0-0.0-1.0-0.1-0.66","940","","f","","","","","","","","","","","","","key","f","33.33870967741935","864","536","f","true","img/C_ambi40.png","好人","image_first",""
"","","","","","html-keyboard-response","344","688544","0.0-13.0-0.0-1.0-0.1-1.66","null","<span style='color:GreenYellow; font-size: 70px;'>正确! </span>","null","","","","","","","","","","","","","","","","","","","","","","","feedback_test"
"","","","","","psychophysics","345","690611","0.0-13.0-0.0-1.0-0.1-0.67","915","","f","","","","","","","","","","","","","key","f","33.34426229508197","864","536","f","true","img/S_ambi40.png","坏人","image_first",""
"","","","","","html-keyboard-response","346","690914","0.0-13.0-0.0-1.0-0.1-1.67","null","<span style='color:GreenYellow; font-size: 70px;'>正确! </span>","null","","","","","","","","","","","","","","","","","","","","","","","feedback_test"
"","","","","","psychophysics","347","692894","0.0-13.0-0.0-1.0-0.1-0.68","825","","f","","","","","","","","","","","","","key","f","33.3448275862069","864","536","f","true","img/S_ambi40.png","好人","image_first",""
"","","","","","html-keyboard-response","348","693199","0.0-13.0-0.0-1.0-0.1-1.68","null","<span style='color:GreenYellow; font-size: 70px;'>正确! </span>","null","","","","","","","","","","","","","","","","","","","","","","","feedback_test"
"","","","","","psychophysics","349","695350","0.0-13.0-0.0-1.0-0.1-0.69","998","","f","","","","","","","","","","","","","key","f","33.359375","864","536","f","true","img/T_ambi40.png","常人","image_first",""
"","","","","","html-keyboard-response","350","695654","0.0-13.0-0.0-1.0-0.1-1.69","null","<span style='color:GreenYellow; font-size: 70px;'>正确! </span>","null","","","","","","","","","","","","","","","","","","","","","","","feedback_test"
"","","","","","psychophysics","351","697933","0.0-13.0-0.0-1.0-0.1-0.70","1125","","j","","","","","","","","","","","","","key","j","33.35294117647059","864","536","j","true","img/C_ambi40.png","坏人","image_first",""
"","","","","","html-keyboard-response","352","698236","0.0-13.0-0.0-1.0-0.1-1.70","null","<span style='color:GreenYellow; font-size: 70px;'>正确! </span>","null","","","","","","","","","","","","","","","","","","","","","","","feedback_test"
"","","","","","psychophysics","353","700639","0.0-13.0-0.0-1.0-0.1-0.71","1249","","f","","","","","","","","","","","","","key","f","33.33802816901409","864","536","j","false","img/T_ambi40.png","好人","image_first",""
"","","","","","html-keyboard-response","354","700942","0.0-13.0-0.0-1.0-0.1-1.71","null","<span style='color:red; font-size: 70px;'>错误! </span>","null","","","","","","","","","","","","","","","","","","","","","","","feedback_test"
"","","","","","psychophysics","355","702911","0.0-13.0-0.0-1.0-0.1-0.72","817","","j","","","","","","","","","","","","","key","j","33.333333333333336","864","536","j","true","img/S_ambi40.png","常人","image_first",""
"","","","","","html-keyboard-response","356","703215","0.0-13.0-0.0-1.0-0.1-1.72","null","<span style='color:GreenYellow; font-size: 70px;'>正确! </span>","null","","","","","","","","","","","","","","","","","","","","","","","feedback_test"
"","","","","","psychophysics","357","705284","0.0-13.0-0.0-1.0-0.1-0.73","913","","f","","","","","","","","","","","","","key","f","33.40983606557377","864","536","f","true","img/T_ambi40.png","坏人","image_first",""
"","","","","","html-keyboard-response","358","705586","0.0-13.0-0.0-1.0-0.1-1.73","null","<span style='color:GreenYellow; font-size: 70px;'>正确! </span>","null","","","","","","","","","","","","","","","","","","","","","","","feedback_test"
"","","","","","psychophysics","359","707622","0.0-13.0-0.0-1.0-0.1-0.74","882","","f","","","","","","","","","","","","","key","f","33.333333333333336","864","536","f","true","img/S_ambi40.png","坏人","image_first",""
"","","","","","html-keyboard-response","360","707924","0.0-13.0-0.0-1.0-0.1-1.74","null","<span style='color:GreenYellow; font-size: 70px;'>正确! </span>","null","","","","","","","","","","","","","","","","","","","","","","","feedback_test"
"","","","","","psychophysics","361","710143","0.0-13.0-0.0-1.0-0.1-0.75","1064","","j","","","","","","","","","","","","","key","j","33.34848484848485","864","536","j","true","img/C_ambi40.png","坏人","image_first",""
"","","","","","html-keyboard-response","362","710446","0.0-13.0-0.0-1.0-0.1-1.75","null","<span style='color:GreenYellow; font-size: 70px;'>正确! </span>","null","","","","","","","","","","","","","","","","","","","","","","","feedback_test"
"","","","","","psychophysics","363","712288","0.0-13.0-0.0-1.0-0.1-0.76","690","","f","","","","","","","","","","","","","key","f","33.345454545454544","864","536","f","true","img/C_ambi40.png","常人","image_first",""
"","","","","","html-keyboard-response","364","712591","0.0-13.0-0.0-1.0-0.1-1.76","null","<span style='color:GreenYellow; font-size: 70px;'>正确! </span>","null","","","","","","","","","","","","","","","","","","","","","","","feedback_test"
"","","","","","psychophysics","365","715181","0.0-13.0-0.0-1.0-0.1-0.77","1438","","j","","","","","","","","","","","","","key","j","33.311688311688314","864","536","f","false","img/C_ambi40.png","好人","image_first",""
"","","","","","html-keyboard-response","366","715483","0.0-13.0-0.0-1.0-0.1-1.77","null","<span style='color:red; font-size: 70px;'>错误! </span>","null","","","","","","","","","","","","","","","","","","","","","","","feedback_test"
"","","","","","psychophysics","367","717581","0.0-13.0-0.0-1.0-0.1-0.78","945","","j","","","","","","","","","","","","","key","j","33.33870967741935","864","536","j","true","img/T_ambi40.png","好人","image_first",""
"","","","","","html-keyboard-response","368","717884","0.0-13.0-0.0-1.0-0.1-1.78","null","<span style='color:GreenYellow; font-size: 70px;'>正确! </span>","null","","","","","","","","","","","","","","","","","","","","","","","feedback_test"
"","","","","","psychophysics","369","719803","0.0-13.0-0.0-1.0-0.1-0.79","766","","j","","","","","","","","","","","","","key","j","33.333333333333336","864","536","j","true","img/T_ambi40.png","好人","image_first",""
"","","","","","html-keyboard-response","370","720107","0.0-13.0-0.0-1.0-0.1-1.79","null","<span style='color:GreenYellow; font-size: 70px;'>正确! </span>","null","","","","","","","","","","","","","","","","","","","","","","","feedback_test"
"","","","","","psychophysics","371","722082","0.0-13.0-0.0-1.0-0.1-0.80","821","","j","","","","","","","","","","","","","key","j","33.33898305084746","864","536","j","true","img/C_ambi40.png","坏人","image_first",""
"","","","","","html-keyboard-response","372","722385","0.0-13.0-0.0-1.0-0.1-1.80","null","<span style='color:GreenYellow; font-size: 70px;'>正确! </span>","null","","","","","","","","","","","","","","","","","","","","","","","feedback_test"
"","","","","","psychophysics","373","724270","0.0-13.0-0.0-1.0-0.1-0.81","728","","j","","","","","","","","","","","","","key","j","33.339285714285715","864","536","j","true","img/S_ambi40.png","常人","image_first",""
"","","","","","html-keyboard-response","374","724572","0.0-13.0-0.0-1.0-0.1-1.81","null","<span style='color:GreenYellow; font-size: 70px;'>正确! </span>","null","","","","","","","","","","","","","","","","","","","","","","","feedback_test"
"","","","","","psychophysics","375","726704","0.0-13.0-0.0-1.0-0.1-0.82","976","","f","","","","","","","","","","","","","key","f","33.317460317460316","864","536","f","true","img/T_ambi40.png","常人","image_first",""
"","","","","","html-keyboard-response","376","727006","0.0-13.0-0.0-1.0-0.1-1.82","null","<span style='color:GreenYellow; font-size: 70px;'>正确! </span>","null","","","","","","","","","","","","","","","","","","","","","","","feedback_test"
"","","","","","psychophysics","377","729284","0.0-13.0-0.0-1.0-0.1-0.83","1124","","f","","","","","","","","","","","","","key","f","33.338235294117645","864","536","f","true","img/S_ambi40.png","好人","image_first",""
"","","","","","html-keyboard-response","378","729587","0.0-13.0-0.0-1.0-0.1-1.83","null","<span style='color:GreenYellow; font-size: 70px;'>正确! </span>","null","","","","","","","","","","","","","","","","","","","","","","","feedback_test"
"","","","","","psychophysics","379","731418","0.0-13.0-0.0-1.0-0.1-0.84","675","","j","","","","","","","","","","","","","key","j","33.333333333333336","864","536","j","true","img/S_ambi40.png","常人","image_first",""
"","","","","","html-keyboard-response","380","731722","0.0-13.0-0.0-1.0-0.1-1.84","null","<span style='color:GreenYellow; font-size: 70px;'>正确! </span>","null","","","","","","","","","","","","","","","","","","","","","","","feedback_test"
"","","","","","psychophysics","381","733751","0.0-13.0-0.0-1.0-0.1-0.85","876","","f","","","","","","","","","","","","","key","f","33.33898305084746","864","536","f","true","img/T_ambi40.png","常人","image_first",""
"","","","","","html-keyboard-response","382","734054","0.0-13.0-0.0-1.0-0.1-1.85","null","<span style='color:GreenYellow; font-size: 70px;'>正确! </span>","null","","","","","","","","","","","","","","","","","","","","","","","feedback_test"
"","","","","","psychophysics","383","736152","0.0-13.0-0.0-1.0-0.1-0.86","946","","j","","","","","","","","","","","","","key","j","33.33870967741935","864","536","j","true","img/C_ambi40.png","坏人","image_first",""
"","","","","","html-keyboard-response","384","736454","0.0-13.0-0.0-1.0-0.1-1.86","null","<span style='color:GreenYellow; font-size: 70px;'>正确! </span>","null","","","","","","","","","","","","","","","","","","","","","","","feedback_test"
"","","","","","psychophysics","385","738435","0.0-13.0-0.0-1.0-0.1-0.87","828","","j","","","","","","","","","","","","","key","j","33.355932203389834","864","536","j","true","img/C_ambi40.png","坏人","image_first",""
"","","","","","html-keyboard-response","386","738739","0.0-13.0-0.0-1.0-0.1-1.87","null","<span style='color:GreenYellow; font-size: 70px;'>正确! </span>","null","","","","","","","","","","","","","","","","","","","","","","","feedback_test"
"","","","","","psychophysics","387","740535","0.0-13.0-0.0-1.0-0.1-0.88","642","","j","","","","","","","","","","","","","key","j","33.39622641509434","864","536","j","true","img/S_ambi40.png","常人","image_first",""
"","","","","","html-keyboard-response","388","740836","0.0-13.0-0.0-1.0-0.1-1.88","null","<span style='color:GreenYellow; font-size: 70px;'>正确! </span>","null","","","","","","","","","","","","","","","","","","","","","","","feedback_test"
"","","","","","psychophysics","389","742904","0.0-13.0-0.0-1.0-0.1-0.89","915","","f","","","","","","","","","","","","","key","f","33.32786885245902","864","536","f","true","img/T_ambi40.png","坏人","image_first",""
"","","","","","html-keyboard-response","390","743208","0.0-13.0-0.0-1.0-0.1-1.89","null","<span style='color:GreenYellow; font-size: 70px;'>正确! </span>","null","","","","","","","","","","","","","","","","","","","","","","","feedback_test"
"","","","","","psychophysics","391","745303","0.0-13.0-0.0-1.0-0.1-0.90","941","","f","","","","","","","","","","","","","key","f","33.32786885245902","864","536","f","true","img/C_ambi40.png","常人","image_first",""
"","","","","","html-keyboard-response","392","745606","0.0-13.0-0.0-1.0-0.1-1.90","null","<span style='color:GreenYellow; font-size: 70px;'>正确! </span>","null","","","","","","","","","","","","","","","","","","","","","","","feedback_test"
"","","","","","psychophysics","393","747731","0.0-13.0-0.0-1.0-0.1-0.91","971","","f","","","","","","","","","","","","","key","f","33.34920634920635","864","536","f","true","img/S_ambi40.png","坏人","image_first",""
"","","","","","html-keyboard-response","394","748034","0.0-13.0-0.0-1.0-0.1-1.91","null","<span style='color:GreenYellow; font-size: 70px;'>正确! </span>","null","","","","","","","","","","","","","","","","","","","","","","","feedback_test"
"","","","","","psychophysics","395","750135","0.0-13.0-0.0-1.0-0.1-0.92","948","","f","","","","","","","","","","","","","key","f","33.33870967741935","864","536","f","true","img/S_ambi40.png","好人","image_first",""
"","","","","","html-keyboard-response","396","750438","0.0-13.0-0.0-1.0-0.1-1.92","null","<span style='color:GreenYellow; font-size: 70px;'>正确! </span>","null","","","","","","","","","","","","","","","","","","","","","","","feedback_test"
"","","","","","psychophysics","397","752622","0.0-13.0-0.0-1.0-0.1-0.93","1029","","f","","","","","","","","","","","","","key","f","33.328125","864","536","f","true","img/C_ambi40.png","好人","image_first",""
"","","","","","html-keyboard-response","398","752929","0.0-13.0-0.0-1.0-0.1-1.93","null","<span style='color:GreenYellow; font-size: 70px;'>正确! </span>","null","","","","","","","","","","","","","","","","","","","","","","","feedback_test"
"","","","","","psychophysics","399","754616","0.0-13.0-0.0-1.0-0.1-0.94","536","","j","","","","","","","","","","","","","key","j","33.34","864","536","j","true","img/T_ambi40.png","好人","image_first",""
"","","","","","html-keyboard-response","400","754919","0.0-13.0-0.0-1.0-0.1-1.94","null","<span style='color:GreenYellow; font-size: 70px;'>正确! </span>","null","","","","","","","","","","","","","","","","","","","","","","","feedback_test"
"","","","","","psychophysics","401","756673","0.0-13.0-0.0-1.0-0.1-0.95","600","","j","","","","","","","","","","","","","key","j","33.32692307692308","864","536","j","true","img/T_ambi40.png","好人","image_first",""
"","","","","","html-keyboard-response","402","756975","0.0-13.0-0.0-1.0-0.1-1.95","null","<span style='color:GreenYellow; font-size: 70px;'>正确! </span>","null","","","","","","","","","","","","","","","","","","","","","","","feedback_test"
"","","","","","psychophysics","403","758850","0.0-13.0-0.0-1.0-0.1-0.96","721","","j","","","","","","","","","","","","","key","j","33.38181818181818","864","536","j","true","img/S_ambi40.png","常人","image_first",""
"","","","","","html-keyboard-response","404","759154","0.0-13.0-0.0-1.0-0.1-1.96","null","<span style='color:GreenYellow; font-size: 70px;'>正确! </span>","null","","","","","","","","","","","","","","","","","","","","","","","feedback_test"
"","","","","","psychophysics","405","760826","0.0-13.0-0.0-1.0-0.1-0.97","518","","j","","","","","","","","","","","","","key","j","33.3469387755102","864","536","j","true","img/S_ambi40.png","常人","image_first",""
"","","","","","html-keyboard-response","406","761130","0.0-13.0-0.0-1.0-0.1-1.97","null","<span style='color:GreenYellow; font-size: 70px;'>正确! </span>","null","","","","","","","","","","","","","","","","","","","","","","","feedback_test"
"","","","","","psychophysics","407","762942","0.0-13.0-0.0-1.0-0.1-0.98","658","","f","","","","","","","","","","","","","key","f","33.351851851851855","864","536","f","true","img/S_ambi40.png","好人","image_first",""
"","","","","","html-keyboard-response","408","763245","0.0-13.0-0.0-1.0-0.1-1.98","null","<span style='color:GreenYellow; font-size: 70px;'>正确! </span>","null","","","","","","","","","","","","","","","","","","","","","","","feedback_test"
"","","","","","psychophysics","409","765524","0.0-13.0-0.0-1.0-0.1-0.99","1123","","f","","","","","","","","","","","","","key","f","33.35294117647059","864","536","f","true","img/T_ambi40.png","常人","image_first",""
"","","","","","html-keyboard-response","410","765826","0.0-13.0-0.0-1.0-0.1-1.99","null","<span style='color:GreenYellow; font-size: 70px;'>正确! </span>","null","","","","","","","","","","","","","","","","","","","","","","","feedback_test"
"","","","","","psychophysics","411","768013","0.0-13.0-0.0-1.0-0.1-0.100","1035","","j","","","","","","","","","","","","","key","j","33.323076923076925","864","536","j","true","img/C_ambi40.png","坏人","image_first",""
"","","","","","html-keyboard-response","412","768315","0.0-13.0-0.0-1.0-0.1-1.100","null","<span style='color:GreenYellow; font-size: 70px;'>正确! </span>","null","","","","","","","","","","","","","","","","","","","","","","","feedback_test"
"","","","","","psychophysics","413","770624","0.0-13.0-0.0-1.0-0.1-0.101","1156","","f","","","","","","","","","","","","","key","f","33.3768115942029","864","536","f","true","img/S_ambi40.png","坏人","image_first",""
"","","","","","html-keyboard-response","414","770926","0.0-13.0-0.0-1.0-0.1-1.101","null","<span style='color:GreenYellow; font-size: 70px;'>正确! </span>","null","","","","","","","","","","","","","","","","","","","","","","","feedback_test"
"","","","","","psychophysics","415","773369","0.0-13.0-0.0-1.0-0.1-0.102","1290","","f","","","","","","","","","","","","","key","f","33.361111111111114","864","536","f","true","img/C_ambi40.png","好人","image_first",""
"","","","","","html-keyboard-response","416","773672","0.0-13.0-0.0-1.0-0.1-1.102","null","<span style='color:GreenYellow; font-size: 70px;'>正确! </span>","null","","","","","","","","","","","","","","","","","","","","","","","feedback_test"
"","","","","","psychophysics","417","775813","0.0-13.0-0.0-1.0-0.1-0.103","987","","j","","","","","","","","","","","","","key","j","33.317460317460316","864","536","j","true","img/C_ambi40.png","坏人","image_first",""
"","","","","","html-keyboard-response","418","776115","0.0-13.0-0.0-1.0-0.1-1.103","null","<span style='color:GreenYellow; font-size: 70px;'>正确! </span>","null","","","","","","","","","","","","","","","","","","","","","","","feedback_test"
"","","","","","psychophysics","419","778544","0.0-13.0-0.0-1.0-0.1-0.104","1274","","f","","","","","","","","","","","","","key","f","33.333333333333336","864","536","f","true","img/T_ambi40.png","坏人","image_first",""
"","","","","","html-keyboard-response","420","778847","0.0-13.0-0.0-1.0-0.1-1.104","null","<span style='color:GreenYellow; font-size: 70px;'>正确! </span>","null","","","","","","","","","","","","","","","","","","","","","","","feedback_test"
"","","","","","psychophysics","421","780734","0.0-13.0-0.0-1.0-0.1-0.105","733","","j","","","","","","","","","","","","","key","j","33.32727272727273","864","536","j","true","img/T_ambi40.png","好人","image_first",""
"","","","","","html-keyboard-response","422","781038","0.0-13.0-0.0-1.0-0.1-1.105","null","<span style='color:GreenYellow; font-size: 70px;'>正确! </span>","null","","","","","","","","","","","","","","","","","","","","","","","feedback_test"
"","","","","","psychophysics","423","783312","0.0-13.0-0.0-1.0-0.1-0.106","1119","","f","","","","","","","","","","","","","key","f","33.343283582089555","864","536","f","true","img/C_ambi40.png","常人","image_first",""
"","","","","","html-keyboard-response","424","783614","0.0-13.0-0.0-1.0-0.1-1.106","null","<span style='color:GreenYellow; font-size: 70px;'>正确! </span>","null","","","","","","","","","","","","","","","","","","","","","","","feedback_test"
"","","","","","psychophysics","425","785504","0.0-13.0-0.0-1.0-0.1-0.107","737","","j","","","","","","","","","","","","","key","j","33.339285714285715","864","536","j","true","img/T_ambi40.png","好人","image_first",""
"","","","","","html-keyboard-response","426","785808","0.0-13.0-0.0-1.0-0.1-1.107","null","<span style='color:GreenYellow; font-size: 70px;'>正确! </span>","null","","","","","","","","","","","","","","","","","","","","","","","feedback_test"
"","","","","","psychophysics","427","787455","0.0-13.0-0.0-1.0-0.1-0.108","493","","j","","","","","","","","","","","","","key","j","33.333333333333336","864","536","j","true","img/S_ambi40.png","常人","image_first",""
"","","","","","html-keyboard-response","428","787757","0.0-13.0-0.0-1.0-0.1-1.108","null","<span style='color:GreenYellow; font-size: 70px;'>正确! </span>","null","","","","","","","","","","","","","","","","","","","","","","","feedback_test"
"","","","","","psychophysics","429","789768","0.0-13.0-0.0-1.0-0.1-0.109","858","","f","","","","","","","","","","","","","key","f","33.38333333333333","864","536","f","true","img/C_ambi40.png","常人","image_first",""
"","","","","","html-keyboard-response","430","790069","0.0-13.0-0.0-1.0-0.1-1.109","null","<span style='color:GreenYellow; font-size: 70px;'>正确! </span>","null","","","","","","","","","","","","","","","","","","","","","","","feedback_test"
"","","","","","psychophysics","431","792043","0.0-13.0-0.0-1.0-0.1-0.110","820","","f","","","","","","","","","","","","","key","f","33.3448275862069","864","536","f","true","img/S_ambi40.png","坏人","image_first",""
"","","","","","html-keyboard-response","432","792345","0.0-13.0-0.0-1.0-0.1-1.110","null","<span style='color:GreenYellow; font-size: 70px;'>正确! </span>","null","","","","","","","","","","","","","","","","","","","","","","","feedback_test"
"","","","","","psychophysics","433","794324","0.0-13.0-0.0-1.0-0.1-0.111","826","","j","","","","","","","","","","","","","key","j","33.33898305084746","864","536","j","true","img/S_ambi40.png","常人","image_first",""
"","","","","","html-keyboard-response","434","794627","0.0-13.0-0.0-1.0-0.1-1.111","null","<span style='color:GreenYellow; font-size: 70px;'>正确! </span>","null","","","","","","","","","","","","","","","","","","","","","","","feedback_test"
