"success","timeout","failed_images","failed_audio","failed_video","trial_type","trial_index","time_elapsed","internal_node_id","rt","stimulus","response","value","item_width_mm","item_height_mm","item_width_px","px2mm","view_dist_mm","item_width_deg","px2deg","scale_factor","win_width_deg","win_height_deg","view_history","response_type","key_press","avg_frame_time","center_x","center_y","correct_response","correct","Image","word","condition","screen_id"
"true","false","[]","[]","[]","preload","0","6311","0.0-0.0","","","","","","","","","","","","","","","","","","","","","","","","","",""
"","","","","","html-keyboard-response","1","83046","0.0-1.0","76733","
     <p>您好，欢迎参加本次实验。</p>
     <p>为充分保障您的权利，请确保您已经知晓并同意《参与实验同意书》以及《数据公开知情同意书》。</p>
     <p>如果您未见过上述内容，请咨询实验员。</p>
     <p>如果您选择继续实验，则表示您已经清楚两份知情同意书的内容并同意。</p>
     <p> <div style = ""color: green""><按任意键至下页></div> </p>
     ","f","","","","","","","","","","","","","","","","","","","","","","",""
"","","","","","html-keyboard-response","2","84497","0.0-2.0","1450","
     <p>本实验首先需要您填写一些基本个人信息。</p>
     <p> <div style = ""color: green""><按任意键至下页></div></p>
     ","f","","","","","","","","","","","","","","","","","","","","","","",""
"","","","","","call-function","3","84499","0.0-3.0-0.0","","","","","","","","","","","","","","","","","","","","","","","","","",""
"","","","","","survey-html-form","4","91570","0.0-3.0-1.0","7066","","{""Q0"":""15""}","","","","","","","","","","","","","","","","","","","","","","",""
"","","","","","html-button-response","5","92785","0.0-3.0-2.0","1212","<p style = 'color : white'>您的性别</p>","1","","","","","","","","","","","","","","","","","","","","","","",""
"","","","","","survey-html-form","6","101785","0.0-3.0-3.0","8996","","{""Q0"":""2003""}","","","","","","","","","","","","","","","","","","","","","","",""
"","","","","","survey-html-form","7","105369","0.0-3.0-4.0","3580","","{""Q0"":""5""}","","","","","","","","","","","","","","","","","","","","","","",""
"","","","","","virtual-chinrest","8","188930","0.0-4.0","83558","","","","85.6","53.98","472.4360885098183","5.523684570203179","517.89","9.448721770196366","50","0.8382086162153343","26.52","13","","","","","","","","","","","",""
"true","","","","","fullscreen","9","192908","0.0-5.0","","","","","","","","","","","","","","","","","","","","","","","","","",""
"","","","","","instructions","10","267008","0.0-6.0","74100","","","","","","","","","","","","","","[{""page_index"":0,""viewing_time"":2723},{""page_index"":1,""viewing_time"":60655},{""page_index"":2,""viewing_time"":6483},{""page_index"":3,""viewing_time"":4237}]","","","","","","","","","","",""
"","","","","","psychophysics","11","269436","0.0-7.0-0.0-0.0","1262","","f","","","","","","","","","","","","","key","f","17.793687022900748","682","379","f","true","img/C_ambi40.png","好人","prac_image_first",""
"","","","","","html-keyboard-response","12","269739","0.0-7.0-0.0-1.0","null","<span style='color:GreenYellow; font-size: 70px;'>正确! </span>","null","","","","","","","","","","","","","","","","","","","","","","","feedback_test"
"","","","","","psychophysics","13","271867","0.0-7.0-0.0-0.1","973","","j","","","","","","","","","","","","","key","j","16.649669354838778","682","379","f","false","img/C_ambi40.png","坏人","prac_image_first",""
"","","","","","html-keyboard-response","14","272173","0.0-7.0-0.0-1.1","null","<span style='color:red; font-size: 70px;'>错误! </span>","null","","","","","","","","","","","","","","","","","","","","","","","feedback_test"
"","","","","","psychophysics","15","274452","0.0-7.0-0.0-0.2","1125","","f","","","","","","","","","","","","","key","f","16.65217037037041","682","379","f","true","img/T_ambi40.png","坏人","prac_image_first",""
"","","","","","html-keyboard-response","16","274763","0.0-7.0-0.0-1.2","null","<span style='color:GreenYellow; font-size: 70px;'>正确! </span>","null","","","","","","","","","","","","","","","","","","","","","","","feedback_test"
"","","","","","psychophysics","17","277064","0.0-7.0-0.0-0.3","1148","","j","","","","","","","","","","","","","key","j","16.650352941176287","682","379","j","true","img/S_ambi40.png","坏人","prac_image_first",""
"","","","","","html-keyboard-response","18","277381","0.0-7.0-0.0-1.3","null","<span style='color:GreenYellow; font-size: 70px;'>正确! </span>","null","","","","","","","","","","","","","","","","","","","","","","","feedback_test"
"","","","","","psychophysics","19","279862","0.0-7.0-0.0-0.4","1321","","j","","","","","","","","","","","","","key","j","16.88344827586191","682","379","j","true","img/T_ambi40.png","好人","prac_image_first",""
"","","","","","html-keyboard-response","20","280179","0.0-7.0-0.0-1.4","null","<span style='color:GreenYellow; font-size: 70px;'>正确! </span>","null","","","","","","","","","","","","","","","","","","","","","","","feedback_test"
"","","","","","psychophysics","21","282080","0.0-7.0-0.0-0.5","714","","j","","","","","","","","","","","","","key","j","16.958324074074174","682","379","j","true","img/C_ambi40.png","常人","prac_image_first",""
"","","","","","html-keyboard-response","22","282388","0.0-7.0-0.0-1.5","null","<span style='color:GreenYellow; font-size: 70px;'>正确! </span>","null","","","","","","","","","","","","","","","","","","","","","","","feedback_test"
"","","","","","psychophysics","23","284830","0.0-7.0-0.0-0.6","1284","","j","","","","","","","","","","","","","key","j","16.77276223776227","682","379","j","true","img/T_ambi40.png","好人","prac_image_first",""
"","","","","","html-keyboard-response","24","285149","0.0-7.0-0.0-1.6","null","<span style='color:GreenYellow; font-size: 70px;'>正确! </span>","null","","","","","","","","","","","","","","","","","","","","","","","feedback_test"
"","","","","","psychophysics","25","287114","0.0-7.0-0.0-0.7","813","","f","","","","","","","","","","","","","key","f","16.79073275862049","682","379","f","true","img/T_ambi40.png","常人","prac_image_first",""
"","","","","","html-keyboard-response","26","287431","0.0-7.0-0.0-1.7","null","<span style='color:GreenYellow; font-size: 70px;'>正确! </span>","null","","","","","","","","","","","","","","","","","","","","","","","feedback_test"
"","","","","","psychophysics","27","289832","0.0-7.0-0.0-0.8","1249","","f","","","","","","","","","","","","","key","f","16.65046153846156","682","379","f","true","img/S_ambi40.png","好人","prac_image_first",""
"","","","","","html-keyboard-response","28","290144","0.0-7.0-0.0-1.8","null","<span style='color:GreenYellow; font-size: 70px;'>正确! </span>","null","","","","","","","","","","","","","","","","","","","","","","","feedback_test"
"","","","","","psychophysics","29","292371","0.0-7.0-0.0-0.9","1072","","j","","","","","","","","","","","","","key","j","16.77998461538451","682","379","f","false","img/S_ambi40.png","常人","prac_image_first",""
"","","","","","html-keyboard-response","30","292691","0.0-7.0-0.0-1.9","null","<span style='color:red; font-size: 70px;'>错误! </span>","null","","","","","","","","","","","","","","","","","","","","","","","feedback_test"
"","","","","","psychophysics","31","294821","0.0-7.0-0.0-0.10","969","","j","","","","","","","","","","","","","key","j","16.92044715447128","682","379","j","true","img/S_ambi40.png","坏人","prac_image_first",""
"","","","","","html-keyboard-response","32","295124","0.0-7.0-0.0-1.10","null","<span style='color:GreenYellow; font-size: 70px;'>正确! </span>","null","","","","","","","","","","","","","","","","","","","","","","","feedback_test"
"","","","","","psychophysics","33","296993","0.0-7.0-0.0-0.11","715","","j","","","","","","","","","","","","","key","j","16.65071171171164","682","379","j","true","img/C_ambi40.png","常人","prac_image_first",""
"","","","","","html-keyboard-response","34","297304","0.0-7.0-0.0-1.11","null","<span style='color:GreenYellow; font-size: 70px;'>正确! </span>","null","","","","","","","","","","","","","","","","","","","","","","","feedback_test"
"","","","","","psychophysics","35","299674","0.0-7.0-0.0-0.12","1215","","j","","","","","","","","","","","","","key","j","16.650794326241048","682","379","j","true","img/S_ambi40.png","坏人","prac_image_first",""
"","","","","","html-keyboard-response","36","299983","0.0-7.0-0.0-1.12","null","<span style='color:GreenYellow; font-size: 70px;'>正确! </span>","null","","","","","","","","","","","","","","","","","","","","","","","feedback_test"
"","","","","","psychophysics","37","301953","0.0-7.0-0.0-0.13","817","","j","","","","","","","","","","","","","key","j","16.64906896551738","682","379","j","true","img/T_ambi40.png","好人","prac_image_first",""
"","","","","","html-keyboard-response","38","302266","0.0-7.0-0.0-1.13","null","<span style='color:GreenYellow; font-size: 70px;'>正确! </span>","null","","","","","","","","","","","","","","","","","","","","","","","feedback_test"
"","","","","","psychophysics","39","304209","0.0-7.0-0.0-0.14","790","","j","","","","","","","","","","","","","key","j","16.79778070175426","682","379","j","true","img/C_ambi40.png","常人","prac_image_first",""
"","","","","","html-keyboard-response","40","304513","0.0-7.0-0.0-1.14","null","<span style='color:GreenYellow; font-size: 70px;'>正确! </span>","null","","","","","","","","","","","","","","","","","","","","","","","feedback_test"
"","","","","","psychophysics","41","306745","0.0-7.0-0.0-0.15","1070","","f","","","","","","","","","","","","","key","f","16.65009090909073","682","379","f","true","img/C_ambi40.png","好人","prac_image_first",""
"","","","","","html-keyboard-response","42","307057","0.0-7.0-0.0-1.15","null","<span style='color:GreenYellow; font-size: 70px;'>正确! </span>","null","","","","","","","","","","","","","","","","","","","","","","","feedback_test"
"","","","","","psychophysics","43","309208","0.0-7.0-0.0-0.16","998","","j","","","","","","","","","","","","","key","j","16.648133858267446","682","379","j","true","img/S_ambi40.png","坏人","prac_image_first",""
"","","","","","html-keyboard-response","44","309513","0.0-7.0-0.0-1.16","null","<span style='color:GreenYellow; font-size: 70px;'>正确! </span>","null","","","","","","","","","","","","","","","","","","","","","","","feedback_test"
"","","","","","psychophysics","45","311480","0.0-7.0-0.0-0.17","814","","f","","","","","","","","","","","","","key","f","16.65097413793134","682","379","f","true","img/S_ambi40.png","好人","prac_image_first",""
"","","","","","html-keyboard-response","46","311790","0.0-7.0-0.0-1.17","null","<span style='color:GreenYellow; font-size: 70px;'>正确! </span>","null","","","","","","","","","","","","","","","","","","","","","","","feedback_test"
"","","","","","psychophysics","47","314089","0.0-7.0-0.0-0.18","1144","","f","","","","","","","","","","","","","key","f","16.64945588235295","682","379","f","true","img/S_ambi40.png","常人","prac_image_first",""
"","","","","","html-keyboard-response","48","314406","0.0-7.0-0.0-1.18","null","<span style='color:GreenYellow; font-size: 70px;'>正确! </span>","null","","","","","","","","","","","","","","","","","","","","","","","feedback_test"
"","","","","","psychophysics","49","316443","0.0-7.0-0.0-0.19","883","","f","","","","","","","","","","","","","key","f","16.78778333333321","682","379","f","true","img/T_ambi40.png","常人","prac_image_first",""
"","","","","","html-keyboard-response","50","316746","0.0-7.0-0.0-1.19","null","<span style='color:GreenYellow; font-size: 70px;'>正确! </span>","null","","","","","","","","","","","","","","","","","","","","","","","feedback_test"
"","","","","","psychophysics","51","319010","0.0-7.0-0.0-0.20","1111","","j","","","","","","","","","","","","","key","j","16.65091044776126","682","379","j","true","img/C_ambi40.png","常人","prac_image_first",""
"","","","","","html-keyboard-response","52","319327","0.0-7.0-0.0-1.20","null","<span style='color:GreenYellow; font-size: 70px;'>正确! </span>","null","","","","","","","","","","","","","","","","","","","","","","","feedback_test"
"","","","","","psychophysics","53","321470","0.0-7.0-0.0-0.21","988","","f","","","","","","","","","","","","","key","f","16.65042519685079","682","379","f","true","img/C_ambi40.png","坏人","prac_image_first",""
"","","","","","html-keyboard-response","54","321781","0.0-7.0-0.0-1.21","null","<span style='color:GreenYellow; font-size: 70px;'>正确! </span>","null","","","","","","","","","","","","","","","","","","","","","","","feedback_test"
"","","","","","psychophysics","55","324031","0.0-7.0-0.0-0.22","1089","","j","","","","","","","","","","","","","key","j","16.64534090909089","682","379","f","false","img/T_ambi40.png","坏人","prac_image_first",""
"","","","","","html-keyboard-response","56","324343","0.0-7.0-0.0-1.22","null","<span style='color:red; font-size: 70px;'>错误! </span>","null","","","","","","","","","","","","","","","","","","","","","","","feedback_test"
"","","","","","psychophysics","57","326464","0.0-7.0-0.0-0.23","957","","j","","","","","","","","","","","","","key","j","16.651379032258127","682","379","j","true","img/T_ambi40.png","好人","prac_image_first",""
"","","","","","html-keyboard-response","58","326773","0.0-7.0-0.0-1.23","null","<span style='color:GreenYellow; font-size: 70px;'>正确! </span>","null","","","","","","","","","","","","","","","","","","","","","","","feedback_test"
"","","","","","html-keyboard-response","59","330811","0.0-8.0","4033","<style>.context{color:white; font-size: 35px; line-height:40px}</style>                              <div><p class='context'>您正确回答了88% 的试次。</p><p class='context'>您的平均反应时为1018毫秒。</p><p class='context'>恭喜您完成这一阶段的练习。按任意键进入<span style='color: yellow;'>先文字后图形条件</span>的练习。</p></div>","j","","","","","","","","","","","","","","","","","","","","","","",""
"","","","","","psychophysics","60","332774","0.0-9.0-0.0-0.0","803","","j","","","","","","","","","","","","","key","j","16.792121739130284","682","379","f","false","img/T_ambi40.png","坏人","prac_word_first",""
"","","","","","html-keyboard-response","61","333079","0.0-9.0-0.0-1.0","null","<span style='color:red; font-size: 70px;'>错误! </span>","null","","","","","","","","","","","","","","","","","","","","","","","feedback_test"
"","","","","","psychophysics","62","334954","0.0-9.0-0.0-0.1","722","","j","","","","","","","","","","","","","key","j","16.800436363636454","682","379","j","true","img/T_ambi40.png","好人","prac_word_first",""
"","","","","","html-keyboard-response","63","335271","0.0-9.0-0.0-1.1","null","<span style='color:GreenYellow; font-size: 70px;'>正确! </span>","null","","","","","","","","","","","","","","","","","","","","","","","feedback_test"
"","","","","","psychophysics","64","337139","0.0-9.0-0.0-0.2","706","","j","","","","","","","","","","","","","key","j","16.650245454545473","682","379","f","false","img/S_ambi40.png","常人","prac_word_first",""
"","","","","","html-keyboard-response","65","337457","0.0-9.0-0.0-1.2","null","<span style='color:red; font-size: 70px;'>错误! </span>","null","","","","","","","","","","","","","","","","","","","","","","","feedback_test"
"","","","","","psychophysics","66","339304","0.0-9.0-0.0-0.3","694","","j","","","","","","","","","","","","","key","j","16.650592592592822","682","379","j","true","img/T_ambi40.png","好人","prac_word_first",""
"","","","","","html-keyboard-response","67","339618","0.0-9.0-0.0-1.3","null","<span style='color:GreenYellow; font-size: 70px;'>正确! </span>","null","","","","","","","","","","","","","","","","","","","","","","","feedback_test"
"","","","","","psychophysics","68","341564","0.0-9.0-0.0-0.4","794","","f","","","","","","","","","","","","","key","f","16.648808695652278","682","379","f","true","img/C_ambi40.png","好人","prac_word_first",""
"","","","","","html-keyboard-response","69","341879","0.0-9.0-0.0-1.4","null","<span style='color:GreenYellow; font-size: 70px;'>正确! </span>","null","","","","","","","","","","","","","","","","","","","","","","","feedback_test"
"","","","","","psychophysics","70","343844","0.0-9.0-0.0-0.5","814","","j","","","","","","","","","","","","","key","j","16.650726495726577","682","379","j","true","img/S_ambi40.png","坏人","prac_word_first",""
"","","","","","html-keyboard-response","71","344148","0.0-9.0-0.0-1.5","null","<span style='color:GreenYellow; font-size: 70px;'>正确! </span>","null","","","","","","","","","","","","","","","","","","","","","","","feedback_test"
"","","","","","psychophysics","72","345960","0.0-9.0-0.0-0.6","660","","f","","","","","","","","","","","","","key","f","16.65138317756986","682","379","f","true","img/C_ambi40.png","坏人","prac_word_first",""
"","","","","","html-keyboard-response","73","346271","0.0-9.0-0.0-1.6","null","<span style='color:GreenYellow; font-size: 70px;'>正确! </span>","null","","","","","","","","","","","","","","","","","","","","","","","feedback_test"
"","","","","","psychophysics","74","348615","0.0-9.0-0.0-0.7","1191","","f","","","","","","","","","","","","","key","f","16.65117266187076","682","379","f","true","img/T_ambi40.png","常人","prac_word_first",""
"","","","","","html-keyboard-response","75","348934","0.0-9.0-0.0-1.7","null","<span style='color:GreenYellow; font-size: 70px;'>正确! </span>","null","","","","","","","","","","","","","","","","","","","","","","","feedback_test"
"","","","","","psychophysics","76","351001","0.0-9.0-0.0-0.8","909","","f","","","","","","","","","","","","","key","f","16.78924999999969","682","379","f","true","img/S_ambi40.png","好人","prac_word_first",""
"","","","","","html-keyboard-response","77","351319","0.0-9.0-0.0-1.8","null","<span style='color:GreenYellow; font-size: 70px;'>正确! </span>","null","","","","","","","","","","","","","","","","","","","","","","","feedback_test"
"","","","","","psychophysics","78","353923","0.0-9.0-0.0-0.9","1450","","j","","","","","","","","","","","","","key","j","16.650740259740495","682","379","j","true","img/C_ambi40.png","常人","prac_word_first",""
"","","","","","html-keyboard-response","79","354230","0.0-9.0-0.0-1.9","null","<span style='color:GreenYellow; font-size: 70px;'>正确! </span>","null","","","","","","","","","","","","","","","","","","","","","","","feedback_test"
"","","","","","psychophysics","80","356164","0.0-9.0-0.0-0.10","781","","f","","","","","","","","","","","","","key","f","16.796385964912286","682","379","j","false","img/S_ambi40.png","坏人","prac_word_first",""
"","","","","","html-keyboard-response","81","356480","0.0-9.0-0.0-1.10","null","<span style='color:red; font-size: 70px;'>错误! </span>","null","","","","","","","","","","","","","","","","","","","","","","","feedback_test"
"","","","","","psychophysics","82","358353","0.0-9.0-0.0-0.11","713","","j","","","","","","","","","","","","","key","j","16.651063636363887","682","379","j","true","img/C_ambi40.png","常人","prac_word_first",""
"","","","","","html-keyboard-response","83","358668","0.0-9.0-0.0-1.11","null","<span style='color:GreenYellow; font-size: 70px;'>正确! </span>","null","","","","","","","","","","","","","","","","","","","","","","","feedback_test"
"","","","","","psychophysics","84","361183","0.0-9.0-0.0-0.12","1359","","j","","","","","","","","","","","","","key","j","16.650442953020313","682","379","f","false","img/T_ambi40.png","坏人","prac_word_first",""
"","","","","","html-keyboard-response","85","361498","0.0-9.0-0.0-1.12","null","<span style='color:red; font-size: 70px;'>错误! </span>","null","","","","","","","","","","","","","","","","","","","","","","","feedback_test"
"","","","","","psychophysics","86","363577","0.0-9.0-0.0-0.13","922","","f","","","","","","","","","","","","","key","f","16.787155737704882","682","379","f","true","img/C_ambi40.png","坏人","prac_word_first",""
"","","","","","html-keyboard-response","87","363888","0.0-9.0-0.0-1.13","null","<span style='color:GreenYellow; font-size: 70px;'>正确! </span>","null","","","","","","","","","","","","","","","","","","","","","","","feedback_test"
"","","","","","psychophysics","88","366325","0.0-9.0-0.0-0.14","1280","","f","","","","","","","","","","","","","key","f","16.65164583333333","682","379","j","false","img/S_ambi40.png","坏人","prac_word_first",""
"","","","","","html-keyboard-response","89","366643","0.0-9.0-0.0-1.14","null","<span style='color:red; font-size: 70px;'>错误! </span>","null","","","","","","","","","","","","","","","","","","","","","","","feedback_test"
"","","","","","psychophysics","90","368549","0.0-9.0-0.0-0.15","735","","j","","","","","","","","","","","","","key","j","16.650178571428633","682","379","j","true","img/T_ambi40.png","好人","prac_word_first",""
"","","","","","html-keyboard-response","91","368863","0.0-9.0-0.0-1.15","null","<span style='color:GreenYellow; font-size: 70px;'>正确! </span>","null","","","","","","","","","","","","","","","","","","","","","","","feedback_test"
"","","","","","psychophysics","92","371423","0.0-9.0-0.0-0.16","1407","","f","","","","","","","","","","","","","key","f","16.650947368421168","682","379","f","true","img/C_ambi40.png","好人","prac_word_first",""
"","","","","","html-keyboard-response","93","371733","0.0-9.0-0.0-1.16","null","<span style='color:GreenYellow; font-size: 70px;'>正确! </span>","null","","","","","","","","","","","","","","","","","","","","","","","feedback_test"
"","","","","","psychophysics","94","373814","0.0-9.0-0.0-0.17","926","","j","","","","","","","","","","","","","key","j","16.785943089430674","682","379","j","true","img/C_ambi40.png","常人","prac_word_first",""
"","","","","","html-keyboard-response","95","374129","0.0-9.0-0.0-1.17","null","<span style='color:GreenYellow; font-size: 70px;'>正确! </span>","null","","","","","","","","","","","","","","","","","","","","","","","feedback_test"
"","","","","","psychophysics","96","376066","0.0-9.0-0.0-0.18","782","","f","","","","","","","","","","","","","key","f","16.64413043478271","682","379","f","true","img/S_ambi40.png","常人","prac_word_first",""
"","","","","","html-keyboard-response","97","376383","0.0-9.0-0.0-1.18","null","<span style='color:GreenYellow; font-size: 70px;'>正确! </span>","null","","","","","","","","","","","","","","","","","","","","","","","feedback_test"
"","","","","","psychophysics","98","378531","0.0-9.0-0.0-0.19","989","","j","","","","","","","","","","","","","key","j","16.646535433071215","682","379","f","false","img/S_ambi40.png","好人","prac_word_first",""
"","","","","","html-keyboard-response","99","378843","0.0-9.0-0.0-1.19","null","<span style='color:red; font-size: 70px;'>错误! </span>","null","","","","","","","","","","","","","","","","","","","","","","","feedback_test"
"","","","","","psychophysics","100","380858","0.0-9.0-0.0-0.20","862","","j","","","","","","","","","","","","","key","j","16.647299999999813","682","379","j","true","img/S_ambi40.png","坏人","prac_word_first",""
"","","","","","html-keyboard-response","101","381170","0.0-9.0-0.0-1.20","null","<span style='color:GreenYellow; font-size: 70px;'>正确! </span>","null","","","","","","","","","","","","","","","","","","","","","","","feedback_test"
"","","","","","psychophysics","102","383087","0.0-9.0-0.0-0.21","758","","j","","","","","","","","","","","","","key","j","16.648814159291963","682","379","j","true","img/C_ambi40.png","常人","prac_word_first",""
"","","","","","html-keyboard-response","103","383403","0.0-9.0-0.0-1.21","null","<span style='color:GreenYellow; font-size: 70px;'>正确! </span>","null","","","","","","","","","","","","","","","","","","","","","","","feedback_test"
"","","","","","psychophysics","104","385566","0.0-9.0-0.0-0.22","1004","","j","","","","","","","","","","","","","key","j","16.7807322834645","682","379","j","true","img/T_ambi40.png","好人","prac_word_first",""
"","","","","","html-keyboard-response","105","385889","0.0-9.0-0.0-1.22","null","<span style='color:GreenYellow; font-size: 70px;'>正确! </span>","null","","","","","","","","","","","","","","","","","","","","","","","feedback_test"
"","","","","","psychophysics","106","387909","0.0-9.0-0.0-0.23","864","","f","","","","","","","","","","","","","key","f","16.646576271186213","682","379","f","true","img/T_ambi40.png","常人","prac_word_first",""
"","","","","","html-keyboard-response","107","388213","0.0-9.0-0.0-1.23","null","<span style='color:GreenYellow; font-size: 70px;'>正确! </span>","null","","","","","","","","","","","","","","","","","","","","","","","feedback_test"
"","","","","","html-keyboard-response","108","392260","0.0-10.0","4041","<style>.context{color:white; font-size: 35px; line-height:40px}</style>                              <div><p class='context'>您正确回答了75% 的试次。</p><p class='context'>您的平均反应时为900毫秒。</p><p class='context'>恭喜您完成练习。按任意键进入<span style='color: yellow;'>图形和文字同时呈现条件</span>的练习。</p></div>","m","","","","","","","","","","","","","","","","","","","","","","",""
"","","","","","psychophysics","109","394380","0.0-11.0-0.0-0.0","1110","","j","","","","","","","","","","","","","key","j","16.65134400000004","682","379","j","true","img/S_ambi40.png","坏人","prac_simultaneous",""
"","","","","","html-keyboard-response","110","394689","0.0-11.0-0.0-1.0","null","<span style='color:GreenYellow; font-size: 70px;'>正确! </span>","null","","","","","","","","","","","","","","","","","","","","","","","feedback_test"
"","","","","","psychophysics","111","396851","0.0-11.0-0.0-0.1","1158","","f","","","","","","","","","","","","","key","f","16.78169291338601","682","379","f","true","img/C_ambi40.png","好人","prac_simultaneous",""
"","","","","","html-keyboard-response","112","397165","0.0-11.0-0.0-1.1","null","<span style='color:GreenYellow; font-size: 70px;'>正确! </span>","null","","","","","","","","","","","","","","","","","","","","","","","feedback_test"
"","","","","","psychophysics","113","399145","0.0-11.0-0.0-0.2","978","","f","","","","","","","","","","","","","key","f","16.650367521367464","682","379","f","true","img/T_ambi40.png","常人","prac_simultaneous",""
"","","","","","html-keyboard-response","114","399449","0.0-11.0-0.0-1.2","null","<span style='color:GreenYellow; font-size: 70px;'>正确! </span>","null","","","","","","","","","","","","","","","","","","","","","","","feedback_test"
"","","","","","psychophysics","115","401954","0.0-11.0-0.0-0.3","null","","null","","","","","","","","","","","","","key","null","16.650348993288603","682","379","f","false","img/S_ambi40.png","好人","prac_simultaneous",""
"","","","","","html-keyboard-response","116","402266","0.0-11.0-0.0-1.3","null","<span class='add_' style='color:yellow; font-size: 70px;'> 太慢! </span>","null","","","","","","","","","","","","","","","","","","","","","","","feedback_test"
"","","","","","psychophysics","117","404360","0.0-11.0-0.0-0.4","1092","","j","","","","","","","","","","","","","key","j","16.812601626016356","682","379","j","true","img/S_ambi40.png","坏人","prac_simultaneous",""
"","","","","","html-keyboard-response","118","404668","0.0-11.0-0.0-1.4","null","<span style='color:GreenYellow; font-size: 70px;'>正确! </span>","null","","","","","","","","","","","","","","","","","","","","","","","feedback_test"
"","","","","","psychophysics","119","406522","0.0-11.0-0.0-0.5","849","","f","","","","","","","","","","","","","key","f","16.651768518518548","682","379","j","false","img/T_ambi40.png","好人","prac_simultaneous",""
"","","","","","html-keyboard-response","120","406827","0.0-11.0-0.0-1.5","null","<span style='color:red; font-size: 70px;'>错误! </span>","null","","","","","","","","","","","","","","","","","","","","","","","feedback_test"
"","","","","","psychophysics","121","408896","0.0-11.0-0.0-0.6","1065","","f","","","","","","","","","","","","","key","f","16.789934426229294","682","379","f","true","img/C_ambi40.png","坏人","prac_simultaneous",""
"","","","","","html-keyboard-response","122","409200","0.0-11.0-0.0-1.6","null","<span style='color:GreenYellow; font-size: 70px;'>正确! </span>","null","","","","","","","","","","","","","","","","","","","","","","","feedback_test"
"","","","","","psychophysics","123","411262","0.0-11.0-0.0-0.7","1050","","j","","","","","","","","","","","","","key","j","16.789537190083003","682","379","j","true","img/T_ambi40.png","好人","prac_simultaneous",""
"","","","","","html-keyboard-response","124","411579","0.0-11.0-0.0-1.7","null","<span style='color:GreenYellow; font-size: 70px;'>正确! </span>","null","","","","","","","","","","","","","","","","","","","","","","","feedback_test"
"","","","","","psychophysics","125","413343","0.0-11.0-0.0-0.8","763","","j","","","","","","","","","","","","","key","j","16.650571428571407","682","379","j","true","img/C_ambi40.png","常人","prac_simultaneous",""
"","","","","","html-keyboard-response","126","413649","0.0-11.0-0.0-1.8","null","<span style='color:GreenYellow; font-size: 70px;'>正确! </span>","null","","","","","","","","","","","","","","","","","","","","","","","feedback_test"
"","","","","","psychophysics","127","415372","0.0-11.0-0.0-0.9","722","","j","","","","","","","","","","","","","key","j","16.650549019607556","682","379","j","true","img/C_ambi40.png","常人","prac_simultaneous",""
"","","","","","html-keyboard-response","128","415684","0.0-11.0-0.0-1.9","null","<span style='color:GreenYellow; font-size: 70px;'>正确! </span>","null","","","","","","","","","","","","","","","","","","","","","","","feedback_test"
"","","","","","psychophysics","129","417677","0.0-11.0-0.0-0.10","985","","f","","","","","","","","","","","","","key","f","16.651059322033998","682","379","f","true","img/T_ambi40.png","坏人","prac_simultaneous",""
"","","","","","html-keyboard-response","130","417994","0.0-11.0-0.0-1.10","null","<span style='color:GreenYellow; font-size: 70px;'>正确! </span>","null","","","","","","","","","","","","","","","","","","","","","","","feedback_test"
"","","","","","psychophysics","131","419769","0.0-11.0-0.0-0.11","760","","j","","","","","","","","","","","","","key","j","16.810776699029216","682","379","f","false","img/S_ambi40.png","常人","prac_simultaneous",""
"","","","","","html-keyboard-response","132","420071","0.0-11.0-0.0-1.11","null","<span style='color:red; font-size: 70px;'>错误! </span>","null","","","","","","","","","","","","","","","","","","","","","","","feedback_test"
"","","","","","psychophysics","133","422169","0.0-11.0-0.0-0.12","1085","","j","","","","","","","","","","","","","key","j","16.649919354838445","682","379","j","true","img/S_ambi40.png","坏人","prac_simultaneous",""
"","","","","","html-keyboard-response","134","422477","0.0-11.0-0.0-1.12","null","<span style='color:GreenYellow; font-size: 70px;'>正确! </span>","null","","","","","","","","","","","","","","","","","","","","","","","feedback_test"
"","","","","","psychophysics","135","424352","0.0-11.0-0.0-0.13","869","","f","","","","","","","","","","","","","key","f","16.650387387387642","682","379","f","true","img/C_ambi40.png","坏人","prac_simultaneous",""
"","","","","","html-keyboard-response","136","424667","0.0-11.0-0.0-1.13","null","<span style='color:GreenYellow; font-size: 70px;'>正确! </span>","null","","","","","","","","","","","","","","","","","","","","","","","feedback_test"
"","","","","","psychophysics","137","426502","0.0-11.0-0.0-0.14","832","","j","","","","","","","","","","","","","key","j","16.65068518518496","682","379","j","true","img/C_ambi40.png","常人","prac_simultaneous",""
"","","","","","html-keyboard-response","138","426813","0.0-11.0-0.0-1.14","null","<span style='color:GreenYellow; font-size: 70px;'>正确! </span>","null","","","","","","","","","","","","","","","","","","","","","","","feedback_test"
"","","","","","psychophysics","139","428628","0.0-11.0-0.0-0.15","813","","f","","","","","","","","","","","","","key","f","16.80183177570068","682","379","f","true","img/T_ambi40.png","坏人","prac_simultaneous",""
"","","","","","html-keyboard-response","140","428940","0.0-11.0-0.0-1.15","null","<span style='color:GreenYellow; font-size: 70px;'>正确! </span>","null","","","","","","","","","","","","","","","","","","","","","","","feedback_test"
"","","","","","psychophysics","141","430958","0.0-11.0-0.0-0.16","1010","","f","","","","","","","","","","","","","key","f","16.646798319327587","682","379","j","false","img/T_ambi40.png","好人","prac_simultaneous",""
"","","","","","html-keyboard-response","142","431266","0.0-11.0-0.0-1.16","null","<span style='color:red; font-size: 70px;'>错误! </span>","null","","","","","","","","","","","","","","","","","","","","","","","feedback_test"
"","","","","","psychophysics","143","433103","0.0-11.0-0.0-0.17","834","","j","","","","","","","","","","","","","key","j","16.650796296296498","682","379","j","true","img/C_ambi40.png","常人","prac_simultaneous",""
"","","","","","html-keyboard-response","144","433407","0.0-11.0-0.0-1.17","null","<span style='color:GreenYellow; font-size: 70px;'>正确! </span>","null","","","","","","","","","","","","","","","","","","","","","","","feedback_test"
"","","","","","psychophysics","145","435288","0.0-11.0-0.0-0.18","862","","f","","","","","","","","","","","","","key","f","16.650232142857153","682","379","f","true","img/S_ambi40.png","好人","prac_simultaneous",""
"","","","","","html-keyboard-response","146","435597","0.0-11.0-0.0-1.18","null","<span style='color:GreenYellow; font-size: 70px;'>正确! </span>","null","","","","","","","","","","","","","","","","","","","","","","","feedback_test"
"","","","","","psychophysics","147","437792","0.0-11.0-0.0-0.19","1189","","f","","","","","","","","","","","","","key","f","16.77689062499985","682","379","f","true","img/T_ambi40.png","常人","prac_simultaneous",""
"","","","","","html-keyboard-response","148","438113","0.0-11.0-0.0-1.19","null","<span style='color:GreenYellow; font-size: 70px;'>正确! </span>","null","","","","","","","","","","","","","","","","","","","","","","","feedback_test"
"","","","","","psychophysics","149","440083","0.0-11.0-0.0-0.20","960","","j","","","","","","","","","","","","","key","j","16.648241379310313","682","379","f","false","img/S_ambi40.png","常人","prac_simultaneous",""
"","","","","","html-keyboard-response","150","440386","0.0-11.0-0.0-1.20","null","<span style='color:red; font-size: 70px;'>错误! </span>","null","","","","","","","","","","","","","","","","","","","","","","","feedback_test"
"","","","","","psychophysics","151","442224","0.0-11.0-0.0-0.21","834","","j","","","","","","","","","","","","","key","j","16.650500000000143","682","379","j","true","img/S_ambi40.png","坏人","prac_simultaneous",""
"","","","","","html-keyboard-response","152","442535","0.0-11.0-0.0-1.21","null","<span style='color:GreenYellow; font-size: 70px;'>正确! </span>","null","","","","","","","","","","","","","","","","","","","","","","","feedback_test"
"","","","","","psychophysics","153","444671","0.0-11.0-0.0-0.22","1125","","f","","","","","","","","","","","","","key","f","16.651376000000162","682","379","f","true","img/C_ambi40.png","好人","prac_simultaneous",""
"","","","","","html-keyboard-response","154","444979","0.0-11.0-0.0-1.22","null","<span style='color:GreenYellow; font-size: 70px;'>正确! </span>","null","","","","","","","","","","","","","","","","","","","","","","","feedback_test"
"","","","","","psychophysics","155","446777","0.0-11.0-0.0-0.23","796","","j","","","","","","","","","","","","","key","j","16.650878504673173","682","379","j","true","img/T_ambi40.png","好人","prac_simultaneous",""
"","","","","","html-keyboard-response","156","447089","0.0-11.0-0.0-1.23","null","<span style='color:GreenYellow; font-size: 70px;'>正确! </span>","null","","","","","","","","","","","","","","","","","","","","","","","feedback_test"
"","","","","","html-keyboard-response","157","450124","0.0-12.0","3032","<style>.context{color:white; font-size: 35px; line-height:40px}</style>                              <div><p class='context'>您正确回答了79% 的试次。</p><p class='context'>您的平均反应时为956毫秒。</p><p class='context'>恭喜您完成练习。按任意键进入正式实验。</p><p class='footer' style='font-size: 35px; line-height:40px;'>请在进入正式实验实验之前将您的<span style='color: lightgreen;'>食指</span>放在电脑键盘的相应键位上进行按键。</p>","f","","","","","","","","","","","","","","","","","","","","","","",""
"","","","","","html-keyboard-response","158","456947","0.0-13.0-1.0-0.0","6809","
      <p>请您将手指放在按键上，准备进入呈现顺序为<span style='color: yellow;'>先文字后图形条件</span>的正式匹配任务</p>
      <p> <div style = ""color: green""><按任意键进入下一阶段的匹配任务></div></p>
      ","j","","","","","","","","","","","","","","","","","","","","","","",""
"","","","","","psychophysics","159","459474","0.0-13.0-1.0-1.0-0.0-0.0","1374","","f","","","","","","","","","","","","","key","f","16.650706666666473","682","379","f","true","img/T_ambi40.png","坏人","word_first",""
"","","","","","html-keyboard-response","160","459786","0.0-13.0-1.0-1.0-0.0-1.0","null","<span style='color:GreenYellow; font-size: 70px;'>正确! </span>","null","","","","","","","","","","","","","","","","","","","","","","","feedback_test"
"","","","","","psychophysics","161","461612","0.0-13.0-1.0-1.0-0.0-0.1","663","","j","","","","","","","","","","","","","key","j","16.64611111111083","682","379","j","true","img/T_ambi40.png","好人","word_first",""
"","","","","","html-keyboard-response","162","461925","0.0-13.0-1.0-1.0-0.0-1.1","null","<span style='color:GreenYellow; font-size: 70px;'>正确! </span>","null","","","","","","","","","","","","","","","","","","","","","","","feedback_test"
"","","","","","psychophysics","163","463743","0.0-13.0-1.0-1.0-0.0-0.2","666","","f","","","","","","","","","","","","","key","f","16.649944444444607","682","379","f","true","img/S_ambi40.png","常人","word_first",""
"","","","","","html-keyboard-response","164","464048","0.0-13.0-1.0-1.0-0.0-1.2","null","<span style='color:GreenYellow; font-size: 70px;'>正确! </span>","null","","","","","","","","","","","","","","","","","","","","","","","feedback_test"
"","","","","","psychophysics","165","466429","0.0-13.0-1.0-1.0-0.0-0.3","1230","","j","","","","","","","","","","","","","key","j","16.65007801418455","682","379","j","true","img/S_ambi40.png","坏人","word_first",""
"","","","","","html-keyboard-response","166","466734","0.0-13.0-1.0-1.0-0.0-1.3","null","<span style='color:GreenYellow; font-size: 70px;'>正确! </span>","null","","","","","","","","","","","","","","","","","","","","","","","feedback_test"
"","","","","","psychophysics","167","468610","0.0-13.0-1.0-1.0-0.0-0.4","720","","f","","","","","","","","","","","","","key","f","16.802100917431225","682","379","f","true","img/S_ambi40.png","好人","word_first",""
"","","","","","html-keyboard-response","168","468933","0.0-13.0-1.0-1.0-0.0-1.4","null","<span style='color:GreenYellow; font-size: 70px;'>正确! </span>","null","","","","","","","","","","","","","","","","","","","","","","","feedback_test"
"","","","","","psychophysics","169","470770","0.0-13.0-1.0-1.0-0.0-0.5","684","","j","","","","","","","","","","","","","key","j","16.643137614679024","682","379","j","true","img/C_ambi40.png","常人","word_first",""
"","","","","","html-keyboard-response","170","471088","0.0-13.0-1.0-1.0-0.0-1.5","null","<span style='color:GreenYellow; font-size: 70px;'>正确! </span>","null","","","","","","","","","","","","","","","","","","","","","","","feedback_test"
"","","","","","psychophysics","171","473036","0.0-13.0-1.0-1.0-0.0-0.6","795","","j","","","","","","","","","","","","","key","j","16.648034782608484","682","379","j","true","img/T_ambi40.png","好人","word_first",""
"","","","","","html-keyboard-response","172","473345","0.0-13.0-1.0-1.0-0.0-1.6","null","<span style='color:GreenYellow; font-size: 70px;'>正确! </span>","null","","","","","","","","","","","","","","","","","","","","","","","feedback_test"
"","","","","","psychophysics","173","475135","0.0-13.0-1.0-1.0-0.0-0.7","635","","j","","","","","","","","","","","","","key","j","16.97434951456318","682","379","j","true","img/C_ambi40.png","常人","word_first",""
"","","","","","html-keyboard-response","174","475444","0.0-13.0-1.0-1.0-0.0-1.7","null","<span style='color:GreenYellow; font-size: 70px;'>正确! </span>","null","","","","","","","","","","","","","","","","","","","","","","","feedback_test"
"","","","","","psychophysics","175","477433","0.0-13.0-1.0-1.0-0.0-0.8","832","","f","","","","","","","","","","","","","key","f","16.792560344827884","682","379","f","true","img/C_ambi40.png","坏人","word_first",""
"","","","","","html-keyboard-response","176","477736","0.0-13.0-1.0-1.0-0.0-1.8","null","<span style='color:GreenYellow; font-size: 70px;'>正确! </span>","null","","","","","","","","","","","","","","","","","","","","","","","feedback_test"
"","","","","","psychophysics","177","479701","0.0-13.0-1.0-1.0-0.0-0.9","811","","j","","","","","","","","","","","","","key","j","16.6502434782613","682","379","j","true","img/S_ambi40.png","坏人","word_first",""
"","","","","","html-keyboard-response","178","480015","0.0-13.0-1.0-1.0-0.0-1.9","null","<span style='color:GreenYellow; font-size: 70px;'>正确! </span>","null","","","","","","","","","","","","","","","","","","","","","","","feedback_test"
"","","","","","psychophysics","179","481781","0.0-13.0-1.0-1.0-0.0-0.10","609","","f","","","","","","","","","","","","","key","f","16.81314563106811","682","379","f","true","img/T_ambi40.png","常人","word_first",""
"","","","","","html-keyboard-response","180","482093","0.0-13.0-1.0-1.0-0.0-1.10","null","<span style='color:GreenYellow; font-size: 70px;'>正确! </span>","null","","","","","","","","","","","","","","","","","","","","","","","feedback_test"
"","","","","","psychophysics","181","484014","0.0-13.0-1.0-1.0-0.0-0.11","765","","j","","","","","","","","","","","","","key","j","16.64604424778784","682","379","f","false","img/C_ambi40.png","好人","word_first",""
"","","","","","html-keyboard-response","182","484324","0.0-13.0-1.0-1.0-0.0-1.11","null","<span style='color:red; font-size: 70px;'>错误! </span>","null","","","","","","","","","","","","","","","","","","","","","","","feedback_test"
"","","","","","psychophysics","183","486328","0.0-13.0-1.0-1.0-0.0-0.12","836","","f","","","","","","","","","","","","","key","f","16.79483620689656","682","379","f","true","img/S_ambi40.png","好人","word_first",""
"","","","","","html-keyboard-response","184","486642","0.0-13.0-1.0-1.0-0.0-1.12","null","<span style='color:GreenYellow; font-size: 70px;'>正确! </span>","null","","","","","","","","","","","","","","","","","","","","","","","feedback_test"
"","","","","","psychophysics","185","488506","0.0-13.0-1.0-1.0-0.0-0.13","697","","j","","","","","","","","","","","","","key","j","16.802724770641962","682","379","j","true","img/T_ambi40.png","好人","word_first",""
"","","","","","html-keyboard-response","186","488814","0.0-13.0-1.0-1.0-0.0-1.13","null","<span style='color:GreenYellow; font-size: 70px;'>正确! </span>","null","","","","","","","","","","","","","","","","","","","","","","","feedback_test"
"","","","","","psychophysics","187","490888","0.0-13.0-1.0-1.0-0.0-0.14","921","","j","","","","","","","","","","","","","key","j","16.65088524590208","682","379","j","true","img/C_ambi40.png","常人","word_first",""
"","","","","","html-keyboard-response","188","491204","0.0-13.0-1.0-1.0-0.0-1.14","null","<span style='color:GreenYellow; font-size: 70px;'>正确! </span>","null","","","","","","","","","","","","","","","","","","","","","","","feedback_test"
"","","","","","psychophysics","189","493300","0.0-13.0-1.0-1.0-0.0-0.15","938","","f","","","","","","","","","","","","","key","f","16.651349593495773","682","379","f","true","img/C_ambi40.png","好人","word_first",""
"","","","","","html-keyboard-response","190","493608","0.0-13.0-1.0-1.0-0.0-1.15","null","<span style='color:GreenYellow; font-size: 70px;'>正确! </span>","null","","","","","","","","","","","","","","","","","","","","","","","feedback_test"
"","","","","","psychophysics","191","495563","0.0-13.0-1.0-1.0-0.0-0.16","803","","f","","","","","","","","","","","","","key","f","16.650206896551715","682","379","f","true","img/C_ambi40.png","坏人","word_first",""
"","","","","","html-keyboard-response","192","495877","0.0-13.0-1.0-1.0-0.0-1.16","null","<span style='color:GreenYellow; font-size: 70px;'>正确! </span>","null","","","","","","","","","","","","","","","","","","","","","","","feedback_test"
"","","","","","psychophysics","193","498192","0.0-13.0-1.0-1.0-0.0-0.17","1163","","j","","","","","","","","","","","","","key","j","16.650547445255473","682","379","j","true","img/T_ambi40.png","好人","word_first",""
"","","","","","html-keyboard-response","194","498510","0.0-13.0-1.0-1.0-0.0-1.17","null","<span style='color:GreenYellow; font-size: 70px;'>正确! </span>","null","","","","","","","","","","","","","","","","","","","","","","","feedback_test"
"","","","","","psychophysics","195","500370","0.0-13.0-1.0-1.0-0.0-0.18","706","","j","","","","","","","","","","","","","key","j","16.650554545454426","682","379","j","true","img/C_ambi40.png","常人","word_first",""
"","","","","","html-keyboard-response","196","500679","0.0-13.0-1.0-1.0-0.0-1.18","null","<span style='color:GreenYellow; font-size: 70px;'>正确! </span>","null","","","","","","","","","","","","","","","","","","","","","","","feedback_test"
"","","","","","psychophysics","197","502801","0.0-13.0-1.0-1.0-0.0-0.19","966","","f","","","","","","","","","","","","","key","f","16.652338709677533","682","379","f","true","img/T_ambi40.png","坏人","word_first",""
"","","","","","html-keyboard-response","198","503112","0.0-13.0-1.0-1.0-0.0-1.19","null","<span style='color:GreenYellow; font-size: 70px;'>正确! </span>","null","","","","","","","","","","","","","","","","","","","","","","","feedback_test"
"","","","","","psychophysics","199","504946","0.0-13.0-1.0-1.0-0.0-0.20","680","","f","","","","","","","","","","","","","key","f","16.799669811320886","682","379","f","true","img/S_ambi40.png","常人","word_first",""
"","","","","","html-keyboard-response","200","505262","0.0-13.0-1.0-1.0-0.0-1.20","null","<span style='color:GreenYellow; font-size: 70px;'>正确! </span>","null","","","","","","","","","","","","","","","","","","","","","","","feedback_test"
"","","","","","psychophysics","201","507205","0.0-13.0-1.0-1.0-0.0-0.21","791","","f","","","","","","","","","","","","","key","f","16.650860869564603","682","379","f","true","img/T_ambi40.png","常人","word_first",""
"","","","","","html-keyboard-response","202","507530","0.0-13.0-1.0-1.0-0.0-1.21","null","<span style='color:GreenYellow; font-size: 70px;'>正确! </span>","null","","","","","","","","","","","","","","","","","","","","","","","feedback_test"
"","","","","","psychophysics","203","509497","0.0-13.0-1.0-1.0-0.0-0.22","810","","j","","","","","","","","","","","","","key","j","16.648387931034385","682","379","j","true","img/S_ambi40.png","坏人","word_first",""
"","","","","","html-keyboard-response","204","509814","0.0-13.0-1.0-1.0-0.0-1.22","null","<span style='color:GreenYellow; font-size: 70px;'>正确! </span>","null","","","","","","","","","","","","","","","","","","","","","","","feedback_test"
"","","","","","psychophysics","205","511480","0.0-13.0-1.0-1.0-0.0-0.23","509","","j","","","","","","","","","","","","","key","j","16.642132653061264","682","379","j","true","img/S_ambi40.png","坏人","word_first",""
"","","","","","html-keyboard-response","206","511784","0.0-13.0-1.0-1.0-0.0-1.23","null","<span style='color:GreenYellow; font-size: 70px;'>正确! </span>","null","","","","","","","","","","","","","","","","","","","","","","","feedback_test"
"","","","","","psychophysics","207","513683","0.0-13.0-1.0-1.0-0.0-0.24","744","","j","","","","","","","","","","","","","key","j","16.800225225225855","682","379","j","true","img/C_ambi40.png","常人","word_first",""
"","","","","","html-keyboard-response","208","513990","0.0-13.0-1.0-1.0-0.0-1.24","null","<span style='color:GreenYellow; font-size: 70px;'>正确! </span>","null","","","","","","","","","","","","","","","","","","","","","","","feedback_test"
"","","","","","psychophysics","209","515850","0.0-13.0-1.0-1.0-0.0-0.25","707","","f","","","","","","","","","","","","","key","f","16.650799999999897","682","379","f","true","img/C_ambi40.png","好人","word_first",""
"","","","","","html-keyboard-response","210","516157","0.0-13.0-1.0-1.0-0.0-1.25","null","<span style='color:GreenYellow; font-size: 70px;'>正确! </span>","null","","","","","","","","","","","","","","","","","","","","","","","feedback_test"
"","","","","","psychophysics","211","518058","0.0-13.0-1.0-1.0-0.0-0.26","748","","f","","","","","","","","","","","","","key","f","16.646964601769557","682","379","f","true","img/C_ambi40.png","坏人","word_first",""
"","","","","","html-keyboard-response","212","518372","0.0-13.0-1.0-1.0-0.0-1.26","null","<span style='color:GreenYellow; font-size: 70px;'>正确! </span>","null","","","","","","","","","","","","","","","","","","","","","","","feedback_test"
"","","","","","psychophysics","213","520330","0.0-13.0-1.0-1.0-0.0-0.27","803","","j","","","","","","","","","","","","","key","j","16.79621929824536","682","379","j","true","img/T_ambi40.png","好人","word_first",""
"","","","","","html-keyboard-response","214","520648","0.0-13.0-1.0-1.0-0.0-1.27","null","<span style='color:GreenYellow; font-size: 70px;'>正确! </span>","null","","","","","","","","","","","","","","","","","","","","","","","feedback_test"
"","","","","","psychophysics","215","522558","0.0-13.0-1.0-1.0-0.0-0.28","758","","f","","","","","","","","","","","","","key","f","16.69283185840638","682","379","f","true","img/S_ambi40.png","常人","word_first",""
"","","","","","html-keyboard-response","216","522868","0.0-13.0-1.0-1.0-0.0-1.28","null","<span style='color:GreenYellow; font-size: 70px;'>正确! </span>","null","","","","","","","","","","","","","","","","","","","","","","","feedback_test"
"","","","","","psychophysics","217","524805","0.0-13.0-1.0-1.0-0.0-0.29","782","","f","","","","","","","","","","","","","key","f","16.650634782608478","682","379","f","true","img/S_ambi40.png","好人","word_first",""
"","","","","","html-keyboard-response","218","525120","0.0-13.0-1.0-1.0-0.0-1.29","null","<span style='color:GreenYellow; font-size: 70px;'>正确! </span>","null","","","","","","","","","","","","","","","","","","","","","","","feedback_test"
"","","","","","psychophysics","219","527144","0.0-13.0-1.0-1.0-0.0-0.30","870","","f","","","","","","","","","","","","","key","f","16.790630252101504","682","379","j","false","img/S_ambi40.png","坏人","word_first",""
"","","","","","html-keyboard-response","220","527454","0.0-13.0-1.0-1.0-0.0-1.30","null","<span style='color:red; font-size: 70px;'>错误! </span>","null","","","","","","","","","","","","","","","","","","","","","","","feedback_test"
"","","","","","psychophysics","221","529231","0.0-13.0-1.0-1.0-0.0-0.31","624","","j","","","","","","","","","","","","","key","j","16.652085714286105","682","379","j","true","img/C_ambi40.png","常人","word_first",""
"","","","","","html-keyboard-response","222","529539","0.0-13.0-1.0-1.0-0.0-1.31","null","<span style='color:GreenYellow; font-size: 70px;'>正确! </span>","null","","","","","","","","","","","","","","","","","","","","","","","feedback_test"
"","","","","","psychophysics","223","532199","0.0-13.0-1.0-1.0-0.0-0.32","null","","null","","","","","","","","","","","","","key","null","16.649556962025347","682","379","j","false","img/T_ambi40.png","好人","word_first",""
"","","","","","html-keyboard-response","224","532513","0.0-13.0-1.0-1.0-0.0-1.32","null","<span class='add_' style='color:yellow; font-size: 70px;'> 太慢! </span>","null","","","","","","","","","","","","","","","","","","","","","","","feedback_test"
"","","","","","psychophysics","225","534242","0.0-13.0-1.0-1.0-0.0-0.33","577","","j","","","","","","","","","","","","","key","j","16.650843137254316","682","379","f","false","img/T_ambi40.png","常人","word_first",""
"","","","","","html-keyboard-response","226","534554","0.0-13.0-1.0-1.0-0.0-1.33","null","<span style='color:red; font-size: 70px;'>错误! </span>","null","","","","","","","","","","","","","","","","","","","","","","","feedback_test"
"","","","","","psychophysics","227","536588","0.0-13.0-1.0-1.0-0.0-0.34","882","","j","","","","","","","","","","","","","key","j","16.647933884297714","682","379","j","true","img/S_ambi40.png","坏人","word_first",""
"","","","","","html-keyboard-response","228","536891","0.0-13.0-1.0-1.0-0.0-1.34","null","<span style='color:GreenYellow; font-size: 70px;'>正确! </span>","null","","","","","","","","","","","","","","","","","","","","","","","feedback_test"
"","","","","","psychophysics","229","538775","0.0-13.0-1.0-1.0-0.0-0.35","732","","f","","","","","","","","","","","","","key","f","16.650261261261296","682","379","f","true","img/T_ambi40.png","坏人","word_first",""
"","","","","","html-keyboard-response","230","539080","0.0-13.0-1.0-1.0-0.0-1.35","null","<span style='color:GreenYellow; font-size: 70px;'>正确! </span>","null","","","","","","","","","","","","","","","","","","","","","","","feedback_test"
"","","","","","psychophysics","231","541397","0.0-13.0-1.0-1.0-0.0-0.36","1162","","j","","","","","","","","","","","","","key","j","16.76990441176424","682","379","j","true","img/T_ambi40.png","好人","word_first",""
"","","","","","html-keyboard-response","232","541710","0.0-13.0-1.0-1.0-0.0-1.36","null","<span style='color:GreenYellow; font-size: 70px;'>正确! </span>","null","","","","","","","","","","","","","","","","","","","","","","","feedback_test"
"","","","","","psychophysics","233","543516","0.0-13.0-1.0-1.0-0.0-0.37","653","","f","","","","","","","","","","","","","key","f","16.80651886792489","682","379","f","true","img/T_ambi40.png","常人","word_first",""
"","","","","","html-keyboard-response","234","543829","0.0-13.0-1.0-1.0-0.0-1.37","null","<span style='color:GreenYellow; font-size: 70px;'>正确! </span>","null","","","","","","","","","","","","","","","","","","","","","","","feedback_test"
"","","","","","psychophysics","235","545692","0.0-13.0-1.0-1.0-0.0-0.38","709","","j","","","","","","","","","","","","","key","j","16.689348623852904","682","379","j","true","img/C_ambi40.png","常人","word_first",""
"","","","","","html-keyboard-response","236","546004","0.0-13.0-1.0-1.0-0.0-1.38","null","<span style='color:GreenYellow; font-size: 70px;'>正确! </span>","null","","","","","","","","","","","","","","","","","","","","","","","feedback_test"
"","","","","","psychophysics","237","547879","0.0-13.0-1.0-1.0-0.0-0.39","720","","f","","","","","","","","","","","","","key","f","16.8009636363639","682","379","f","true","img/S_ambi40.png","好人","word_first",""
"","","","","","html-keyboard-response","238","548188","0.0-13.0-1.0-1.0-0.0-1.39","null","<span style='color:GreenYellow; font-size: 70px;'>正确! </span>","null","","","","","","","","","","","","","","","","","","","","","","","feedback_test"
"","","","","","psychophysics","239","549913","0.0-13.0-1.0-1.0-0.0-0.40","572","","j","","","","","","","","","","","","","key","j","16.648049504950293","682","379","j","true","img/C_ambi40.png","常人","word_first",""
"","","","","","html-keyboard-response","240","550219","0.0-13.0-1.0-1.0-0.0-1.40","null","<span style='color:GreenYellow; font-size: 70px;'>正确! </span>","null","","","","","","","","","","","","","","","","","","","","","","","feedback_test"
"","","","","","psychophysics","241","552077","0.0-13.0-1.0-1.0-0.0-0.41","702","","f","","","","","","","","","","","","","key","f","16.650467889908906","682","379","f","true","img/C_ambi40.png","坏人","word_first",""
"","","","","","html-keyboard-response","242","552394","0.0-13.0-1.0-1.0-0.0-1.41","null","<span style='color:GreenYellow; font-size: 70px;'>正确! </span>","null","","","","","","","","","","","","","","","","","","","","","","","feedback_test"
"","","","","","psychophysics","243","554460","0.0-13.0-1.0-1.0-0.0-0.42","910","","f","","","","","","","","","","","","","key","f","16.65100826446279","682","379","f","true","img/S_ambi40.png","常人","word_first",""
"","","","","","html-keyboard-response","244","554765","0.0-13.0-1.0-1.0-0.0-1.42","null","<span style='color:GreenYellow; font-size: 70px;'>正确! </span>","null","","","","","","","","","","","","","","","","","","","","","","","feedback_test"
"","","","","","psychophysics","245","556885","0.0-13.0-1.0-1.0-0.0-0.43","967","","j","","","","","","","","","","","","","key","j","16.64243650793593","682","379","j","true","img/S_ambi40.png","坏人","word_first",""
"","","","","","html-keyboard-response","246","557194","0.0-13.0-1.0-1.0-0.0-1.43","null","<span style='color:GreenYellow; font-size: 70px;'>正确! </span>","null","","","","","","","","","","","","","","","","","","","","","","","feedback_test"
"","","","","","psychophysics","247","559185","0.0-13.0-1.0-1.0-0.0-0.44","837","","f","","","","","","","","","","","","","key","f","16.651584745763596","682","379","f","true","img/C_ambi40.png","好人","word_first",""
"","","","","","html-keyboard-response","248","559493","0.0-13.0-1.0-1.0-0.0-1.44","null","<span style='color:GreenYellow; font-size: 70px;'>正确! </span>","null","","","","","","","","","","","","","","","","","","","","","","","feedback_test"
"","","","","","psychophysics","249","561360","0.0-13.0-1.0-1.0-0.0-0.45","712","","j","","","","","","","","","","","","","key","j","16.649836363637057","682","379","j","true","img/T_ambi40.png","好人","word_first",""
"","","","","","html-keyboard-response","250","561673","0.0-13.0-1.0-1.0-0.0-1.45","null","<span style='color:GreenYellow; font-size: 70px;'>正确! </span>","null","","","","","","","","","","","","","","","","","","","","","","","feedback_test"
"","","","","","psychophysics","251","563694","0.0-13.0-1.0-1.0-0.0-0.46","863","","f","","","","","","","","","","","","","key","f","16.789957983193318","682","379","f","true","img/T_ambi40.png","坏人","word_first",""
"","","","","","html-keyboard-response","252","563999","0.0-13.0-1.0-1.0-0.0-1.46","null","<span style='color:GreenYellow; font-size: 70px;'>正确! </span>","null","","","","","","","","","","","","","","","","","","","","","","","feedback_test"
"","","","","","psychophysics","253","565829","0.0-13.0-1.0-1.0-0.0-0.47","678","","j","","","","","","","","","","","","","key","j","16.65071296296298","682","379","j","true","img/S_ambi40.png","坏人","word_first",""
"","","","","","html-keyboard-response","254","566138","0.0-13.0-1.0-1.0-0.0-1.47","null","<span style='color:GreenYellow; font-size: 70px;'>正确! </span>","null","","","","","","","","","","","","","","","","","","","","","","","feedback_test"
"","","","","","psychophysics","255","567968","0.0-13.0-1.0-1.0-0.0-0.48","677","","f","","","","","","","","","","","","","key","f","16.64992592592521","682","379","f","true","img/C_ambi40.png","坏人","word_first",""
"","","","","","html-keyboard-response","256","568284","0.0-13.0-1.0-1.0-0.0-1.48","null","<span style='color:GreenYellow; font-size: 70px;'>正确! </span>","null","","","","","","","","","","","","","","","","","","","","","","","feedback_test"
"","","","","","psychophysics","257","570237","0.0-13.0-1.0-1.0-0.0-0.49","797","","j","","","","","","","","","","","","","key","j","16.64853448275846","682","379","f","false","img/C_ambi40.png","好人","word_first",""
"","","","","","html-keyboard-response","258","570552","0.0-13.0-1.0-1.0-0.0-1.49","null","<span style='color:red; font-size: 70px;'>错误! </span>","null","","","","","","","","","","","","","","","","","","","","","","","feedback_test"
"","","","","","psychophysics","259","572564","0.0-13.0-1.0-1.0-0.0-0.50","856","","j","","","","","","","","","","","","","key","j","16.65032203389742","682","379","j","true","img/S_ambi40.png","坏人","word_first",""
"","","","","","html-keyboard-response","260","572878","0.0-13.0-1.0-1.0-0.0-1.50","null","<span style='color:GreenYellow; font-size: 70px;'>正确! </span>","null","","","","","","","","","","","","","","","","","","","","","","","feedback_test"
"","","","","","psychophysics","261","574636","0.0-13.0-1.0-1.0-0.0-0.51","605","","j","","","","","","","","","","","","","key","j","16.811019417476043","682","379","j","true","img/C_ambi40.png","常人","word_first",""
"","","","","","html-keyboard-response","262","574951","0.0-13.0-1.0-1.0-0.0-1.51","null","<span style='color:GreenYellow; font-size: 70px;'>正确! </span>","null","","","","","","","","","","","","","","","","","","","","","","","feedback_test"
"","","","","","psychophysics","263","576883","0.0-13.0-1.0-1.0-0.0-0.52","778","","f","","","","","","","","","","","","","key","f","16.650122807017045","682","379","f","true","img/S_ambi40.png","好人","word_first",""
"","","","","","html-keyboard-response","264","577190","0.0-13.0-1.0-1.0-0.0-1.52","null","<span style='color:GreenYellow; font-size: 70px;'>正确! </span>","null","","","","","","","","","","","","","","","","","","","","","","","feedback_test"
"","","","","","psychophysics","265","578951","0.0-13.0-1.0-1.0-0.0-0.53","605","","j","","","","","","","","","","","","","key","j","16.812019417474943","682","379","j","true","img/T_ambi40.png","好人","word_first",""
"","","","","","html-keyboard-response","266","579254","0.0-13.0-1.0-1.0-0.0-1.53","null","<span style='color:GreenYellow; font-size: 70px;'>正确! </span>","null","","","","","","","","","","","","","","","","","","","","","","","feedback_test"
"","","","","","psychophysics","267","581152","0.0-13.0-1.0-1.0-0.0-0.54","742","","f","","","","","","","","","","","","","key","f","16.799522522522288","682","379","f","true","img/T_ambi40.png","常人","word_first",""
"","","","","","html-keyboard-response","268","581461","0.0-13.0-1.0-1.0-0.0-1.54","null","<span style='color:GreenYellow; font-size: 70px;'>正确! </span>","null","","","","","","","","","","","","","","","","","","","","","","","feedback_test"
"","","","","","psychophysics","269","583273","0.0-13.0-1.0-1.0-0.0-0.55","659","","j","","","","","","","","","","","","","key","j","16.80546728971906","682","379","j","true","img/C_ambi40.png","常人","word_first",""
"","","","","","html-keyboard-response","270","583589","0.0-13.0-1.0-1.0-0.0-1.55","null","<span style='color:GreenYellow; font-size: 70px;'>正确! </span>","null","","","","","","","","","","","","","","","","","","","","","","","feedback_test"
"","","","","","psychophysics","271","585594","0.0-13.0-1.0-1.0-0.0-0.56","848","","j","","","","","","","","","","","","","key","j","16.79402564102525","682","379","f","false","img/T_ambi40.png","坏人","word_first",""
"","","","","","html-keyboard-response","272","585908","0.0-13.0-1.0-1.0-0.0-1.56","null","<span style='color:red; font-size: 70px;'>错误! </span>","null","","","","","","","","","","","","","","","","","","","","","","","feedback_test"
"","","","","","psychophysics","273","587742","0.0-13.0-1.0-1.0-0.0-0.57","682","","f","","","","","","","","","","","","","key","f","16.804898148148183","682","379","f","true","img/S_ambi40.png","常人","word_first",""
"","","","","","html-keyboard-response","274","588059","0.0-13.0-1.0-1.0-0.0-1.57","null","<span style='color:GreenYellow; font-size: 70px;'>正确! </span>","null","","","","","","","","","","","","","","","","","","","","","","","feedback_test"
"","","","","","psychophysics","275","589787","0.0-13.0-1.0-1.0-0.0-0.58","574","","j","","","","","","","","","","","","","key","j","16.815732673268148","682","379","j","true","img/T_ambi40.png","好人","word_first",""
"","","","","","html-keyboard-response","276","590094","0.0-13.0-1.0-1.0-0.0-1.58","null","<span style='color:GreenYellow; font-size: 70px;'>正确! </span>","null","","","","","","","","","","","","","","","","","","","","","","","feedback_test"
"","","","","","psychophysics","277","591974","0.0-13.0-1.0-1.0-0.0-0.59","722","","j","","","","","","","","","","","","","key","j","16.642072727272964","682","379","j","true","img/S_ambi40.png","坏人","word_first",""
"","","","","","html-keyboard-response","278","592287","0.0-13.0-1.0-1.0-0.0-1.59","null","<span style='color:GreenYellow; font-size: 70px;'>正确! </span>","null","","","","","","","","","","","","","","","","","","","","","","","feedback_test"
"","","","","","html-keyboard-response","279","595981","0.0-13.0-1.0-1.0-1.0","3686","<style>.context{color:white; font-size: 35px; line-height:40px}</style>                              <div><p class='context'>您正确回答了90% 的试次。</p><p class='context'>您的平均反应时为778毫秒。</p><p class='context'>请按任意键进入休息</p></div>","j","","","","","","","","","","","","","","","","","","","","","","",""
"","","","","","html-button-response","280","776327","0.0-13.0-1.0-1.0-2.0","180337","
                      <p>您当前还剩余3组实验</p>
                      <p>现在是休息时间，当您结束休息后，您可以点击 结束休息 按钮 继续</p>
                      <p>建议休息时间还剩余<span id=""iii"">60</span>秒</p>","0","","","","","","","","","","","","","","","","","","","","","","",""
"","","","","","psychophysics","281","778486","0.0-13.0-1.0-1.0-0.1-0.60","1000","","f","","","","","","","","","","","","","key","f","16.65062499999931","682","379","f","true","img/S_ambi40.png","常人","word_first",""
"","","","","","html-keyboard-response","282","778791","0.0-13.0-1.0-1.0-0.1-1.60","null","<span style='color:GreenYellow; font-size: 70px;'>正确! </span>","null","","","","","","","","","","","","","","","","","","","","","","","feedback_test"
"","","","","","psychophysics","283","780605","0.0-13.0-1.0-1.0-0.1-0.61","643","","j","","","","","","","","","","","","","key","j","16.65053271028","682","379","j","true","img/S_ambi40.png","坏人","word_first",""
"","","","","","html-keyboard-response","284","780918","0.0-13.0-1.0-1.0-0.1-1.61","null","<span style='color:GreenYellow; font-size: 70px;'>正确! </span>","null","","","","","","","","","","","","","","","","","","","","","","","feedback_test"
"","","","","","psychophysics","285","783479","0.0-13.0-1.0-1.0-0.1-0.62","1408","","f","","","","","","","","","","","","","key","f","16.6497697368422","682","379","f","true","img/T_ambi40.png","坏人","word_first",""
"","","","","","html-keyboard-response","286","783782","0.0-13.0-1.0-1.0-0.1-1.62","null","<span style='color:GreenYellow; font-size: 70px;'>正确! </span>","null","","","","","","","","","","","","","","","","","","","","","","","feedback_test"
"","","","","","psychophysics","287","785505","0.0-13.0-1.0-1.0-0.1-0.63","563","","j","","","","","","","","","","","","","key","j","16.67446534653508","682","379","j","true","img/C_ambi40.png","常人","word_first",""
"","","","","","html-keyboard-response","288","785813","0.0-13.0-1.0-1.0-0.1-1.63","null","<span style='color:GreenYellow; font-size: 70px;'>正确! </span>","null","","","","","","","","","","","","","","","","","","","","","","","feedback_test"
"","","","","","psychophysics","289","787565","0.0-13.0-1.0-1.0-0.1-0.64","595","","j","","","","","","","","","","","","","key","j","16.64761165048457","682","379","j","true","img/T_ambi40.png","好人","word_first",""
"","","","","","html-keyboard-response","290","787883","0.0-13.0-1.0-1.0-0.1-1.64","null","<span style='color:GreenYellow; font-size: 70px;'>正确! </span>","null","","","","","","","","","","","","","","","","","","","","","","","feedback_test"
"","","","","","psychophysics","291","789744","0.0-13.0-1.0-1.0-0.1-0.65","705","","f","","","","","","","","","","","","","key","f","16.65053636363644","682","379","f","true","img/C_ambi40.png","坏人","word_first",""
"","","","","","html-keyboard-response","292","790055","0.0-13.0-1.0-1.0-0.1-1.65","null","<span style='color:GreenYellow; font-size: 70px;'>正确! </span>","null","","","","","","","","","","","","","","","","","","","","","","","feedback_test"
"","","","","","psychophysics","293","792229","0.0-13.0-1.0-1.0-0.1-0.66","1020","","j","","","","","","","","","","","","","key","j","16.652348837208784","682","379","j","true","img/C_ambi40.png","常人","word_first",""
"","","","","","html-keyboard-response","294","792537","0.0-13.0-1.0-1.0-0.1-1.66","null","<span style='color:GreenYellow; font-size: 70px;'>正确! </span>","null","","","","","","","","","","","","","","","","","","","","","","","feedback_test"
"","","","","","psychophysics","295","794434","0.0-13.0-1.0-1.0-0.1-0.67","742","","j","","","","","","","","","","","","","key","j","16.800045045044456","682","379","j","true","img/T_ambi40.png","好人","word_first",""
"","","","","","html-keyboard-response","296","794747","0.0-13.0-1.0-1.0-0.1-1.67","null","<span style='color:GreenYellow; font-size: 70px;'>正确! </span>","null","","","","","","","","","","","","","","","","","","","","","","","feedback_test"
"","","","","","psychophysics","297","796529","0.0-13.0-1.0-1.0-0.1-0.68","626","","f","","","","","","","","","","","","","key","f","16.650066666667616","682","379","f","true","img/T_ambi40.png","常人","word_first",""
"","","","","","html-keyboard-response","298","796846","0.0-13.0-1.0-1.0-0.1-1.68","null","<span style='color:GreenYellow; font-size: 70px;'>正确! </span>","null","","","","","","","","","","","","","","","","","","","","","","","feedback_test"
"","","","","","psychophysics","299","799231","0.0-13.0-1.0-1.0-0.1-0.69","1231","","f","","","","","","","","","","","","","key","f","16.648760563380765","682","379","f","true","img/C_ambi40.png","好人","word_first",""
"","","","","","html-keyboard-response","300","799545","0.0-13.0-1.0-1.0-0.1-1.69","null","<span style='color:GreenYellow; font-size: 70px;'>正确! </span>","null","","","","","","","","","","","","","","","","","","","","","","","feedback_test"
"","","","","","psychophysics","301","801378","0.0-13.0-1.0-1.0-0.1-0.70","681","","j","","","","","","","","","","","","","key","j","16.649330275229374","682","379","j","true","img/S_ambi40.png","坏人","word_first",""
"","","","","","html-keyboard-response","302","801695","0.0-13.0-1.0-1.0-0.1-1.70","null","<span style='color:GreenYellow; font-size: 70px;'>正确! </span>","null","","","","","","","","","","","","","","","","","","","","","","","feedback_test"
"","","","","","psychophysics","303","803562","0.0-13.0-1.0-1.0-0.1-0.71","713","","f","","","","","","","","","","","","","key","f","16.64876363636418","682","379","f","true","img/S_ambi40.png","好人","word_first",""
"","","","","","html-keyboard-response","304","803879","0.0-13.0-1.0-1.0-0.1-1.71","null","<span style='color:GreenYellow; font-size: 70px;'>正确! </span>","null","","","","","","","","","","","","","","","","","","","","","","","feedback_test"
"","","","","","psychophysics","305","806145","0.0-13.0-1.0-1.0-0.1-0.72","1113","","f","","","","","","","","","","","","","key","f","16.65076691729342","682","379","f","true","img/S_ambi40.png","常人","word_first",""
"","","","","","html-keyboard-response","306","806462","0.0-13.0-1.0-1.0-0.1-1.72","null","<span style='color:GreenYellow; font-size: 70px;'>正确! </span>","null","","","","","","","","","","","","","","","","","","","","","","","feedback_test"
"","","","","","psychophysics","307","808320","0.0-13.0-1.0-1.0-0.1-0.73","698","","j","","","","","","","","","","","","","key","j","16.65172477064274","682","379","j","true","img/T_ambi40.png","好人","word_first",""
"","","","","","html-keyboard-response","308","808626","0.0-13.0-1.0-1.0-0.1-1.73","null","<span style='color:GreenYellow; font-size: 70px;'>正确! </span>","null","","","","","","","","","","","","","","","","","","","","","","","feedback_test"
"","","","","","psychophysics","309","810453","0.0-13.0-1.0-1.0-0.1-0.74","675","","f","","","","","","","","","","","","","key","f","16.65047222222266","682","379","f","true","img/T_ambi40.png","常人","word_first",""
"","","","","","html-keyboard-response","310","810766","0.0-13.0-1.0-1.0-0.1-1.74","null","<span style='color:GreenYellow; font-size: 70px;'>正确! </span>","null","","","","","","","","","","","","","","","","","","","","","","","feedback_test"
"","","","","","psychophysics","311","812789","0.0-13.0-1.0-1.0-0.1-0.75","869","","f","","","","","","","","","","","","","key","f","16.65082500000038","682","379","f","true","img/C_ambi40.png","好人","word_first",""
"","","","","","html-keyboard-response","312","813099","0.0-13.0-1.0-1.0-0.1-1.75","null","<span style='color:GreenYellow; font-size: 70px;'>正确! </span>","null","","","","","","","","","","","","","","","","","","","","","","","feedback_test"
"","","","","","psychophysics","313","814949","0.0-13.0-1.0-1.0-0.1-0.76","693","","j","","","","","","","","","","","","","key","j","16.649229357797662","682","379","f","false","img/T_ambi40.png","坏人","word_first",""
"","","","","","html-keyboard-response","314","815269","0.0-13.0-1.0-1.0-0.1-1.76","null","<span style='color:red; font-size: 70px;'>错误! </span>","null","","","","","","","","","","","","","","","","","","","","","","","feedback_test"
"","","","","","psychophysics","315","817062","0.0-13.0-1.0-1.0-0.1-0.77","631","","j","","","","","","","","","","","","","key","j","16.81057692307737","682","379","j","true","img/T_ambi40.png","好人","word_first",""
"","","","","","html-keyboard-response","316","817380","0.0-13.0-1.0-1.0-0.1-1.77","null","<span style='color:GreenYellow; font-size: 70px;'>正确! </span>","null","","","","","","","","","","","","","","","","","","","","","","","feedback_test"
"","","","","","psychophysics","317","819527","0.0-13.0-1.0-1.0-0.1-0.78","994","","j","","","","","","","","","","","","","key","j","16.651007874015402","682","379","j","true","img/S_ambi40.png","坏人","word_first",""
"","","","","","html-keyboard-response","318","819850","0.0-13.0-1.0-1.0-0.1-1.78","null","<span style='color:GreenYellow; font-size: 70px;'>正确! </span>","null","","","","","","","","","","","","","","","","","","","","","","","feedback_test"
"","","","","","psychophysics","319","821827","0.0-13.0-1.0-1.0-0.1-0.79","823","","f","","","","","","","","","","","","","key","f","16.650215517240778","682","379","f","true","img/S_ambi40.png","好人","word_first",""
"","","","","","html-keyboard-response","320","822131","0.0-13.0-1.0-1.0-0.1-1.79","null","<span style='color:GreenYellow; font-size: 70px;'>正确! </span>","null","","","","","","","","","","","","","","","","","","","","","","","feedback_test"
"","","","","","psychophysics","321","823840","0.0-13.0-1.0-1.0-0.1-0.80","552","","j","","","","","","","","","","","","","key","j","16.641080000000073","682","379","j","true","img/C_ambi40.png","常人","word_first",""
"","","","","","html-keyboard-response","322","824144","0.0-13.0-1.0-1.0-0.1-1.80","null","<span style='color:GreenYellow; font-size: 70px;'>正确! </span>","null","","","","","","","","","","","","","","","","","","","","","","","feedback_test"
"","","","","","psychophysics","323","825889","0.0-13.0-1.0-1.0-0.1-0.81","593","","j","","","","","","","","","","","","","key","j","16.651049019607907","682","379","j","true","img/C_ambi40.png","常人","word_first",""
"","","","","","html-keyboard-response","324","826209","0.0-13.0-1.0-1.0-0.1-1.81","null","<span style='color:GreenYellow; font-size: 70px;'>正确! </span>","null","","","","","","","","","","","","","","","","","","","","","","","feedback_test"
"","","","","","psychophysics","325","828093","0.0-13.0-1.0-1.0-0.1-0.82","726","","f","","","","","","","","","","","","","key","f","16.65080180180129","682","379","f","true","img/C_ambi40.png","坏人","word_first",""
"","","","","","html-keyboard-response","326","828408","0.0-13.0-1.0-1.0-0.1-1.82","null","<span style='color:GreenYellow; font-size: 70px;'>正确! </span>","null","","","","","","","","","","","","","","","","","","","","","","","feedback_test"
"","","","","","psychophysics","327","830699","0.0-13.0-1.0-1.0-0.1-0.83","1138","","j","","","","","","","","","","","","","key","j","16.773425373134078","682","379","j","true","img/S_ambi40.png","坏人","word_first",""
"","","","","","html-keyboard-response","328","831016","0.0-13.0-1.0-1.0-0.1-1.83","null","<span style='color:GreenYellow; font-size: 70px;'>正确! </span>","null","","","","","","","","","","","","","","","","","","","","","","","feedback_test"
"","","","","","psychophysics","329","832786","0.0-13.0-1.0-1.0-0.1-0.84","607","","f","","","","","","","","","","","","","key","f","16.649846153846457","682","379","f","true","img/S_ambi40.png","常人","word_first",""
"","","","","","html-keyboard-response","330","833090","0.0-13.0-1.0-1.0-0.1-1.84","null","<span style='color:GreenYellow; font-size: 70px;'>正确! </span>","null","","","","","","","","","","","","","","","","","","","","","","","feedback_test"
"","","","","","psychophysics","331","835745","0.0-13.0-1.0-1.0-0.1-0.85","null","","null","","","","","","","","","","","","","key","null","16.862506410256266","682","379","f","false","img/C_ambi40.png","好人","word_first",""
"","","","","","html-keyboard-response","332","836049","0.0-13.0-1.0-1.0-0.1-1.85","null","<span class='add_' style='color:yellow; font-size: 70px;'> 太慢! </span>","null","","","","","","","","","","","","","","","","","","","","","","","feedback_test"
"","","","","","psychophysics","333","837876","0.0-13.0-1.0-1.0-0.1-0.86","673","","j","","","","","","","","","","","","","key","j","16.650592592592282","682","379","j","true","img/S_ambi40.png","坏人","word_first",""
"","","","","","html-keyboard-response","334","838187","0.0-13.0-1.0-1.0-0.1-1.86","null","<span style='color:GreenYellow; font-size: 70px;'>正确! </span>","null","","","","","","","","","","","","","","","","","","","","","","","feedback_test"
"","","","","","psychophysics","335","839997","0.0-13.0-1.0-1.0-0.1-0.87","659","","j","","","","","","","","","","","","","key","j","16.803396226414304","682","379","j","true","img/T_ambi40.png","好人","word_first",""
"","","","","","html-keyboard-response","336","840303","0.0-13.0-1.0-1.0-0.1-1.87","null","<span style='color:GreenYellow; font-size: 70px;'>正确! </span>","null","","","","","","","","","","","","","","","","","","","","","","","feedback_test"
"","","","","","psychophysics","337","842550","0.0-13.0-1.0-1.0-0.1-0.88","1092","","f","","","","","","","","","","","","","key","f","16.650216417910126","682","379","f","true","img/S_ambi40.png","好人","word_first",""
"","","","","","html-keyboard-response","338","842869","0.0-13.0-1.0-1.0-0.1-1.88","null","<span style='color:GreenYellow; font-size: 70px;'>正确! </span>","null","","","","","","","","","","","","","","","","","","","","","","","feedback_test"
"","","","","","psychophysics","339","844644","0.0-13.0-1.0-1.0-0.1-0.89","618","","j","","","","","","","","","","","","","key","j","16.64726923076915","682","379","j","true","img/C_ambi40.png","常人","word_first",""
"","","","","","html-keyboard-response","340","844949","0.0-13.0-1.0-1.0-0.1-1.89","null","<span style='color:GreenYellow; font-size: 70px;'>正确! </span>","null","","","","","","","","","","","","","","","","","","","","","","","feedback_test"
"","","","","","psychophysics","341","846836","0.0-13.0-1.0-1.0-0.1-0.90","730","","f","","","","","","","","","","","","","key","f","16.65635135135223","682","379","f","true","img/T_ambi40.png","常人","word_first",""
"","","","","","html-keyboard-response","342","847153","0.0-13.0-1.0-1.0-0.1-1.90","null","<span style='color:GreenYellow; font-size: 70px;'>正确! </span>","null","","","","","","","","","","","","","","","","","","","","","","","feedback_test"
"","","","","","psychophysics","343","848982","0.0-13.0-1.0-1.0-0.1-0.91","674","","j","","","","","","","","","","","","","key","j","16.65153703703739","682","379","j","true","img/S_ambi40.png","坏人","word_first",""
"","","","","","html-keyboard-response","344","849301","0.0-13.0-1.0-1.0-0.1-1.91","null","<span style='color:GreenYellow; font-size: 70px;'>正确! </span>","null","","","","","","","","","","","","","","","","","","","","","","","feedback_test"
"","","","","","psychophysics","345","851411","0.0-13.0-1.0-1.0-0.1-0.92","958","","j","","","","","","","","","","","","","key","j","16.65029600000009","682","379","j","true","img/C_ambi40.png","常人","word_first",""
"","","","","","html-keyboard-response","346","851722","0.0-13.0-1.0-1.0-0.1-1.92","null","<span style='color:GreenYellow; font-size: 70px;'>正确! </span>","null","","","","","","","","","","","","","","","","","","","","","","","feedback_test"
"","","","","","psychophysics","347","853636","0.0-13.0-1.0-1.0-0.1-0.93","761","","j","","","","","","","","","","","","","key","j","16.798267857143532","682","379","j","true","img/T_ambi40.png","好人","word_first",""
"","","","","","html-keyboard-response","348","853944","0.0-13.0-1.0-1.0-0.1-1.93","null","<span style='color:GreenYellow; font-size: 70px;'>正确! </span>","null","","","","","","","","","","","","","","","","","","","","","","","feedback_test"
"","","","","","psychophysics","349","855811","0.0-13.0-1.0-1.0-0.1-0.94","704","","f","","","","","","","","","","","","","key","f","16.650137614678815","682","379","f","true","img/T_ambi40.png","坏人","word_first",""
"","","","","","html-keyboard-response","350","856123","0.0-13.0-1.0-1.0-0.1-1.94","null","<span style='color:GreenYellow; font-size: 70px;'>正确! </span>","null","","","","","","","","","","","","","","","","","","","","","","","feedback_test"
"","","","","","psychophysics","351","858044","0.0-13.0-1.0-1.0-0.1-0.95","767","","f","","","","","","","","","","","","","key","f","16.650807017544203","682","379","f","true","img/C_ambi40.png","坏人","word_first",""
"","","","","","html-keyboard-response","352","858361","0.0-13.0-1.0-1.0-0.1-1.95","null","<span style='color:GreenYellow; font-size: 70px;'>正确! </span>","null","","","","","","","","","","","","","","","","","","","","","","","feedback_test"
"","","","","","psychophysics","353","860374","0.0-13.0-1.0-1.0-0.1-0.96","860","","f","","","","","","","","","","","","","key","f","16.65157983193229","682","379","f","true","img/S_ambi40.png","常人","word_first",""
"","","","","","html-keyboard-response","354","860689","0.0-13.0-1.0-1.0-0.1-1.96","null","<span style='color:GreenYellow; font-size: 70px;'>正确! </span>","null","","","","","","","","","","","","","","","","","","","","","","","feedback_test"
"","","","","","psychophysics","355","862483","0.0-13.0-1.0-1.0-0.1-0.97","641","","j","","","","","","","","","","","","","key","j","16.651830188679632","682","379","j","true","img/S_ambi40.png","坏人","word_first",""
"","","","","","html-keyboard-response","356","862792","0.0-13.0-1.0-1.0-0.1-1.97","null","<span style='color:GreenYellow; font-size: 70px;'>正确! </span>","null","","","","","","","","","","","","","","","","","","","","","","","feedback_test"
"","","","","","psychophysics","357","864872","0.0-13.0-1.0-1.0-0.1-0.98","925","","f","","","","","","","","","","","","","key","f","16.650658536585034","682","379","f","true","img/S_ambi40.png","好人","word_first",""
"","","","","","html-keyboard-response","358","865180","0.0-13.0-1.0-1.0-0.1-1.98","null","<span style='color:GreenYellow; font-size: 70px;'>正确! </span>","null","","","","","","","","","","","","","","","","","","","","","","","feedback_test"
"","","","","","psychophysics","359","866983","0.0-13.0-1.0-1.0-0.1-0.99","651","","j","","","","","","","","","","","","","key","j","16.80242452830217","682","379","j","true","img/T_ambi40.png","好人","word_first",""
"","","","","","html-keyboard-response","360","867291","0.0-13.0-1.0-1.0-0.1-1.99","null","<span style='color:GreenYellow; font-size: 70px;'>正确! </span>","null","","","","","","","","","","","","","","","","","","","","","","","feedback_test"
"","","","","","psychophysics","361","869311","0.0-13.0-1.0-1.0-0.1-0.100","867","","f","","","","","","","","","","","","","key","f","16.650216666666285","682","379","f","true","img/T_ambi40.png","常人","word_first",""
"","","","","","html-keyboard-response","362","869618","0.0-13.0-1.0-1.0-0.1-1.100","null","<span style='color:GreenYellow; font-size: 70px;'>正确! </span>","null","","","","","","","","","","","","","","","","","","","","","","","feedback_test"
"","","","","","psychophysics","363","871609","0.0-13.0-1.0-1.0-0.1-0.101","837","","f","","","","","","","","","","","","","key","f","16.79244827586206","682","379","f","true","img/C_ambi40.png","坏人","word_first",""
"","","","","","html-keyboard-response","364","871916","0.0-13.0-1.0-1.0-0.1-1.101","null","<span style='color:GreenYellow; font-size: 70px;'>正确! </span>","null","","","","","","","","","","","","","","","","","","","","","","","feedback_test"
"","","","","","psychophysics","365","873728","0.0-13.0-1.0-1.0-0.1-0.102","661","","j","","","","","","","","","","","","","key","j","16.650075471697523","682","379","j","true","img/C_ambi40.png","常人","word_first",""
"","","","","","html-keyboard-response","366","874032","0.0-13.0-1.0-1.0-0.1-1.102","null","<span style='color:GreenYellow; font-size: 70px;'>正确! </span>","null","","","","","","","","","","","","","","","","","","","","","","","feedback_test"
"","","","","","psychophysics","367","876092","0.0-13.0-1.0-1.0-0.1-0.103","903","","j","","","","","","","","","","","","","key","j","16.648999999999642","682","379","j","true","img/S_ambi40.png","坏人","word_first",""
"","","","","","html-keyboard-response","368","876410","0.0-13.0-1.0-1.0-0.1-1.103","null","<span style='color:GreenYellow; font-size: 70px;'>正确! </span>","null","","","","","","","","","","","","","","","","","","","","","","","feedback_test"
"","","","","","psychophysics","369","878421","0.0-13.0-1.0-1.0-0.1-0.104","852","","j","","","","","","","","","","","","","key","j","16.64997478991653","682","379","j","true","img/C_ambi40.png","常人","word_first",""
"","","","","","html-keyboard-response","370","878725","0.0-13.0-1.0-1.0-0.1-1.104","null","<span style='color:GreenYellow; font-size: 70px;'>正确! </span>","null","","","","","","","","","","","","","","","","","","","","","","","feedback_test"
"","","","","","psychophysics","371","880619","0.0-13.0-1.0-1.0-0.1-0.105","741","","f","","","","","","","","","","","","","key","f","16.650642857142625","682","379","f","true","img/C_ambi40.png","好人","word_first",""
"","","","","","html-keyboard-response","372","880930","0.0-13.0-1.0-1.0-0.1-1.105","null","<span style='color:GreenYellow; font-size: 70px;'>正确! </span>","null","","","","","","","","","","","","","","","","","","","","","","","feedback_test"
"","","","","","psychophysics","373","883214","0.0-13.0-1.0-1.0-0.1-0.106","1130","","f","","","","","","","","","","","","","key","f","16.642500000000034","682","379","f","true","img/T_ambi40.png","坏人","word_first",""
"","","","","","html-keyboard-response","374","883518","0.0-13.0-1.0-1.0-0.1-1.106","null","<span style='color:GreenYellow; font-size: 70px;'>正确! </span>","null","","","","","","","","","","","","","","","","","","","","","","","feedback_test"
"","","","","","psychophysics","375","885403","0.0-13.0-1.0-1.0-0.1-0.107","732","","j","","","","","","","","","","","","","key","j","16.650758928571513","682","379","j","true","img/T_ambi40.png","好人","word_first",""
"","","","","","html-keyboard-response","376","885709","0.0-13.0-1.0-1.0-0.1-1.107","null","<span style='color:GreenYellow; font-size: 70px;'>正确! </span>","null","","","","","","","","","","","","","","","","","","","","","","","feedback_test"
"","","","","","psychophysics","377","887468","0.0-13.0-1.0-1.0-0.1-0.108","606","","j","","","","","","","","","","","","","key","j","16.649346153846217","682","379","j","true","img/S_ambi40.png","坏人","word_first",""
"","","","","","html-keyboard-response","378","887776","0.0-13.0-1.0-1.0-0.1-1.108","null","<span style='color:GreenYellow; font-size: 70px;'>正确! </span>","null","","","","","","","","","","","","","","","","","","","","","","","feedback_test"
"","","","","","psychophysics","379","889858","0.0-13.0-1.0-1.0-0.1-0.109","930","","f","","","","","","","","","","","","","key","f","16.64876612903167","682","379","f","true","img/S_ambi40.png","好人","word_first",""
"","","","","","html-keyboard-response","380","890160","0.0-13.0-1.0-1.0-0.1-1.109","null","<span style='color:GreenYellow; font-size: 70px;'>正确! </span>","null","","","","","","","","","","","","","","","","","","","","","","","feedback_test"
"","","","","","psychophysics","381","891890","0.0-13.0-1.0-1.0-0.1-0.110","578","","j","","","","","","","","","","","","","key","j","16.648834951457033","682","379","j","true","img/C_ambi40.png","常人","word_first",""
"","","","","","html-keyboard-response","382","892194","0.0-13.0-1.0-1.0-0.1-1.110","null","<span style='color:GreenYellow; font-size: 70px;'>正确! </span>","null","","","","","","","","","","","","","","","","","","","","","","","feedback_test"
"","","","","","psychophysics","383","893922","0.0-13.0-1.0-1.0-0.1-0.111","576","","j","","","","","","","","","","","","","key","j","16.650460784313243","682","379","j","true","img/C_ambi40.png","常人","word_first",""
"","","","","","html-keyboard-response","384","894228","0.0-13.0-1.0-1.0-0.1-1.111","null","<span style='color:GreenYellow; font-size: 70px;'>正确! </span>","null","","","","","","","","","","","","","","","","","","","","","","","feedback_test"
"","","","","","psychophysics","385","896252","0.0-13.0-1.0-1.0-0.1-0.112","872","","f","","","","","","","","","","","","","key","f","16.65045378151244","682","379","f","true","img/T_ambi40.png","坏人","word_first",""
"","","","","","html-keyboard-response","386","896564","0.0-13.0-1.0-1.0-0.1-1.112","null","<span style='color:GreenYellow; font-size: 70px;'>正确! </span>","null","","","","","","","","","","","","","","","","","","","","","","","feedback_test"
"","","","","","psychophysics","387","898346","0.0-13.0-1.0-1.0-0.1-0.113","628","","j","","","","","","","","","","","","","key","j","16.64836190476171","682","379","f","false","img/C_ambi40.png","好人","word_first",""
"","","","","","html-keyboard-response","388","898659","0.0-13.0-1.0-1.0-0.1-1.113","null","<span style='color:red; font-size: 70px;'>错误! </span>","null","","","","","","","","","","","","","","","","","","","","","","","feedback_test"
"","","","","","psychophysics","389","900646","0.0-13.0-1.0-1.0-0.1-0.114","833","","j","","","","","","","","","","","","","key","j","16.648686440677334","682","379","j","true","img/T_ambi40.png","好人","word_first",""
"","","","","","html-keyboard-response","390","900957","0.0-13.0-1.0-1.0-0.1-1.114","null","<span style='color:GreenYellow; font-size: 70px;'>正确! </span>","null","","","","","","","","","","","","","","","","","","","","","","","feedback_test"
"","","","","","psychophysics","391","903162","0.0-13.0-1.0-1.0-0.1-0.115","1053","","f","","","","","","","","","","","","","key","f","16.642572519084162","682","379","f","true","img/S_ambi40.png","常人","word_first",""
"","","","","","html-keyboard-response","392","903472","0.0-13.0-1.0-1.0-0.1-1.115","null","<span style='color:GreenYellow; font-size: 70px;'>正确! </span>","null","","","","","","","","","","","","","","","","","","","","","","","feedback_test"
"","","","","","psychophysics","393","905377","0.0-13.0-1.0-1.0-0.1-0.116","753","","f","","","","","","","","","","","","","key","f","16.650132743362544","682","379","f","true","img/T_ambi40.png","常人","word_first",""
"","","","","","html-keyboard-response","394","905691","0.0-13.0-1.0-1.0-0.1-1.116","null","<span style='color:GreenYellow; font-size: 70px;'>正确! </span>","null","","","","","","","","","","","","","","","","","","","","","","","feedback_test"
"","","","","","psychophysics","395","907613","0.0-13.0-1.0-1.0-0.1-0.117","770","","j","","","","","","","","","","","","","key","j","16.64614912280772","682","379","j","true","img/T_ambi40.png","好人","word_first",""
"","","","","","html-keyboard-response","396","907916","0.0-13.0-1.0-1.0-0.1-1.117","null","<span style='color:GreenYellow; font-size: 70px;'>正确! </span>","null","","","","","","","","","","","","","","","","","","","","","","","feedback_test"
"","","","","","psychophysics","397","909773","0.0-13.0-1.0-1.0-0.1-0.118","704","","j","","","","","","","","","","","","","key","j","16.65075454545546","682","379","j","true","img/S_ambi40.png","坏人","word_first",""
"","","","","","html-keyboard-response","398","910078","0.0-13.0-1.0-1.0-0.1-1.118","null","<span style='color:GreenYellow; font-size: 70px;'>正确! </span>","null","","","","","","","","","","","","","","","","","","","","","","","feedback_test"
"","","","","","psychophysics","399","912409","0.0-13.0-1.0-1.0-0.1-0.119","1176","","f","","","","","","","","","","","","","key","f","16.64891970802921","682","379","f","true","img/C_ambi40.png","坏人","word_first",""
"","","","","","html-keyboard-response","400","912714","0.0-13.0-1.0-1.0-0.1-1.119","null","<span style='color:GreenYellow; font-size: 70px;'>正确! </span>","null","","","","","","","","","","","","","","","","","","","","","","","feedback_test"
"","","","","","html-keyboard-response","401","915516","0.0-13.0-1.0-1.0-1.1","2796","<style>.context{color:white; font-size: 35px; line-height:40px}</style>                              <div><p class='context'>您正确回答了95% 的试次。</p><p class='context'>您的平均反应时为801毫秒。</p><p class='context'>请按任意键进入休息</p></div>","j","","","","","","","","","","","","","","","","","","","","","","",""
"","","","","","html-button-response","402","931612","0.0-13.0-1.0-1.0-2.1","16088","
                      <p>您当前还剩余2组实验</p>
                      <p>现在是休息时间，当您结束休息后，您可以点击 结束休息 按钮 继续</p>
                      <p>建议休息时间还剩余<span id=""iii"">60</span>秒</p>","0","","","","","","","","","","","","","","","","","","","","","","",""
"","","","","","psychophysics","403","933583","0.0-13.0-1.0-1.0-0.2-0.120","816","","f","","","","","","","","","","","","","key","f","16.64979487179448","682","379","f","true","img/S_ambi40.png","好人","word_first",""
"","","","","","html-keyboard-response","404","933900","0.0-13.0-1.0-1.0-0.2-1.120","null","<span style='color:GreenYellow; font-size: 70px;'>正确! </span>","null","","","","","","","","","","","","","","","","","","","","","","","feedback_test"
"","","","","","psychophysics","405","935815","0.0-13.0-1.0-1.0-0.2-0.121","763","","j","","","","","","","","","","","","","key","j","16.650561403508682","682","379","j","true","img/S_ambi40.png","坏人","word_first",""
"","","","","","html-keyboard-response","406","936118","0.0-13.0-1.0-1.0-0.2-1.121","null","<span style='color:GreenYellow; font-size: 70px;'>正确! </span>","null","","","","","","","","","","","","","","","","","","","","","","","feedback_test"
"","","","","","psychophysics","407","937979","0.0-13.0-1.0-1.0-0.2-0.122","710","","j","","","","","","","","","","","","","key","j","16.650309090908955","682","379","j","true","img/T_ambi40.png","好人","word_first",""
"","","","","","html-keyboard-response","408","938294","0.0-13.0-1.0-1.0-0.2-1.122","null","<span style='color:GreenYellow; font-size: 70px;'>正确! </span>","null","","","","","","","","","","","","","","","","","","","","","","","feedback_test"
"","","","","","psychophysics","409","939911","0.0-13.0-1.0-1.0-0.2-0.123","465","","j","","","","","","","","","","","","","key","j","16.648552083332714","682","379","j","true","img/C_ambi40.png","常人","word_first",""
"","","","","","html-keyboard-response","410","940221","0.0-13.0-1.0-1.0-0.2-1.123","null","<span style='color:GreenYellow; font-size: 70px;'>正确! </span>","null","","","","","","","","","","","","","","","","","","","","","","","feedback_test"
"","","","","","psychophysics","411","941925","0.0-13.0-1.0-1.0-0.2-0.124","551","","j","","","","","","","","","","","","","key","j","16.65110891089097","682","379","j","true","img/T_ambi40.png","好人","word_first",""
"","","","","","html-keyboard-response","412","942237","0.0-13.0-1.0-1.0-0.2-1.124","null","<span style='color:GreenYellow; font-size: 70px;'>正确! </span>","null","","","","","","","","","","","","","","","","","","","","","","","feedback_test"
"","","","","","psychophysics","413","944056","0.0-13.0-1.0-1.0-0.2-0.125","667","","f","","","","","","","","","","","","","key","f","16.65097222222162","682","379","f","true","img/S_ambi40.png","常人","word_first",""
"","","","","","html-keyboard-response","414","944369","0.0-13.0-1.0-1.0-0.2-1.125","null","<span style='color:GreenYellow; font-size: 70px;'>正确! </span>","null","","","","","","","","","","","","","","","","","","","","","","","feedback_test"
"","","","","","psychophysics","415","946254","0.0-13.0-1.0-1.0-0.2-0.126","733","","j","","","","","","","","","","","","","key","j","16.64319642857195","682","379","j","true","img/C_ambi40.png","常人","word_first",""
"","","","","","html-keyboard-response","416","946557","0.0-13.0-1.0-1.0-0.2-1.126","null","<span style='color:GreenYellow; font-size: 70px;'>正确! </span>","null","","","","","","","","","","","","","","","","","","","","","","","feedback_test"
"","","","","","psychophysics","417","948403","0.0-13.0-1.0-1.0-0.2-0.127","693","","j","","","","","","","","","","","","","key","j","16.64983486238474","682","379","f","false","img/T_ambi40.png","坏人","word_first",""
"","","","","","html-keyboard-response","418","948713","0.0-13.0-1.0-1.0-0.2-1.127","null","<span style='color:red; font-size: 70px;'>错误! </span>","null","","","","","","","","","","","","","","","","","","","","","","","feedback_test"
"","","","","","psychophysics","419","950694","0.0-13.0-1.0-1.0-0.2-0.128","828","","f","","","","","","","","","","","","","key","f","16.641186440678243","682","379","f","true","img/C_ambi40.png","好人","word_first",""
"","","","","","html-keyboard-response","420","951006","0.0-13.0-1.0-1.0-0.2-1.128","null","<span style='color:GreenYellow; font-size: 70px;'>正确! </span>","null","","","","","","","","","","","","","","","","","","","","","","","feedback_test"
"","","","","","psychophysics","421","952736","0.0-13.0-1.0-1.0-0.2-0.129","574","","j","","","","","","","","","","","","","key","j","16.6512156862745","682","379","j","true","img/S_ambi40.png","坏人","word_first",""
"","","","","","html-keyboard-response","422","953044","0.0-13.0-1.0-1.0-0.2-1.129","null","<span style='color:GreenYellow; font-size: 70px;'>正确! </span>","null","","","","","","","","","","","","","","","","","","","","","","","feedback_test"
"","","","","","psychophysics","423","954845","0.0-13.0-1.0-1.0-0.2-0.130","646","","f","","","","","","","","","","","","","key","f","16.649037383176893","682","379","f","true","img/T_ambi40.png","常人","word_first",""
"","","","","","html-keyboard-response","424","955156","0.0-13.0-1.0-1.0-0.2-1.130","null","<span style='color:GreenYellow; font-size: 70px;'>正确! </span>","null","","","","","","","","","","","","","","","","","","","","","","","feedback_test"
"","","","","","psychophysics","425","957059","0.0-13.0-1.0-1.0-0.2-0.131","750","","f","","","","","","","","","","","","","key","f","16.644513274335914","682","379","f","true","img/C_ambi40.png","坏人","word_first",""
"","","","","","html-keyboard-response","426","957365","0.0-13.0-1.0-1.0-0.2-1.131","null","<span style='color:GreenYellow; font-size: 70px;'>正确! </span>","null","","","","","","","","","","","","","","","","","","","","","","","feedback_test"
"","","","","","psychophysics","427","959525","0.0-13.0-1.0-1.0-0.2-0.132","1006","","j","","","","","","","","","","","","","key","j","16.62707812499957","682","379","j","true","img/S_ambi40.png","坏人","word_first",""
"","","","","","html-keyboard-response","428","959827","0.0-13.0-1.0-1.0-0.2-1.132","null","<span style='color:GreenYellow; font-size: 70px;'>正确! </span>","null","","","","","","","","","","","","","","","","","","","","","","","feedback_test"
"","","","","","psychophysics","429","961855","0.0-13.0-1.0-1.0-0.2-0.133","876","","f","","","","","","","","","","","","","key","f","16.650884297520523","682","379","f","true","img/C_ambi40.png","好人","word_first",""
"","","","","","html-keyboard-response","430","962172","0.0-13.0-1.0-1.0-0.2-1.133","null","<span style='color:GreenYellow; font-size: 70px;'>正确! </span>","null","","","","","","","","","","","","","","","","","","","","","","","feedback_test"
"","","","","","psychophysics","431","964036","0.0-13.0-1.0-1.0-0.2-0.134","699","","f","","","","","","","","","","","","","key","f","16.65064545454542","682","379","j","false","img/S_ambi40.png","坏人","word_first",""
"","","","","","html-keyboard-response","432","964349","0.0-13.0-1.0-1.0-0.2-1.134","null","<span style='color:red; font-size: 70px;'>错误! </span>","null","","","","","","","","","","","","","","","","","","","","","","","feedback_test"
