"success","timeout","failed_images","failed_audio","failed_video","trial_type","trial_index","time_elapsed","internal_node_id","rt","stimulus","response","value","item_width_mm","item_height_mm","item_width_px","px2mm","view_dist_mm","item_width_deg","px2deg","scale_factor","win_width_deg","win_height_deg","view_history","response_type","key_press","avg_frame_time","center_x","center_y","correct_response","correct","Image","word","condition","screen_id"
"true","false","[]","[]","[]","preload","0","484","0.0-0.0","","","","","","","","","","","","","","","","","","","","","","","","","",""
"","","","","","html-keyboard-response","1","7130","0.0-1.0","6639","
     <p>您好，欢迎参加本次实验。</p>
     <p>为充分保障您的权利，请确保您已经知晓并同意《参与实验同意书》以及《数据公开知情同意书》。</p>
     <p>如果您未见过上述内容，请咨询实验员。</p>
     <p>如果您选择继续实验，则表示您已经清楚两份知情同意书的内容并同意。</p>
     <p> <div style = ""color: green""><按任意键至下页></div> </p>
     ","enter","","","","","","","","","","","","","","","","","","","","","","",""
"","","","","","html-keyboard-response","2","8204","0.0-2.0","1073","
     <p>本实验首先需要您填写一些基本个人信息。</p>
     <p> <div style = ""color: green""><按任意键至下页></div></p>
     ","enter","","","","","","","","","","","","","","","","","","","","","","",""
"","","","","","call-function","3","8205","0.0-3.0-0.0","","","","","","","","","","","","","","","","","","","","","","","","","",""
"","","","","","survey-html-form","4","11810","0.0-3.0-1.0","3600","","{""Q0"":""32""}","","","","","","","","","","","","","","","","","","","","","","",""
"","","","","","html-button-response","5","13712","0.0-3.0-2.0","1888","<p style = 'color : white'>您的性别</p>","1","","","","","","","","","","","","","","","","","","","","","","",""
"","","","","","survey-html-form","6","17433","0.0-3.0-3.0","3717","","{""Q0"":""2004""}","","","","","","","","","","","","","","","","","","","","","","",""
"","","","","","survey-html-form","7","20193","0.0-3.0-4.0","2757","","{""Q0"":""5""}","","","","","","","","","","","","","","","","","","","","","","",""
"","","","","","virtual-chinrest","8","96591","0.0-4.0","76395","","","","85.6","53.98","535.1668355434081","6.253308132708301","456.89","10.703336710868161","50","0.6876360333994408","29.8","15.08","","","","","","","","","","","",""
"true","","","","","fullscreen","9","99674","0.0-5.0","","","","","","","","","","","","","","","","","","","","","","","","","",""
"","","","","","instructions","10","130436","0.0-6.0","30761","","","","","","","","","","","","","","[{""page_index"":0,""viewing_time"":3698},{""page_index"":1,""viewing_time"":17785},{""page_index"":2,""viewing_time"":4992},{""page_index"":3,""viewing_time"":4285}]","","","","","","","","","","",""
"","","","","","psychophysics","11","132637","0.0-7.0-0.0-0.0","1043","","j","","","","","","","","","","","","","key","j","16.67296124031012","768","428","f","false","img/S_ambi40.png","好人","prac_image_first",""
"","","","","","html-keyboard-response","12","132938","0.0-7.0-0.0-1.0","null","<span style='color:red; font-size: 70px;'>错误! </span>","null","","","","","","","","","","","","","","","","","","","","","","","feedback_test"
"","","","","","psychophysics","13","134969","0.0-7.0-0.0-0.1","878","","f","","","","","","","","","","","","","key","f","16.673925619834815","768","428","f","true","img/T_ambi40.png","坏人","prac_image_first",""
"","","","","","html-keyboard-response","14","135281","0.0-7.0-0.0-1.1","null","<span style='color:GreenYellow; font-size: 70px;'>正确! </span>","null","","","","","","","","","","","","","","","","","","","","","","","feedback_test"
"","","","","","psychophysics","15","137333","0.0-7.0-0.0-0.2","896","","j","","","","","","","","","","","","","key","j","16.673270491803482","768","428","j","true","img/S_ambi40.png","常人","prac_image_first",""
"","","","","","html-keyboard-response","16","137644","0.0-7.0-0.0-1.2","null","<span style='color:GreenYellow; font-size: 70px;'>正确! </span>","null","","","","","","","","","","","","","","","","","","","","","","","feedback_test"
"","","","","","psychophysics","17","139503","0.0-7.0-0.0-0.3","697","","j","","","","","","","","","","","","","key","j","16.564467889908276","768","428","j","true","img/C_ambi40.png","好人","prac_image_first",""
"","","","","","html-keyboard-response","18","139820","0.0-7.0-0.0-1.3","null","<span style='color:GreenYellow; font-size: 70px;'>正确! </span>","null","","","","","","","","","","","","","","","","","","","","","","","feedback_test"
"","","","","","psychophysics","19","141754","0.0-7.0-0.0-0.4","778","","f","","","","","","","","","","","","","key","f","16.672991228070092","768","428","f","true","img/C_ambi40.png","常人","prac_image_first",""
"","","","","","html-keyboard-response","20","142062","0.0-7.0-0.0-1.4","null","<span style='color:GreenYellow; font-size: 70px;'>正确! </span>","null","","","","","","","","","","","","","","","","","","","","","","","feedback_test"
"","","","","","psychophysics","21","143875","0.0-7.0-0.0-0.5","656","","j","","","","","","","","","","","","","key","j","16.67449056603759","768","428","j","true","img/C_ambi40.png","坏人","prac_image_first",""
"","","","","","html-keyboard-response","22","144192","0.0-7.0-0.0-1.5","null","<span style='color:GreenYellow; font-size: 70px;'>正确! </span>","null","","","","","","","","","","","","","","","","","","","","","","","feedback_test"
"","","","","","psychophysics","23","145993","0.0-7.0-0.0-0.6","641","","j","","","","","","","","","","","","","key","j","16.673822429906423","768","428","j","true","img/T_ambi40.png","常人","prac_image_first",""
"","","","","","html-keyboard-response","24","146309","0.0-7.0-0.0-1.6","null","<span style='color:GreenYellow; font-size: 70px;'>正确! </span>","null","","","","","","","","","","","","","","","","","","","","","","","feedback_test"
"","","","","","psychophysics","25","148343","0.0-7.0-0.0-0.7","877","","j","","","","","","","","","","","","","key","j","16.674107438016613","768","428","j","true","img/T_ambi40.png","好人","prac_image_first",""
"","","","","","html-keyboard-response","26","148665","0.0-7.0-0.0-1.7","null","<span style='color:GreenYellow; font-size: 70px;'>正确! </span>","null","","","","","","","","","","","","","","","","","","","","","","","feedback_test"
"","","","","","psychophysics","27","150331","0.0-7.0-0.0-0.8","510","","f","","","","","","","","","","","","","key","f","16.674272727272697","768","428","f","true","img/S_ambi40.png","好人","prac_image_first",""
"","","","","","html-keyboard-response","28","150643","0.0-7.0-0.0-1.8","null","<span style='color:GreenYellow; font-size: 70px;'>正确! </span>","null","","","","","","","","","","","","","","","","","","","","","","","feedback_test"
"","","","","","psychophysics","29","152629","0.0-7.0-0.0-0.9","832","","f","","","","","","","","","","","","","key","f","16.672788135593184","768","428","f","true","img/T_ambi40.png","坏人","prac_image_first",""
"","","","","","html-keyboard-response","30","152938","0.0-7.0-0.0-1.9","null","<span style='color:GreenYellow; font-size: 70px;'>正确! </span>","null","","","","","","","","","","","","","","","","","","","","","","","feedback_test"
"","","","","","psychophysics","31","154529","0.0-7.0-0.0-0.10","429","","f","","","","","","","","","","","","","key","f","16.673202127659447","768","428","f","true","img/C_ambi40.png","常人","prac_image_first",""
"","","","","","html-keyboard-response","32","154845","0.0-7.0-0.0-1.10","null","<span style='color:GreenYellow; font-size: 70px;'>正确! </span>","null","","","","","","","","","","","","","","","","","","","","","","","feedback_test"
"","","","","","psychophysics","33","156558","0.0-7.0-0.0-0.11","557","","j","","","","","","","","","","","","","key","j","16.67315686274521","768","428","j","true","img/S_ambi40.png","坏人","prac_image_first",""
"","","","","","html-keyboard-response","34","156863","0.0-7.0-0.0-1.11","null","<span style='color:GreenYellow; font-size: 70px;'>正确! </span>","null","","","","","","","","","","","","","","","","","","","","","","","feedback_test"
"","","","","","psychophysics","35","158633","0.0-7.0-0.0-0.12","613","","j","","","","","","","","","","","","","key","j","16.673066666666585","768","428","j","true","img/T_ambi40.png","好人","prac_image_first",""
"","","","","","html-keyboard-response","36","158941","0.0-7.0-0.0-1.12","null","<span style='color:GreenYellow; font-size: 70px;'>正确! </span>","null","","","","","","","","","","","","","","","","","","","","","","","feedback_test"
"","","","","","psychophysics","37","160712","0.0-7.0-0.0-0.13","610","","j","","","","","","","","","","","","","key","j","16.673704761904776","768","428","j","true","img/C_ambi40.png","坏人","prac_image_first",""
"","","","","","html-keyboard-response","38","161027","0.0-7.0-0.0-1.13","null","<span style='color:GreenYellow; font-size: 70px;'>正确! </span>","null","","","","","","","","","","","","","","","","","","","","","","","feedback_test"
"","","","","","psychophysics","39","162852","0.0-7.0-0.0-0.14","661","","f","","","","","","","","","","","","","key","f","16.67184259259267","768","428","f","true","img/S_ambi40.png","好人","prac_image_first",""
"","","","","","html-keyboard-response","40","163158","0.0-7.0-0.0-1.14","null","<span style='color:GreenYellow; font-size: 70px;'>正确! </span>","null","","","","","","","","","","","","","","","","","","","","","","","feedback_test"
"","","","","","psychophysics","41","164833","0.0-7.0-0.0-0.15","522","","j","","","","","","","","","","","","","key","j","16.672888888888686","768","428","j","true","img/S_ambi40.png","坏人","prac_image_first",""
"","","","","","html-keyboard-response","42","165145","0.0-7.0-0.0-1.15","null","<span style='color:GreenYellow; font-size: 70px;'>正确! </span>","null","","","","","","","","","","","","","","","","","","","","","","","feedback_test"
"","","","","","psychophysics","43","166892","0.0-7.0-0.0-0.16","587","","f","","","","","","","","","","","","","key","f","16.673211538461494","768","428","f","true","img/C_ambi40.png","常人","prac_image_first",""
"","","","","","html-keyboard-response","44","167200","0.0-7.0-0.0-1.16","null","<span style='color:GreenYellow; font-size: 70px;'>正确! </span>","null","","","","","","","","","","","","","","","","","","","","","","","feedback_test"
"","","","","","psychophysics","45","169130","0.0-7.0-0.0-0.17","772","","f","","","","","","","","","","","","","key","f","16.674295652173864","768","428","f","true","img/T_ambi40.png","坏人","prac_image_first",""
"","","","","","html-keyboard-response","46","169434","0.0-7.0-0.0-1.17","null","<span style='color:GreenYellow; font-size: 70px;'>正确! </span>","null","","","","","","","","","","","","","","","","","","","","","","","feedback_test"
"","","","","","psychophysics","47","171155","0.0-7.0-0.0-0.18","566","","j","","","","","","","","","","","","","key","j","16.664441176470742","768","428","j","true","img/T_ambi40.png","常人","prac_image_first",""
"","","","","","html-keyboard-response","48","171473","0.0-7.0-0.0-1.18","null","<span style='color:GreenYellow; font-size: 70px;'>正确! </span>","null","","","","","","","","","","","","","","","","","","","","","","","feedback_test"
"","","","","","psychophysics","49","173404","0.0-7.0-0.0-0.19","777","","j","","","","","","","","","","","","","key","j","16.674912280701776","768","428","j","true","img/S_ambi40.png","常人","prac_image_first",""
"","","","","","html-keyboard-response","50","173720","0.0-7.0-0.0-1.19","null","<span style='color:GreenYellow; font-size: 70px;'>正确! </span>","null","","","","","","","","","","","","","","","","","","","","","","","feedback_test"
"","","","","","psychophysics","51","175535","0.0-7.0-0.0-0.20","657","","j","","","","","","","","","","","","","key","j","16.67377777777761","768","428","j","true","img/C_ambi40.png","好人","prac_image_first",""
"","","","","","html-keyboard-response","52","175849","0.0-7.0-0.0-1.20","null","<span style='color:GreenYellow; font-size: 70px;'>正确! </span>","null","","","","","","","","","","","","","","","","","","","","","","","feedback_test"
"","","","","","psychophysics","53","177549","0.0-7.0-0.0-0.21","548","","f","","","","","","","","","","","","","key","f","16.673277227722668","768","428","f","true","img/S_ambi40.png","好人","prac_image_first",""
"","","","","","html-keyboard-response","54","177859","0.0-7.0-0.0-1.21","null","<span style='color:GreenYellow; font-size: 70px;'>正确! </span>","null","","","","","","","","","","","","","","","","","","","","","","","feedback_test"
"","","","","","psychophysics","55","179471","0.0-7.0-0.0-0.22","460","","j","","","","","","","","","","","","","key","j","16.673463157894652","768","428","f","false","img/C_ambi40.png","常人","prac_image_first",""
"","","","","","html-keyboard-response","56","179784","0.0-7.0-0.0-1.22","null","<span style='color:red; font-size: 70px;'>错误! </span>","null","","","","","","","","","","","","","","","","","","","","","","","feedback_test"
"","","","","","psychophysics","57","181542","0.0-7.0-0.0-0.23","604","","f","","","","","","","","","","","","","key","f","16.67478846153832","768","428","f","true","img/T_ambi40.png","坏人","prac_image_first",""
"","","","","","html-keyboard-response","58","181848","0.0-7.0-0.0-1.23","null","<span style='color:GreenYellow; font-size: 70px;'>正确! </span>","null","","","","","","","","","","","","","","","","","","","","","","","feedback_test"
"","","","","","html-keyboard-response","59","184172","0.0-8.0","2316","<style>.context{color:white; font-size: 35px; line-height:40px}</style>                              <div><p class='context'>您正确回答了92% 的试次。</p><p class='context'>您的平均反应时为667毫秒。</p><p class='context'>恭喜您完成这一阶段的练习。按任意键进入<span style='color: yellow;'>先文字后图形条件</span>的练习。</p></div>","enter","","","","","","","","","","","","","","","","","","","","","","",""
"","","","","","psychophysics","60","186061","0.0-9.0-0.0-0.0","722","","j","","","","","","","","","","","","","key","j","16.6656964285716","768","428","j","true","img/T_ambi40.png","好人","prac_word_first",""
"","","","","","html-keyboard-response","61","186375","0.0-9.0-0.0-1.0","null","<span style='color:GreenYellow; font-size: 70px;'>正确! </span>","null","","","","","","","","","","","","","","","","","","","","","","","feedback_test"
"","","","","","psychophysics","62","188104","0.0-9.0-0.0-0.1","574","","f","","","","","","","","","","","","","key","f","16.67308737864086","768","428","f","true","img/C_ambi40.png","常人","prac_word_first",""
"","","","","","html-keyboard-response","63","188416","0.0-9.0-0.0-1.1","null","<span style='color:GreenYellow; font-size: 70px;'>正确! </span>","null","","","","","","","","","","","","","","","","","","","","","","","feedback_test"
"","","","","","psychophysics","64","190377","0.0-9.0-0.0-0.2","807","","f","","","","","","","","","","","","","key","f","16.67266379310353","768","428","f","true","img/T_ambi40.png","坏人","prac_word_first",""
"","","","","","html-keyboard-response","65","190682","0.0-9.0-0.0-1.2","null","<span style='color:GreenYellow; font-size: 70px;'>正确! </span>","null","","","","","","","","","","","","","","","","","","","","","","","feedback_test"
"","","","","","psychophysics","66","192249","0.0-9.0-0.0-0.3","409","","f","","","","","","","","","","","","","key","f","16.672956521739252","768","428","f","true","img/S_ambi40.png","好人","prac_word_first",""
"","","","","","html-keyboard-response","67","192564","0.0-9.0-0.0-1.3","null","<span style='color:GreenYellow; font-size: 70px;'>正确! </span>","null","","","","","","","","","","","","","","","","","","","","","","","feedback_test"
"","","","","","psychophysics","68","194360","0.0-9.0-0.0-0.4","641","","j","","","","","","","","","","","","","key","j","16.555858490566056","768","428","j","true","img/C_ambi40.png","好人","prac_word_first",""
"","","","","","html-keyboard-response","69","194666","0.0-9.0-0.0-1.4","null","<span style='color:GreenYellow; font-size: 70px;'>正确! </span>","null","","","","","","","","","","","","","","","","","","","","","","","feedback_test"
"","","","","","psychophysics","70","196449","0.0-9.0-0.0-0.5","630","","j","","","","","","","","","","","","","key","j","16.534952380952504","768","428","j","true","img/S_ambi40.png","常人","prac_word_first",""
"","","","","","html-keyboard-response","71","196760","0.0-9.0-0.0-1.5","null","<span style='color:GreenYellow; font-size: 70px;'>正确! </span>","null","","","","","","","","","","","","","","","","","","","","","","","feedback_test"
"","","","","","psychophysics","72","198595","0.0-9.0-0.0-0.6","678","","f","","","","","","","","","","","","","key","f","16.6629908256881","768","428","f","true","img/C_ambi40.png","常人","prac_word_first",""
"","","","","","html-keyboard-response","73","198898","0.0-9.0-0.0-1.6","null","<span style='color:GreenYellow; font-size: 70px;'>正确! </span>","null","","","","","","","","","","","","","","","","","","","","","","","feedback_test"
"","","","","","psychophysics","74","200759","0.0-9.0-0.0-0.7","702","","j","","","","","","","","","","","","","key","j","16.54731818181833","768","428","j","true","img/S_ambi40.png","坏人","prac_word_first",""
"","","","","","html-keyboard-response","75","201069","0.0-9.0-0.0-1.7","null","<span style='color:GreenYellow; font-size: 70px;'>正确! </span>","null","","","","","","","","","","","","","","","","","","","","","","","feedback_test"
"","","","","","psychophysics","76","202948","0.0-9.0-0.0-0.8","726","","j","","","","","","","","","","","","","key","j","16.67317117117125","768","428","j","true","img/T_ambi40.png","常人","prac_word_first",""
"","","","","","html-keyboard-response","77","203257","0.0-9.0-0.0-1.8","null","<span style='color:GreenYellow; font-size: 70px;'>正确! </span>","null","","","","","","","","","","","","","","","","","","","","","","","feedback_test"
"","","","","","psychophysics","78","205920","0.0-9.0-0.0-0.9","null","","null","","","","","","","","","","","","","key","null","16.672500000000028","768","428","f","false","img/S_ambi40.png","好人","prac_word_first",""
"","","","","","html-keyboard-response","79","206237","0.0-9.0-0.0-1.9","null","<span class='add_' style='color:yellow; font-size: 70px;'> 太慢! </span>","null","","","","","","","","","","","","","","","","","","","","","","","feedback_test"
"","","","","","psychophysics","80","208061","0.0-9.0-0.0-0.10","661","","j","","","","","","","","","","","","","key","j","16.67259259259245","768","428","j","true","img/C_ambi40.png","坏人","prac_word_first",""
"","","","","","html-keyboard-response","81","208374","0.0-9.0-0.0-1.10","null","<span style='color:GreenYellow; font-size: 70px;'>正确! </span>","null","","","","","","","","","","","","","","","","","","","","","","","feedback_test"
"","","","","","psychophysics","82","210160","0.0-9.0-0.0-0.11","620","","f","","","","","","","","","","","","","key","f","16.67281904761912","768","428","f","true","img/T_ambi40.png","坏人","prac_word_first",""
"","","","","","html-keyboard-response","83","210481","0.0-9.0-0.0-1.11","null","<span style='color:GreenYellow; font-size: 70px;'>正确! </span>","null","","","","","","","","","","","","","","","","","","","","","","","feedback_test"
"","","","","","psychophysics","84","212543","0.0-9.0-0.0-0.12","901","","f","","","","","","","","","","","","","key","f","16.674024390243893","768","428","f","true","img/S_ambi40.png","好人","prac_word_first",""
"","","","","","html-keyboard-response","85","212848","0.0-9.0-0.0-1.12","null","<span style='color:GreenYellow; font-size: 70px;'>正确! </span>","null","","","","","","","","","","","","","","","","","","","","","","","feedback_test"
"","","","","","psychophysics","86","214699","0.0-9.0-0.0-0.13","693","","f","","","","","","","","","","","","","key","f","16.673518181818178","768","428","f","true","img/T_ambi40.png","坏人","prac_word_first",""
"","","","","","html-keyboard-response","87","215011","0.0-9.0-0.0-1.13","null","<span style='color:GreenYellow; font-size: 70px;'>正确! </span>","null","","","","","","","","","","","","","","","","","","","","","","","feedback_test"
"","","","","","psychophysics","88","216714","0.0-9.0-0.0-0.14","543","","j","","","","","","","","","","","","","key","j","16.674230000000097","768","428","j","true","img/S_ambi40.png","坏人","prac_word_first",""
"","","","","","html-keyboard-response","89","217034","0.0-9.0-0.0-1.14","null","<span style='color:GreenYellow; font-size: 70px;'>正确! </span>","null","","","","","","","","","","","","","","","","","","","","","","","feedback_test"
"","","","","","psychophysics","90","218772","0.0-9.0-0.0-0.15","581","","f","","","","","","","","","","","","","key","f","16.673252427184476","768","428","j","false","img/T_ambi40.png","好人","prac_word_first",""
"","","","","","html-keyboard-response","91","219073","0.0-9.0-0.0-1.15","null","<span style='color:red; font-size: 70px;'>错误! </span>","null","","","","","","","","","","","","","","","","","","","","","","","feedback_test"
"","","","","","psychophysics","92","220923","0.0-9.0-0.0-0.16","696","","j","","","","","","","","","","","","","key","j","16.56231192660565","768","428","j","true","img/S_ambi40.png","常人","prac_word_first",""
"","","","","","html-keyboard-response","93","221229","0.0-9.0-0.0-1.16","null","<span style='color:GreenYellow; font-size: 70px;'>正确! </span>","null","","","","","","","","","","","","","","","","","","","","","","","feedback_test"
"","","","","","psychophysics","94","223122","0.0-9.0-0.0-0.17","742","","f","","","","","","","","","","","","","key","f","16.672133928571515","768","428","f","true","img/C_ambi40.png","常人","prac_word_first",""
"","","","","","html-keyboard-response","95","223426","0.0-9.0-0.0-1.17","null","<span style='color:GreenYellow; font-size: 70px;'>正确! </span>","null","","","","","","","","","","","","","","","","","","","","","","","feedback_test"
"","","","","","psychophysics","96","225283","0.0-9.0-0.0-0.18","696","","j","","","","","","","","","","","","","key","j","16.67516513761462","768","428","j","true","img/C_ambi40.png","好人","prac_word_first",""
"","","","","","html-keyboard-response","97","225593","0.0-9.0-0.0-1.18","null","<span style='color:GreenYellow; font-size: 70px;'>正确! </span>","null","","","","","","","","","","","","","","","","","","","","","","","feedback_test"
"","","","","","psychophysics","98","227404","0.0-9.0-0.0-0.19","650","","f","","","","","","","","","","","","","key","f","16.67479439252317","768","428","f","true","img/C_ambi40.png","常人","prac_word_first",""
"","","","","","html-keyboard-response","99","227708","0.0-9.0-0.0-1.19","null","<span style='color:GreenYellow; font-size: 70px;'>正确! </span>","null","","","","","","","","","","","","","","","","","","","","","","","feedback_test"
"","","","","","psychophysics","100","229404","0.0-9.0-0.0-0.20","542","","j","","","","","","","","","","","","","key","j","16.67423999999999","768","428","f","false","img/S_ambi40.png","好人","prac_word_first",""
"","","","","","html-keyboard-response","101","229711","0.0-9.0-0.0-1.20","null","<span style='color:red; font-size: 70px;'>错误! </span>","null","","","","","","","","","","","","","","","","","","","","","","","feedback_test"
"","","","","","psychophysics","102","231934","0.0-9.0-0.0-0.21","1069","","j","","","","","","","","","","","","","key","j","16.673763358778675","768","428","j","true","img/T_ambi40.png","常人","prac_word_first",""
"","","","","","html-keyboard-response","103","232240","0.0-9.0-0.0-1.21","null","<span style='color:GreenYellow; font-size: 70px;'>正确! </span>","null","","","","","","","","","","","","","","","","","","","","","","","feedback_test"
"","","","","","psychophysics","104","234119","0.0-9.0-0.0-0.22","714","","j","","","","","","","","","","","","","key","j","16.668553571428543","768","428","j","true","img/C_ambi40.png","坏人","prac_word_first",""
"","","","","","html-keyboard-response","105","234424","0.0-9.0-0.0-1.22","null","<span style='color:GreenYellow; font-size: 70px;'>正确! </span>","null","","","","","","","","","","","","","","","","","","","","","","","feedback_test"
"","","","","","psychophysics","106","236692","0.0-9.0-0.0-0.23","1112","","j","","","","","","","","","","","","","key","j","16.67328888888889","768","428","f","false","img/T_ambi40.png","坏人","prac_word_first",""
"","","","","","html-keyboard-response","107","236998","0.0-9.0-0.0-1.23","null","<span style='color:red; font-size: 70px;'>错误! </span>","null","","","","","","","","","","","","","","","","","","","","","","","feedback_test"
"","","","","","html-keyboard-response","108","238676","0.0-10.0","1675","<style>.context{color:white; font-size: 35px; line-height:40px}</style>                              <div><p class='context'>您正确回答了83% 的试次。</p><p class='context'>您的平均反应时为694毫秒。</p><p class='context'>恭喜您完成练习。按任意键进入<span style='color: yellow;'>图形和文字同时呈现条件</span>的练习。</p></div>","enter","","","","","","","","","","","","","","","","","","","","","","",""
"","","","","","psychophysics","109","240535","0.0-11.0-0.0-0.0","847","","j","","","","","","","","","","","","","key","j","16.681081818181767","768","428","j","true","img/C_ambi40.png","坏人","prac_simultaneous",""
"","","","","","html-keyboard-response","110","240853","0.0-11.0-0.0-1.0","null","<span style='color:GreenYellow; font-size: 70px;'>正确! </span>","null","","","","","","","","","","","","","","","","","","","","","","","feedback_test"
"","","","","","psychophysics","111","242489","0.0-11.0-0.0-0.1","635","","f","","","","","","","","","","","","","key","f","16.672865979381257","768","428","f","true","img/C_ambi40.png","常人","prac_simultaneous",""
"","","","","","html-keyboard-response","112","242808","0.0-11.0-0.0-1.1","null","<span style='color:GreenYellow; font-size: 70px;'>正确! </span>","null","","","","","","","","","","","","","","","","","","","","","","","feedback_test"
"","","","","","psychophysics","113","244558","0.0-11.0-0.0-0.2","746","","f","","","","","","","","","","","","","key","f","16.67298076923068","768","428","f","true","img/T_ambi40.png","坏人","prac_simultaneous",""
"","","","","","html-keyboard-response","114","244859","0.0-11.0-0.0-1.2","null","<span style='color:GreenYellow; font-size: 70px;'>正确! </span>","null","","","","","","","","","","","","","","","","","","","","","","","feedback_test"
"","","","","","psychophysics","115","246523","0.0-11.0-0.0-0.3","654","","j","","","","","","","","","","","","","key","j","16.672989795918454","768","428","j","true","img/C_ambi40.png","好人","prac_simultaneous",""
"","","","","","html-keyboard-response","116","246832","0.0-11.0-0.0-1.3","null","<span style='color:GreenYellow; font-size: 70px;'>正确! </span>","null","","","","","","","","","","","","","","","","","","","","","","","feedback_test"
"","","","","","psychophysics","117","248626","0.0-11.0-0.0-0.4","791","","f","","","","","","","","","","","","","key","f","16.589820754717056","768","428","j","false","img/S_ambi40.png","常人","prac_simultaneous",""
"","","","","","html-keyboard-response","118","248941","0.0-11.0-0.0-1.4","null","<span style='color:red; font-size: 70px;'>错误! </span>","null","","","","","","","","","","","","","","","","","","","","","","","feedback_test"
"","","","","","psychophysics","119","250629","0.0-11.0-0.0-0.5","685","","f","","","","","","","","","","","","","key","f","16.672880000000006","768","428","f","true","img/T_ambi40.png","坏人","prac_simultaneous",""
"","","","","","html-keyboard-response","120","250932","0.0-11.0-0.0-1.5","null","<span style='color:GreenYellow; font-size: 70px;'>正确! </span>","null","","","","","","","","","","","","","","","","","","","","","","","feedback_test"
"","","","","","psychophysics","121","252581","0.0-11.0-0.0-0.6","642","","j","","","","","","","","","","","","","key","j","16.672999999999977","768","428","j","true","img/S_ambi40.png","坏人","prac_simultaneous",""
"","","","","","html-keyboard-response","122","252887","0.0-11.0-0.0-1.6","null","<span style='color:GreenYellow; font-size: 70px;'>正确! </span>","null","","","","","","","","","","","","","","","","","","","","","","","feedback_test"
"","","","","","psychophysics","123","254718","0.0-11.0-0.0-0.7","828","","f","","","","","","","","","","","","","key","f","16.673444444444343","768","428","f","true","img/S_ambi40.png","好人","prac_simultaneous",""
"","","","","","html-keyboard-response","124","255034","0.0-11.0-0.0-1.7","null","<span style='color:GreenYellow; font-size: 70px;'>正确! </span>","null","","","","","","","","","","","","","","","","","","","","","","","feedback_test"
"","","","","","psychophysics","125","256680","0.0-11.0-0.0-0.8","640","","j","","","","","","","","","","","","","key","j","16.673204081632523","768","428","j","true","img/T_ambi40.png","常人","prac_simultaneous",""
"","","","","","html-keyboard-response","126","256981","0.0-11.0-0.0-1.8","null","<span style='color:GreenYellow; font-size: 70px;'>正确! </span>","null","","","","","","","","","","","","","","","","","","","","","","","feedback_test"
"","","","","","psychophysics","127","258663","0.0-11.0-0.0-0.9","678","","j","","","","","","","","","","","","","key","j","16.674040404040216","768","428","j","true","img/T_ambi40.png","好人","prac_simultaneous",""
"","","","","","html-keyboard-response","128","258969","0.0-11.0-0.0-1.9","null","<span style='color:GreenYellow; font-size: 70px;'>正确! </span>","null","","","","","","","","","","","","","","","","","","","","","","","feedback_test"
"","","","","","psychophysics","129","260548","0.0-11.0-0.0-0.10","574","","f","","","","","","","","","","","","","key","f","16.673095744680936","768","428","f","true","img/C_ambi40.png","常人","prac_simultaneous",""
"","","","","","html-keyboard-response","130","260864","0.0-11.0-0.0-1.10","null","<span style='color:GreenYellow; font-size: 70px;'>正确! </span>","null","","","","","","","","","","","","","","","","","","","","","","","feedback_test"
"","","","","","psychophysics","131","262437","0.0-11.0-0.0-0.11","564","","f","","","","","","","","","","","","","key","f","16.674215053763337","768","428","f","true","img/S_ambi40.png","好人","prac_simultaneous",""
"","","","","","html-keyboard-response","132","262746","0.0-11.0-0.0-1.11","null","<span style='color:GreenYellow; font-size: 70px;'>正确! </span>","null","","","","","","","","","","","","","","","","","","","","","","","feedback_test"
"","","","","","psychophysics","133","264489","0.0-11.0-0.0-0.12","731","","j","","","","","","","","","","","","","key","j","16.664728155339848","768","428","j","true","img/S_ambi40.png","坏人","prac_simultaneous",""
"","","","","","html-keyboard-response","134","264799","0.0-11.0-0.0-1.12","null","<span style='color:GreenYellow; font-size: 70px;'>正确! </span>","null","","","","","","","","","","","","","","","","","","","","","","","feedback_test"
"","","","","","psychophysics","135","266472","0.0-11.0-0.0-0.13","667","","f","","","","","","","","","","","","","key","f","16.67628282828273","768","428","f","true","img/T_ambi40.png","坏人","prac_simultaneous",""
"","","","","","html-keyboard-response","136","266774","0.0-11.0-0.0-1.13","null","<span style='color:GreenYellow; font-size: 70px;'>正确! </span>","null","","","","","","","","","","","","","","","","","","","","","","","feedback_test"
"","","","","","psychophysics","137","268381","0.0-11.0-0.0-0.14","590","","j","","","","","","","","","","","","","key","j","16.526189473684337","768","428","j","true","img/T_ambi40.png","常人","prac_simultaneous",""
"","","","","","html-keyboard-response","138","268700","0.0-11.0-0.0-1.14","null","<span style='color:GreenYellow; font-size: 70px;'>正确! </span>","null","","","","","","","","","","","","","","","","","","","","","","","feedback_test"
"","","","","","psychophysics","139","270310","0.0-11.0-0.0-0.15","601","","f","","","","","","","","","","","","","key","f","16.67392631578933","768","428","f","true","img/S_ambi40.png","好人","prac_simultaneous",""
"","","","","","html-keyboard-response","140","270622","0.0-11.0-0.0-1.15","null","<span style='color:GreenYellow; font-size: 70px;'>正确! </span>","null","","","","","","","","","","","","","","","","","","","","","","","feedback_test"
"","","","","","psychophysics","141","272269","0.0-11.0-0.0-0.16","641","","j","","","","","","","","","","","","","key","j","16.67357142857093","768","428","j","true","img/C_ambi40.png","坏人","prac_simultaneous",""
"","","","","","html-keyboard-response","142","272578","0.0-11.0-0.0-1.16","null","<span style='color:GreenYellow; font-size: 70px;'>正确! </span>","null","","","","","","","","","","","","","","","","","","","","","","","feedback_test"
"","","","","","psychophysics","143","274153","0.0-11.0-0.0-0.17","570","","f","","","","","","","","","","","","","key","f","16.671548387097065","768","428","j","false","img/T_ambi40.png","好人","prac_simultaneous",""
"","","","","","html-keyboard-response","144","274462","0.0-11.0-0.0-1.17","null","<span style='color:red; font-size: 70px;'>错误! </span>","null","","","","","","","","","","","","","","","","","","","","","","","feedback_test"
"","","","","","psychophysics","145","276128","0.0-11.0-0.0-0.18","658","","f","","","","","","","","","","","","","key","f","16.67341836734689","768","428","f","true","img/C_ambi40.png","常人","prac_simultaneous",""
"","","","","","html-keyboard-response","146","276434","0.0-11.0-0.0-1.18","null","<span style='color:GreenYellow; font-size: 70px;'>正确! </span>","null","","","","","","","","","","","","","","","","","","","","","","","feedback_test"
"","","","","","psychophysics","147","278213","0.0-11.0-0.0-0.19","775","","j","","","","","","","","","","","","","key","j","16.67372380952362","768","428","j","true","img/C_ambi40.png","好人","prac_simultaneous",""
"","","","","","html-keyboard-response","148","278529","0.0-11.0-0.0-1.19","null","<span style='color:GreenYellow; font-size: 70px;'>正确! </span>","null","","","","","","","","","","","","","","","","","","","","","","","feedback_test"
"","","","","","psychophysics","149","280291","0.0-11.0-0.0-0.20","758","","j","","","","","","","","","","","","","key","j","16.672471153846484","768","428","f","false","img/C_ambi40.png","常人","prac_simultaneous",""
"","","","","","html-keyboard-response","150","280592","0.0-11.0-0.0-1.20","null","<span style='color:red; font-size: 70px;'>错误! </span>","null","","","","","","","","","","","","","","","","","","","","","","","feedback_test"
"","","","","","psychophysics","151","282475","0.0-11.0-0.0-0.21","869","","f","","","","","","","","","","","","","key","f","16.673955357142404","768","428","f","true","img/T_ambi40.png","坏人","prac_simultaneous",""
"","","","","","html-keyboard-response","152","282790","0.0-11.0-0.0-1.21","null","<span style='color:GreenYellow; font-size: 70px;'>正确! </span>","null","","","","","","","","","","","","","","","","","","","","","","","feedback_test"
"","","","","","psychophysics","153","284491","0.0-11.0-0.0-0.22","691","","f","","","","","","","","","","","","","key","f","16.672663366336764","768","428","f","true","img/S_ambi40.png","好人","prac_simultaneous",""
"","","","","","html-keyboard-response","154","284801","0.0-11.0-0.0-1.22","null","<span style='color:GreenYellow; font-size: 70px;'>正确! </span>","null","","","","","","","","","","","","","","","","","","","","","","","feedback_test"
"","","","","","psychophysics","155","286573","0.0-11.0-0.0-0.23","765","","j","","","","","","","","","","","","","key","j","16.673428571428218","768","428","j","true","img/S_ambi40.png","常人","prac_simultaneous",""
"","","","","","html-keyboard-response","156","286887","0.0-11.0-0.0-1.23","null","<span style='color:GreenYellow; font-size: 70px;'>正确! </span>","null","","","","","","","","","","","","","","","","","","","","","","","feedback_test"
"","","","","","html-keyboard-response","157","288298","0.0-12.0","1408","<style>.context{color:white; font-size: 35px; line-height:40px}</style>                              <div><p class='context'>您正确回答了88% 的试次。</p><p class='context'>您的平均反应时为690毫秒。</p><p class='context'>恭喜您完成练习。按任意键进入正式实验。</p><p class='footer' style='font-size: 35px; line-height:40px;'>请在进入正式实验实验之前将您的<span style='color: lightgreen;'>食指</span>放在电脑键盘的相应键位上进行按键。</p>","enter","","","","","","","","","","","","","","","","","","","","","","",""
"","","","","","html-keyboard-response","158","289850","0.0-13.0-1.0-0.0","1537","
      <p>请您将手指放在按键上，准备进入呈现顺序为<span style='color: yellow;'>先文字后图形条件</span>的正式匹配任务</p>
      <p> <div style = ""color: green""><按任意键进入下一阶段的匹配任务></div></p>
      ","enter","","","","","","","","","","","","","","","","","","","","","","",""
"","","","","","psychophysics","159","291674","0.0-13.0-1.0-1.0-0.0-0.0","660","","f","","","","","","","","","","","","","key","f","16.58148598130825","768","428","f","true","img/C_ambi40.png","常人","word_first",""
"","","","","","html-keyboard-response","160","291979","0.0-13.0-1.0-1.0-0.0-1.0","null","<span style='color:GreenYellow; font-size: 70px;'>正确! </span>","null","","","","","","","","","","","","","","","","","","","","","","","feedback_test"
"","","","","","psychophysics","161","293694","0.0-13.0-1.0-1.0-0.0-0.1","558","","j","","","","","","","","","","","","","key","j","16.672970588235117","768","428","j","true","img/T_ambi40.png","常人","word_first",""
"","","","","","html-keyboard-response","162","294003","0.0-13.0-1.0-1.0-0.0-1.1","null","<span style='color:GreenYellow; font-size: 70px;'>正确! </span>","null","","","","","","","","","","","","","","","","","","","","","","","feedback_test"
"","","","","","psychophysics","163","295866","0.0-13.0-1.0-1.0-0.0-0.2","703","","j","","","","","","","","","","","","","key","j","16.673990909091135","768","428","j","true","img/C_ambi40.png","好人","word_first",""
"","","","","","html-keyboard-response","164","296181","0.0-13.0-1.0-1.0-0.0-1.2","null","<span style='color:GreenYellow; font-size: 70px;'>正确! </span>","null","","","","","","","","","","","","","","","","","","","","","","","feedback_test"
"","","","","","psychophysics","165","297930","0.0-13.0-1.0-1.0-0.0-0.3","597","","f","","","","","","","","","","","","","key","f","16.66744230769221","768","428","f","true","img/S_ambi40.png","好人","word_first",""
"","","","","","html-keyboard-response","166","298233","0.0-13.0-1.0-1.0-0.0-1.3","null","<span style='color:GreenYellow; font-size: 70px;'>正确! </span>","null","","","","","","","","","","","","","","","","","","","","","","","feedback_test"
"","","","","","psychophysics","167","300195","0.0-13.0-1.0-1.0-0.0-0.4","800","","f","","","","","","","","","","","","","key","f","16.67400000000007","768","428","f","true","img/S_ambi40.png","好人","word_first",""
"","","","","","html-keyboard-response","168","300501","0.0-13.0-1.0-1.0-0.0-1.4","null","<span style='color:GreenYellow; font-size: 70px;'>正确! </span>","null","","","","","","","","","","","","","","","","","","","","","","","feedback_test"
"","","","","","psychophysics","169","302275","0.0-13.0-1.0-1.0-0.0-0.5","614","","f","","","","","","","","","","","","","key","f","16.672066037735863","768","428","f","true","img/T_ambi40.png","坏人","word_first",""
"","","","","","html-keyboard-response","170","302584","0.0-13.0-1.0-1.0-0.0-1.5","null","<span style='color:GreenYellow; font-size: 70px;'>正确! </span>","null","","","","","","","","","","","","","","","","","","","","","","","feedback_test"
"","","","","","psychophysics","171","304492","0.0-13.0-1.0-1.0-0.0-0.6","747","","f","","","","","","","","","","","","","key","f","16.67324778761053","768","428","f","true","img/C_ambi40.png","常人","word_first",""
"","","","","","html-keyboard-response","172","304803","0.0-13.0-1.0-1.0-0.0-1.6","null","<span style='color:GreenYellow; font-size: 70px;'>正确! </span>","null","","","","","","","","","","","","","","","","","","","","","","","feedback_test"
"","","","","","psychophysics","173","306721","0.0-13.0-1.0-1.0-0.0-0.7","762","","j","","","","","","","","","","","","","key","j","16.67354385964899","768","428","j","true","img/T_ambi40.png","好人","word_first",""
"","","","","","html-keyboard-response","174","307038","0.0-13.0-1.0-1.0-0.0-1.7","null","<span style='color:GreenYellow; font-size: 70px;'>正确! </span>","null","","","","","","","","","","","","","","","","","","","","","","","feedback_test"
"","","","","","psychophysics","175","308957","0.0-13.0-1.0-1.0-0.0-0.8","757","","j","","","","","","","","","","","","","key","j","16.673114035087597","768","428","j","true","img/C_ambi40.png","坏人","word_first",""
"","","","","","html-keyboard-response","176","309272","0.0-13.0-1.0-1.0-0.0-1.8","null","<span style='color:GreenYellow; font-size: 70px;'>正确! </span>","null","","","","","","","","","","","","","","","","","","","","","","","feedback_test"
"","","","","","psychophysics","177","311135","0.0-13.0-1.0-1.0-0.0-0.9","710","","j","","","","","","","","","","","","","key","j","16.67298198198199","768","428","j","true","img/S_ambi40.png","坏人","word_first",""
"","","","","","html-keyboard-response","178","311439","0.0-13.0-1.0-1.0-0.0-1.9","null","<span style='color:GreenYellow; font-size: 70px;'>正确! </span>","null","","","","","","","","","","","","","","","","","","","","","","","feedback_test"
"","","","","","psychophysics","179","313290","0.0-13.0-1.0-1.0-0.0-0.10","696","","f","","","","","","","","","","","","","key","f","16.671963636363877","768","428","f","true","img/T_ambi40.png","坏人","word_first",""
"","","","","","html-keyboard-response","180","313602","0.0-13.0-1.0-1.0-0.0-1.10","null","<span style='color:GreenYellow; font-size: 70px;'>正确! </span>","null","","","","","","","","","","","","","","","","","","","","","","","feedback_test"
"","","","","","psychophysics","181","315285","0.0-13.0-1.0-1.0-0.0-0.11","525","","j","","","","","","","","","","","","","key","j","16.673171717171424","768","428","j","true","img/S_ambi40.png","常人","word_first",""
"","","","","","html-keyboard-response","182","315602","0.0-13.0-1.0-1.0-0.0-1.11","null","<span style='color:GreenYellow; font-size: 70px;'>正确! </span>","null","","","","","","","","","","","","","","","","","","","","","","","feedback_test"
"","","","","","psychophysics","183","317406","0.0-13.0-1.0-1.0-0.0-0.12","644","","j","","","","","","","","","","","","","key","j","16.674327102803655","768","428","j","true","img/C_ambi40.png","好人","word_first",""
"","","","","","html-keyboard-response","184","317720","0.0-13.0-1.0-1.0-0.0-1.12","null","<span style='color:GreenYellow; font-size: 70px;'>正确! </span>","null","","","","","","","","","","","","","","","","","","","","","","","feedback_test"
"","","","","","psychophysics","185","319445","0.0-13.0-1.0-1.0-0.0-0.13","565","","j","","","","","","","","","","","","","key","j","16.66176470588235","768","428","j","true","img/C_ambi40.png","坏人","word_first",""
"","","","","","html-keyboard-response","186","319754","0.0-13.0-1.0-1.0-0.0-1.13","null","<span style='color:GreenYellow; font-size: 70px;'>正确! </span>","null","","","","","","","","","","","","","","","","","","","","","","","feedback_test"
"","","","","","psychophysics","187","321383","0.0-13.0-1.0-1.0-0.0-0.14","470","","f","","","","","","","","","","","","","key","f","16.672958762886616","768","428","f","true","img/C_ambi40.png","常人","word_first",""
"","","","","","html-keyboard-response","188","321698","0.0-13.0-1.0-1.0-0.0-1.14","null","<span style='color:GreenYellow; font-size: 70px;'>正确! </span>","null","","","","","","","","","","","","","","","","","","","","","","","feedback_test"
"","","","","","psychophysics","189","323351","0.0-13.0-1.0-1.0-0.0-0.15","502","","j","","","","","","","","","","","","","key","j","16.6732857142859","768","428","j","true","img/S_ambi40.png","坏人","word_first",""
"","","","","","html-keyboard-response","190","323659","0.0-13.0-1.0-1.0-0.0-1.15","null","<span style='color:GreenYellow; font-size: 70px;'>正确! </span>","null","","","","","","","","","","","","","","","","","","","","","","","feedback_test"
"","","","","","psychophysics","191","325375","0.0-13.0-1.0-1.0-0.0-0.16","560","","j","","","","","","","","","","","","","key","j","16.672833333333482","768","428","j","true","img/T_ambi40.png","好人","word_first",""
"","","","","","html-keyboard-response","192","325691","0.0-13.0-1.0-1.0-0.0-1.16","null","<span style='color:GreenYellow; font-size: 70px;'>正确! </span>","null","","","","","","","","","","","","","","","","","","","","","","","feedback_test"
"","","","","","psychophysics","193","327393","0.0-13.0-1.0-1.0-0.0-0.17","543","","j","","","","","","","","","","","","","key","j","16.674811881187715","768","428","j","true","img/T_ambi40.png","常人","word_first",""
"","","","","","html-keyboard-response","194","327702","0.0-13.0-1.0-1.0-0.0-1.17","null","<span style='color:GreenYellow; font-size: 70px;'>正确! </span>","null","","","","","","","","","","","","","","","","","","","","","","","feedback_test"
"","","","","","psychophysics","195","329348","0.0-13.0-1.0-1.0-0.0-0.18","492","","f","","","","","","","","","","","","","key","f","16.67322680412386","768","428","f","true","img/T_ambi40.png","坏人","word_first",""
"","","","","","html-keyboard-response","196","329654","0.0-13.0-1.0-1.0-0.0-1.18","null","<span style='color:GreenYellow; font-size: 70px;'>正确! </span>","null","","","","","","","","","","","","","","","","","","","","","","","feedback_test"
"","","","","","psychophysics","197","331421","0.0-13.0-1.0-1.0-0.0-0.19","604","","f","","","","","","","","","","","","","key","f","16.672390476190152","768","428","f","true","img/S_ambi40.png","好人","word_first",""
"","","","","","html-keyboard-response","198","331726","0.0-13.0-1.0-1.0-0.0-1.19","null","<span style='color:GreenYellow; font-size: 70px;'>正确! </span>","null","","","","","","","","","","","","","","","","","","","","","","","feedback_test"
"","","","","","psychophysics","199","333348","0.0-13.0-1.0-1.0-0.0-0.20","463","","f","","","","","","","","","","","","","key","f","16.673375000000306","768","428","f","true","img/C_ambi40.png","常人","word_first",""
"","","","","","html-keyboard-response","200","333661","0.0-13.0-1.0-1.0-0.0-1.20","null","<span style='color:GreenYellow; font-size: 70px;'>正确! </span>","null","","","","","","","","","","","","","","","","","","","","","","","feedback_test"
"","","","","","psychophysics","201","335314","0.0-13.0-1.0-1.0-0.0-0.21","493","","j","","","","","","","","","","","","","key","j","16.67201020408182","768","428","j","true","img/S_ambi40.png","常人","word_first",""
"","","","","","html-keyboard-response","202","335624","0.0-13.0-1.0-1.0-0.0-1.21","null","<span style='color:GreenYellow; font-size: 70px;'>正确! </span>","null","","","","","","","","","","","","","","","","","","","","","","","feedback_test"
"","","","","","psychophysics","203","337278","0.0-13.0-1.0-1.0-0.0-0.22","492","","f","","","","","","","","","","","","","key","f","16.673581632653047","768","428","f","true","img/T_ambi40.png","坏人","word_first",""
"","","","","","html-keyboard-response","204","337583","0.0-13.0-1.0-1.0-0.0-1.22","null","<span style='color:GreenYellow; font-size: 70px;'>正确! </span>","null","","","","","","","","","","","","","","","","","","","","","","","feedback_test"
"","","","","","psychophysics","205","339331","0.0-13.0-1.0-1.0-0.0-0.23","595","","f","","","","","","","","","","","","","key","f","16.67413461538504","768","428","f","true","img/S_ambi40.png","好人","word_first",""
"","","","","","html-keyboard-response","206","339635","0.0-13.0-1.0-1.0-0.0-1.23","null","<span style='color:GreenYellow; font-size: 70px;'>正确! </span>","null","","","","","","","","","","","","","","","","","","","","","","","feedback_test"
"","","","","","psychophysics","207","341332","0.0-13.0-1.0-1.0-0.0-0.24","538","","f","","","","","","","","","","","","","key","f","16.67325742574268","768","428","f","true","img/S_ambi40.png","好人","word_first",""
"","","","","","html-keyboard-response","208","341638","0.0-13.0-1.0-1.0-0.0-1.24","null","<span style='color:GreenYellow; font-size: 70px;'>正确! </span>","null","","","","","","","","","","","","","","","","","","","","","","","feedback_test"
"","","","","","psychophysics","209","343229","0.0-13.0-1.0-1.0-0.0-0.25","436","","f","","","","","","","","","","","","","key","f","16.67269148936178","768","428","f","true","img/S_ambi40.png","好人","word_first",""
"","","","","","html-keyboard-response","210","343541","0.0-13.0-1.0-1.0-0.0-1.25","null","<span style='color:GreenYellow; font-size: 70px;'>正确! </span>","null","","","","","","","","","","","","","","","","","","","","","","","feedback_test"
"","","","","","psychophysics","211","345214","0.0-13.0-1.0-1.0-0.0-0.26","521","","j","","","","","","","","","","","","","key","j","16.67229292929323","768","428","j","true","img/S_ambi40.png","常人","word_first",""
"","","","","","html-keyboard-response","212","345521","0.0-13.0-1.0-1.0-0.0-1.26","null","<span style='color:GreenYellow; font-size: 70px;'>正确! </span>","null","","","","","","","","","","","","","","","","","","","","","","","feedback_test"
"","","","","","psychophysics","213","347209","0.0-13.0-1.0-1.0-0.0-0.27","532","","f","","","","","","","","","","","","","key","f","16.674010000000127","768","428","f","true","img/T_ambi40.png","坏人","word_first",""
"","","","","","html-keyboard-response","214","347516","0.0-13.0-1.0-1.0-0.0-1.27","null","<span style='color:GreenYellow; font-size: 70px;'>正确! </span>","null","","","","","","","","","","","","","","","","","","","","","","","feedback_test"
"","","","","","psychophysics","215","349150","0.0-13.0-1.0-1.0-0.0-0.28","476","","f","","","","","","","","","","","","","key","f","16.6714639175256","768","428","j","false","img/T_ambi40.png","好人","word_first",""
"","","","","","html-keyboard-response","216","349464","0.0-13.0-1.0-1.0-0.0-1.28","null","<span style='color:red; font-size: 70px;'>错误! </span>","null","","","","","","","","","","","","","","","","","","","","","","","feedback_test"
"","","","","","psychophysics","217","351206","0.0-13.0-1.0-1.0-0.0-0.29","580","","j","","","","","","","","","","","","","key","j","16.67346601941774","768","428","j","true","img/T_ambi40.png","常人","word_first",""
"","","","","","html-keyboard-response","218","351516","0.0-13.0-1.0-1.0-0.0-1.29","null","<span style='color:GreenYellow; font-size: 70px;'>正确! </span>","null","","","","","","","","","","","","","","","","","","","","","","","feedback_test"
"","","","","","psychophysics","219","353375","0.0-13.0-1.0-1.0-0.0-0.30","697","","j","","","","","","","","","","","","","key","j","16.673136363636214","768","428","j","true","img/C_ambi40.png","坏人","word_first",""
"","","","","","html-keyboard-response","220","353689","0.0-13.0-1.0-1.0-0.0-1.30","null","<span style='color:GreenYellow; font-size: 70px;'>正确! </span>","null","","","","","","","","","","","","","","","","","","","","","","","feedback_test"
"","","","","","psychophysics","221","355375","0.0-13.0-1.0-1.0-0.0-0.31","532","","j","","","","","","","","","","","","","key","j","16.672640000000246","768","428","f","false","img/C_ambi40.png","常人","word_first",""
"","","","","","html-keyboard-response","222","355684","0.0-13.0-1.0-1.0-0.0-1.31","null","<span style='color:red; font-size: 70px;'>错误! </span>","null","","","","","","","","","","","","","","","","","","","","","","","feedback_test"
"","","","","","psychophysics","223","357475","0.0-13.0-1.0-1.0-0.0-0.32","637","","j","","","","","","","","","","","","","key","j","16.67331132075457","768","428","j","true","img/C_ambi40.png","好人","word_first",""
"","","","","","html-keyboard-response","224","357780","0.0-13.0-1.0-1.0-0.0-1.32","null","<span style='color:GreenYellow; font-size: 70px;'>正确! </span>","null","","","","","","","","","","","","","","","","","","","","","","","feedback_test"
"","","","","","psychophysics","225","359442","0.0-13.0-1.0-1.0-0.0-0.33","509","","f","","","","","","","","","","","","","key","f","16.673581632653047","768","428","f","true","img/C_ambi40.png","常人","word_first",""
"","","","","","html-keyboard-response","226","359760","0.0-13.0-1.0-1.0-0.0-1.33","null","<span style='color:GreenYellow; font-size: 70px;'>正确! </span>","null","","","","","","","","","","","","","","","","","","","","","","","feedback_test"
"","","","","","psychophysics","227","361501","0.0-13.0-1.0-1.0-0.0-0.34","581","","j","","","","","","","","","","","","","key","j","16.672676470588353","768","428","j","true","img/S_ambi40.png","坏人","word_first",""
"","","","","","html-keyboard-response","228","361813","0.0-13.0-1.0-1.0-0.0-1.34","null","<span style='color:GreenYellow; font-size: 70px;'>正确! </span>","null","","","","","","","","","","","","","","","","","","","","","","","feedback_test"
"","","","","","psychophysics","229","363593","0.0-13.0-1.0-1.0-0.0-0.35","612","","f","","","","","","","","","","","","","key","f","16.591219047619408","768","428","f","true","img/T_ambi40.png","坏人","word_first",""
"","","","","","html-keyboard-response","230","363911","0.0-13.0-1.0-1.0-0.0-1.35","null","<span style='color:GreenYellow; font-size: 70px;'>正确! </span>","null","","","","","","","","","","","","","","","","","","","","","","","feedback_test"
"","","","","","psychophysics","231","365735","0.0-13.0-1.0-1.0-0.0-0.36","664","","j","","","","","","","","","","","","","key","j","16.673137614679195","768","428","j","true","img/C_ambi40.png","坏人","word_first",""
"","","","","","html-keyboard-response","232","366047","0.0-13.0-1.0-1.0-0.0-1.36","null","<span style='color:GreenYellow; font-size: 70px;'>正确! </span>","null","","","","","","","","","","","","","","","","","","","","","","","feedback_test"
"","","","","","psychophysics","233","367807","0.0-13.0-1.0-1.0-0.0-0.37","593","","j","","","","","","","","","","","","","key","j","16.6734326923078","768","428","j","true","img/S_ambi40.png","常人","word_first",""
"","","","","","html-keyboard-response","234","368113","0.0-13.0-1.0-1.0-0.0-1.37","null","<span style='color:GreenYellow; font-size: 70px;'>正确! </span>","null","","","","","","","","","","","","","","","","","","","","","","","feedback_test"
"","","","","","psychophysics","235","370343","0.0-13.0-1.0-1.0-0.0-0.38","1077","","f","","","","","","","","","","","","","key","f","16.568356060605957","768","428","f","true","img/S_ambi40.png","好人","word_first",""
"","","","","","html-keyboard-response","236","370657","0.0-13.0-1.0-1.0-0.0-1.38","null","<span style='color:GreenYellow; font-size: 70px;'>正确! </span>","null","","","","","","","","","","","","","","","","","","","","","","","feedback_test"
"","","","","","psychophysics","237","372328","0.0-13.0-1.0-1.0-0.0-0.39","512","","j","","","","","","","","","","","","","key","j","16.67336734693868","768","428","j","true","img/T_ambi40.png","好人","word_first",""
"","","","","","html-keyboard-response","238","372639","0.0-13.0-1.0-1.0-0.0-1.39","null","<span style='color:GreenYellow; font-size: 70px;'>正确! </span>","null","","","","","","","","","","","","","","","","","","","","","","","feedback_test"
"","","","","","psychophysics","239","374482","0.0-13.0-1.0-1.0-0.0-0.40","690","","f","","","","","","","","","","","","","key","f","16.67213761467869","768","428","f","true","img/C_ambi40.png","常人","word_first",""
"","","","","","html-keyboard-response","240","374791","0.0-13.0-1.0-1.0-0.0-1.40","null","<span style='color:GreenYellow; font-size: 70px;'>正确! </span>","null","","","","","","","","","","","","","","","","","","","","","","","feedback_test"
"","","","","","psychophysics","241","376949","0.0-13.0-1.0-1.0-0.0-0.41","1005","","j","","","","","","","","","","","","","key","j","16.671710937499938","768","428","j","true","img/C_ambi40.png","好人","word_first",""
"","","","","","html-keyboard-response","242","377263","0.0-13.0-1.0-1.0-0.0-1.41","null","<span style='color:GreenYellow; font-size: 70px;'>正确! </span>","null","","","","","","","","","","","","","","","","","","","","","","","feedback_test"
"","","","","","psychophysics","243","379123","0.0-13.0-1.0-1.0-0.0-0.42","704","","f","","","","","","","","","","","","","key","f","16.67427272727258","768","428","f","true","img/C_ambi40.png","常人","word_first",""
"","","","","","html-keyboard-response","244","379428","0.0-13.0-1.0-1.0-0.0-1.42","null","<span style='color:GreenYellow; font-size: 70px;'>正确! </span>","null","","","","","","","","","","","","","","","","","","","","","","","feedback_test"
"","","","","","psychophysics","245","381291","0.0-13.0-1.0-1.0-0.0-0.43","699","","f","","","","","","","","","","","","","key","f","16.673454545454693","768","428","f","true","img/T_ambi40.png","坏人","word_first",""
"","","","","","html-keyboard-response","246","381599","0.0-13.0-1.0-1.0-0.0-1.43","null","<span style='color:GreenYellow; font-size: 70px;'>正确! </span>","null","","","","","","","","","","","","","","","","","","","","","","","feedback_test"
"","","","","","psychophysics","247","383212","0.0-13.0-1.0-1.0-0.0-0.44","457","","j","","","","","","","","","","","","","key","j","16.673166666666777","768","428","f","false","img/T_ambi40.png","坏人","word_first",""
"","","","","","html-keyboard-response","248","383513","0.0-13.0-1.0-1.0-0.0-1.44","null","<span style='color:red; font-size: 70px;'>错误! </span>","null","","","","","","","","","","","","","","","","","","","","","","","feedback_test"
"","","","","","psychophysics","249","385242","0.0-13.0-1.0-1.0-0.0-0.45","573","","j","","","","","","","","","","","","","key","j","16.673077669903382","768","428","j","true","img/T_ambi40.png","常人","word_first",""
"","","","","","html-keyboard-response","250","385550","0.0-13.0-1.0-1.0-0.0-1.45","null","<span style='color:GreenYellow; font-size: 70px;'>正确! </span>","null","","","","","","","","","","","","","","","","","","","","","","","feedback_test"
"","","","","","psychophysics","251","387401","0.0-13.0-1.0-1.0-0.0-0.46","688","","j","","","","","","","","","","","","","key","j","16.675281818181446","768","428","j","true","img/S_ambi40.png","坏人","word_first",""
"","","","","","html-keyboard-response","252","387712","0.0-13.0-1.0-1.0-0.0-1.46","null","<span style='color:GreenYellow; font-size: 70px;'>正确! </span>","null","","","","","","","","","","","","","","","","","","","","","","","feedback_test"
"","","","","","psychophysics","253","389500","0.0-13.0-1.0-1.0-0.0-0.47","633","","f","","","","","","","","","","","","","key","f","16.673283018868084","768","428","f","true","img/S_ambi40.png","好人","word_first",""
"","","","","","html-keyboard-response","254","389803","0.0-13.0-1.0-1.0-0.0-1.47","null","<span style='color:GreenYellow; font-size: 70px;'>正确! </span>","null","","","","","","","","","","","","","","","","","","","","","","","feedback_test"
"","","","","","psychophysics","255","391567","0.0-13.0-1.0-1.0-0.0-0.48","608","","j","","","","","","","","","","","","","key","j","16.67273076923112","768","428","j","true","img/S_ambi40.png","坏人","word_first",""
"","","","","","html-keyboard-response","256","391883","0.0-13.0-1.0-1.0-0.0-1.48","null","<span style='color:GreenYellow; font-size: 70px;'>正确! </span>","null","","","","","","","","","","","","","","","","","","","","","","","feedback_test"
"","","","","","psychophysics","257","393716","0.0-13.0-1.0-1.0-0.0-0.49","674","","j","","","","","","","","","","","","","key","j","16.671724770642143","768","428","j","true","img/T_ambi40.png","好人","word_first",""
"","","","","","html-keyboard-response","258","394031","0.0-13.0-1.0-1.0-0.0-1.49","null","<span style='color:GreenYellow; font-size: 70px;'>正确! </span>","null","","","","","","","","","","","","","","","","","","","","","","","feedback_test"
"","","","","","psychophysics","259","395750","0.0-13.0-1.0-1.0-0.0-0.50","557","","j","","","","","","","","","","","","","key","j","16.67255882352908","768","428","j","true","img/S_ambi40.png","常人","word_first",""
"","","","","","html-keyboard-response","260","396057","0.0-13.0-1.0-1.0-0.0-1.50","null","<span style='color:GreenYellow; font-size: 70px;'>正确! </span>","null","","","","","","","","","","","","","","","","","","","","","","","feedback_test"
"","","","","","psychophysics","261","397809","0.0-13.0-1.0-1.0-0.0-0.51","598","","j","","","","","","","","","","","","","key","j","16.543990291262304","768","428","f","false","img/S_ambi40.png","好人","word_first",""
"","","","","","html-keyboard-response","262","398112","0.0-13.0-1.0-1.0-0.0-1.51","null","<span style='color:red; font-size: 70px;'>错误! </span>","null","","","","","","","","","","","","","","","","","","","","","","","feedback_test"
"","","","","","psychophysics","263","400109","0.0-13.0-1.0-1.0-0.0-0.52","841","","j","","","","","","","","","","","","","key","j","16.672966101694698","768","428","j","true","img/C_ambi40.png","坏人","word_first",""
"","","","","","html-keyboard-response","264","400425","0.0-13.0-1.0-1.0-0.0-1.52","null","<span style='color:GreenYellow; font-size: 70px;'>正确! </span>","null","","","","","","","","","","","","","","","","","","","","","","","feedback_test"
"","","","","","psychophysics","265","402561","0.0-13.0-1.0-1.0-0.0-0.53","977","","j","","","","","","","","","","","","","key","j","16.672511811023504","768","428","j","true","img/C_ambi40.png","好人","word_first",""
"","","","","","html-keyboard-response","266","402870","0.0-13.0-1.0-1.0-0.0-1.53","null","<span style='color:GreenYellow; font-size: 70px;'>正确! </span>","null","","","","","","","","","","","","","","","","","","","","","","","feedback_test"
"","","","","","psychophysics","267","404692","0.0-13.0-1.0-1.0-0.0-0.54","663","","j","","","","","","","","","","","","","key","j","16.673324074073914","768","428","j","true","img/T_ambi40.png","常人","word_first",""
"","","","","","html-keyboard-response","268","404998","0.0-13.0-1.0-1.0-0.0-1.54","null","<span style='color:GreenYellow; font-size: 70px;'>正确! </span>","null","","","","","","","","","","","","","","","","","","","","","","","feedback_test"
"","","","","","psychophysics","269","406672","0.0-13.0-1.0-1.0-0.0-0.55","510","","f","","","","","","","","","","","","","key","f","16.67393877551052","768","428","f","true","img/C_ambi40.png","常人","word_first",""
"","","","","","html-keyboard-response","270","406990","0.0-13.0-1.0-1.0-0.0-1.55","null","<span style='color:GreenYellow; font-size: 70px;'>正确! </span>","null","","","","","","","","","","","","","","","","","","","","","","","feedback_test"
"","","","","","psychophysics","271","408800","0.0-13.0-1.0-1.0-0.0-0.56","648","","f","","","","","","","","","","","","","key","f","16.672990654205694","768","428","f","true","img/T_ambi40.png","坏人","word_first",""
"","","","","","html-keyboard-response","272","409105","0.0-13.0-1.0-1.0-0.0-1.56","null","<span style='color:GreenYellow; font-size: 70px;'>正确! </span>","null","","","","","","","","","","","","","","","","","","","","","","","feedback_test"
"","","","","","psychophysics","273","410705","0.0-13.0-1.0-1.0-0.0-0.57","440","","f","","","","","","","","","","","","","key","f","16.672126315789615","768","428","f","true","img/T_ambi40.png","坏人","word_first",""
"","","","","","html-keyboard-response","274","411012","0.0-13.0-1.0-1.0-0.0-1.57","null","<span style='color:GreenYellow; font-size: 70px;'>正确! </span>","null","","","","","","","","","","","","","","","","","","","","","","","feedback_test"
"","","","","","psychophysics","275","412696","0.0-13.0-1.0-1.0-0.0-0.58","527","","f","","","","","","","","","","","","","key","f","16.67405000000028","768","428","f","true","img/C_ambi40.png","常人","word_first",""
"","","","","","html-keyboard-response","276","413008","0.0-13.0-1.0-1.0-0.0-1.58","null","<span style='color:GreenYellow; font-size: 70px;'>正确! </span>","null","","","","","","","","","","","","","","","","","","","","","","","feedback_test"
"","","","","","psychophysics","277","414689","0.0-13.0-1.0-1.0-0.0-0.59","511","","j","","","","","","","","","","","","","key","j","16.67414141414132","768","428","f","false","img/S_ambi40.png","好人","word_first",""
"","","","","","html-keyboard-response","278","414998","0.0-13.0-1.0-1.0-0.0-1.59","null","<span style='color:red; font-size: 70px;'>错误! </span>","null","","","","","","","","","","","","","","","","","","","","","","","feedback_test"
"","","","","","html-keyboard-response","279","416358","0.0-13.0-1.0-1.0-1.0","1354","<style>.context{color:white; font-size: 35px; line-height:40px}</style>                              <div><p class='context'>您正确回答了92% 的试次。</p><p class='context'>您的平均反应时为627毫秒。</p><p class='context'>请按任意键进入休息</p></div>","enter","","","","","","","","","","","","","","","","","","","","","","",""
"","","","","","html-button-response","280","481270","0.0-13.0-1.0-1.0-2.0","64910","
                      <p>您当前还剩余3组实验</p>
                      <p>现在是休息时间，当您结束休息后，您可以点击 结束休息 按钮 继续</p>
                      <p>建议休息时间还剩余<span id=""iii"">60</span>秒</p>","0","","","","","","","","","","","","","","","","","","","","","","",""
"","","","","","psychophysics","281","482969","0.0-13.0-1.0-1.0-0.1-0.60","544","","f","","","","","","","","","","","","","key","f","16.673188118811577","768","428","f","true","img/C_ambi40.png","常人","word_first",""
"","","","","","html-keyboard-response","282","483281","0.0-13.0-1.0-1.0-0.1-1.60","null","<span style='color:GreenYellow; font-size: 70px;'>正确! </span>","null","","","","","","","","","","","","","","","","","","","","","","","feedback_test"
"","","","","","psychophysics","283","485003","0.0-13.0-1.0-1.0-0.1-0.61","560","","j","","","","","","","","","","","","","key","j","16.673803921568656","768","428","j","true","img/S_ambi40.png","常人","word_first",""
"","","","","","html-keyboard-response","284","485318","0.0-13.0-1.0-1.0-0.1-1.61","null","<span style='color:GreenYellow; font-size: 70px;'>正确! </span>","null","","","","","","","","","","","","","","","","","","","","","","","feedback_test"
"","","","","","psychophysics","285","486921","0.0-13.0-1.0-1.0-0.1-0.62","445","","f","","","","","","","","","","","","","key","f","16.673252631578666","768","428","j","false","img/T_ambi40.png","好人","word_first",""
"","","","","","html-keyboard-response","286","487233","0.0-13.0-1.0-1.0-0.1-1.62","null","<span style='color:red; font-size: 70px;'>错误! </span>","null","","","","","","","","","","","","","","","","","","","","","","","feedback_test"
"","","","","","psychophysics","287","488960","0.0-13.0-1.0-1.0-0.1-0.63","568","","j","","","","","","","","","","","","","key","j","16.670901960784036","768","428","j","true","img/S_ambi40.png","坏人","word_first",""
"","","","","","html-keyboard-response","288","489270","0.0-13.0-1.0-1.0-0.1-1.63","null","<span style='color:GreenYellow; font-size: 70px;'>正确! </span>","null","","","","","","","","","","","","","","","","","","","","","","","feedback_test"
"","","","","","psychophysics","289","490983","0.0-13.0-1.0-1.0-0.1-0.64","554","","j","","","","","","","","","","","","","key","j","16.67381188118805","768","428","j","true","img/C_ambi40.png","好人","word_first",""
"","","","","","html-keyboard-response","290","491290","0.0-13.0-1.0-1.0-0.1-1.64","null","<span style='color:GreenYellow; font-size: 70px;'>正确! </span>","null","","","","","","","","","","","","","","","","","","","","","","","feedback_test"
"","","","","","psychophysics","291","492920","0.0-13.0-1.0-1.0-0.1-0.65","469","","j","","","","","","","","","","","","","key","j","16.67498969072152","768","428","f","false","img/S_ambi40.png","好人","word_first",""
"","","","","","html-keyboard-response","292","493224","0.0-13.0-1.0-1.0-0.1-1.65","null","<span style='color:red; font-size: 70px;'>错误! </span>","null","","","","","","","","","","","","","","","","","","","","","","","feedback_test"
"","","","","","psychophysics","293","494890","0.0-13.0-1.0-1.0-0.1-0.66","510","","f","","","","","","","","","","","","","key","f","16.671767676767725","768","428","f","true","img/C_ambi40.png","常人","word_first",""
"","","","","","html-keyboard-response","294","495207","0.0-13.0-1.0-1.0-0.1-1.66","null","<span style='color:GreenYellow; font-size: 70px;'>正确! </span>","null","","","","","","","","","","","","","","","","","","","","","","","feedback_test"
"","","","","","psychophysics","295","496856","0.0-13.0-1.0-1.0-0.1-0.67","493","","f","","","","","","","","","","","","","key","f","16.67341836734689","768","428","f","true","img/T_ambi40.png","坏人","word_first",""
"","","","","","html-keyboard-response","296","497169","0.0-13.0-1.0-1.0-0.1-1.67","null","<span style='color:GreenYellow; font-size: 70px;'>正确! </span>","null","","","","","","","","","","","","","","","","","","","","","","","feedback_test"
"","","","","","psychophysics","297","498847","0.0-13.0-1.0-1.0-0.1-0.68","515","","f","","","","","","","","","","","","","key","f","16.67348484848473","768","428","f","true","img/T_ambi40.png","坏人","word_first",""
"","","","","","html-keyboard-response","298","499156","0.0-13.0-1.0-1.0-0.1-1.68","null","<span style='color:GreenYellow; font-size: 70px;'>正确! </span>","null","","","","","","","","","","","","","","","","","","","","","","","feedback_test"
"","","","","","psychophysics","299","500762","0.0-13.0-1.0-1.0-0.1-0.69","443","","j","","","","","","","","","","","","","key","j","16.673368421052338","768","428","j","true","img/T_ambi40.png","常人","word_first",""
"","","","","","html-keyboard-response","300","501095","0.0-13.0-1.0-1.0-0.1-1.69","null","<span style='color:GreenYellow; font-size: 70px;'>正确! </span>","null","","","","","","","","","","","","","","","","","","","","","","","feedback_test"
"","","","","","psychophysics","301","502823","0.0-13.0-1.0-1.0-0.1-0.70","574","","f","","","","","","","","","","","","","key","f","16.672378640776746","768","428","f","true","img/S_ambi40.png","好人","word_first",""
"","","","","","html-keyboard-response","302","503139","0.0-13.0-1.0-1.0-0.1-1.70","null","<span style='color:GreenYellow; font-size: 70px;'>正确! </span>","null","","","","","","","","","","","","","","","","","","","","","","","feedback_test"
"","","","","","psychophysics","303","504798","0.0-13.0-1.0-1.0-0.1-0.71","490","","j","","","","","","","","","","","","","key","j","16.675326530611954","768","428","j","true","img/C_ambi40.png","坏人","word_first",""
"","","","","","html-keyboard-response","304","505104","0.0-13.0-1.0-1.0-0.1-1.71","null","<span style='color:GreenYellow; font-size: 70px;'>正确! </span>","null","","","","","","","","","","","","","","","","","","","","","","","feedback_test"
"","","","","","psychophysics","305","506796","0.0-13.0-1.0-1.0-0.1-0.72","534","","f","","","","","","","","","","","","","key","f","16.671790000000037","768","428","f","true","img/T_ambi40.png","坏人","word_first",""
"","","","","","html-keyboard-response","306","507111","0.0-13.0-1.0-1.0-0.1-1.72","null","<span style='color:GreenYellow; font-size: 70px;'>正确! </span>","null","","","","","","","","","","","","","","","","","","","","","","","feedback_test"
"","","","","","psychophysics","307","508780","0.0-13.0-1.0-1.0-0.1-0.73","509","","f","","","","","","","","","","","","","key","f","16.673848484848588","768","428","f","true","img/C_ambi40.png","常人","word_first",""
"","","","","","html-keyboard-response","308","509094","0.0-13.0-1.0-1.0-0.1-1.73","null","<span style='color:GreenYellow; font-size: 70px;'>正确! </span>","null","","","","","","","","","","","","","","","","","","","","","","","feedback_test"
"","","","","","psychophysics","309","510943","0.0-13.0-1.0-1.0-0.1-0.74","681","","f","","","","","","","","","","","","","key","f","16.671372727272946","768","428","j","false","img/C_ambi40.png","好人","word_first",""
"","","","","","html-keyboard-response","310","511250","0.0-13.0-1.0-1.0-0.1-1.74","null","<span style='color:red; font-size: 70px;'>错误! </span>","null","","","","","","","","","","","","","","","","","","","","","","","feedback_test"
"","","","","","psychophysics","311","513128","0.0-13.0-1.0-1.0-0.1-0.75","724","","j","","","","","","","","","","","","","key","j","16.673558558558685","768","428","j","true","img/T_ambi40.png","常人","word_first",""
"","","","","","html-keyboard-response","312","513435","0.0-13.0-1.0-1.0-0.1-1.75","null","<span style='color:GreenYellow; font-size: 70px;'>正确! </span>","null","","","","","","","","","","","","","","","","","","","","","","","feedback_test"
"","","","","","psychophysics","313","515197","0.0-13.0-1.0-1.0-0.1-0.76","597","","j","","","","","","","","","","","","","key","j","16.673903846153944","768","428","j","true","img/C_ambi40.png","坏人","word_first",""
"","","","","","html-keyboard-response","314","515509","0.0-13.0-1.0-1.0-0.1-1.76","null","<span style='color:GreenYellow; font-size: 70px;'>正确! </span>","null","","","","","","","","","","","","","","","","","","","","","","","feedback_test"
"","","","","","psychophysics","315","517265","0.0-13.0-1.0-1.0-0.1-0.77","604","","j","","","","","","","","","","","","","key","j","16.673173076923167","768","428","j","true","img/S_ambi40.png","坏人","word_first",""
"","","","","","html-keyboard-response","316","517580","0.0-13.0-1.0-1.0-0.1-1.77","null","<span style='color:GreenYellow; font-size: 70px;'>正确! </span>","null","","","","","","","","","","","","","","","","","","","","","","","feedback_test"
"","","","","","psychophysics","317","519370","0.0-13.0-1.0-1.0-0.1-0.78","635","","j","","","","","","","","","","","","","key","j","16.672952830188528","768","428","j","true","img/T_ambi40.png","好人","word_first",""
"","","","","","html-keyboard-response","318","519685","0.0-13.0-1.0-1.0-0.1-1.78","null","<span style='color:GreenYellow; font-size: 70px;'>正确! </span>","null","","","","","","","","","","","","","","","","","","","","","","","feedback_test"
"","","","","","psychophysics","319","521350","0.0-13.0-1.0-1.0-0.1-0.79","510","","j","","","","","","","","","","","","","key","j","16.672828282828142","768","428","f","false","img/S_ambi40.png","好人","word_first",""
"","","","","","html-keyboard-response","320","521662","0.0-13.0-1.0-1.0-0.1-1.79","null","<span style='color:red; font-size: 70px;'>错误! </span>","null","","","","","","","","","","","","","","","","","","","","","","","feedback_test"
"","","","","","psychophysics","321","523323","0.0-13.0-1.0-1.0-0.1-0.80","499","","f","","","","","","","","","","","","","key","f","16.673183673468884","768","428","f","true","img/C_ambi40.png","常人","word_first",""
"","","","","","html-keyboard-response","322","523628","0.0-13.0-1.0-1.0-0.1-1.80","null","<span style='color:GreenYellow; font-size: 70px;'>正确! </span>","null","","","","","","","","","","","","","","","","","","","","","","","feedback_test"
"","","","","","psychophysics","323","525496","0.0-13.0-1.0-1.0-0.1-0.81","704","","j","","","","","","","","","","","","","key","j","16.673279279279775","768","428","j","true","img/S_ambi40.png","常人","word_first",""
"","","","","","html-keyboard-response","324","525811","0.0-13.0-1.0-1.0-0.1-1.81","null","<span style='color:GreenYellow; font-size: 70px;'>正确! </span>","null","","","","","","","","","","","","","","","","","","","","","","","feedback_test"
"","","","","","psychophysics","325","527771","0.0-13.0-1.0-1.0-0.1-0.82","793","","f","","","","","","","","","","","","","key","f","16.665215517240696","768","428","f","true","img/S_ambi40.png","好人","word_first",""
"","","","","","html-keyboard-response","326","528084","0.0-13.0-1.0-1.0-0.1-1.82","null","<span style='color:GreenYellow; font-size: 70px;'>正确! </span>","null","","","","","","","","","","","","","","","","","","","","","","","feedback_test"
"","","","","","psychophysics","327","529937","0.0-13.0-1.0-1.0-0.1-0.83","692","","f","","","","","","","","","","","","","key","f","16.676063636363356","768","428","f","true","img/T_ambi40.png","坏人","word_first",""
"","","","","","html-keyboard-response","328","530248","0.0-13.0-1.0-1.0-0.1-1.83","null","<span style='color:GreenYellow; font-size: 70px;'>正确! </span>","null","","","","","","","","","","","","","","","","","","","","","","","feedback_test"
"","","","","","psychophysics","329","532073","0.0-13.0-1.0-1.0-0.1-0.84","667","","j","","","","","","","","","","","","","key","j","16.67351851851843","768","428","j","true","img/S_ambi40.png","坏人","word_first",""
"","","","","","html-keyboard-response","330","532384","0.0-13.0-1.0-1.0-0.1-1.84","null","<span style='color:GreenYellow; font-size: 70px;'>正确! </span>","null","","","","","","","","","","","","","","","","","","","","","","","feedback_test"
"","","","","","psychophysics","331","534141","0.0-13.0-1.0-1.0-0.1-0.85","603","","j","","","","","","","","","","","","","key","j","16.67358653846224","768","428","j","true","img/T_ambi40.png","常人","word_first",""
"","","","","","html-keyboard-response","332","534454","0.0-13.0-1.0-1.0-0.1-1.85","null","<span style='color:GreenYellow; font-size: 70px;'>正确! </span>","null","","","","","","","","","","","","","","","","","","","","","","","feedback_test"
"","","","","","psychophysics","333","536104","0.0-13.0-1.0-1.0-0.1-0.86","498","","f","","","","","","","","","","","","","key","f","16.671724489796194","768","428","f","true","img/S_ambi40.png","好人","word_first",""
"","","","","","html-keyboard-response","334","536420","0.0-13.0-1.0-1.0-0.1-1.86","null","<span style='color:GreenYellow; font-size: 70px;'>正确! </span>","null","","","","","","","","","","","","","","","","","","","","","","","feedback_test"
"","","","","","psychophysics","335","538102","0.0-13.0-1.0-1.0-0.1-0.87","522","","f","","","","","","","","","","","","","key","f","16.671260000000476","768","428","f","true","img/C_ambi40.png","常人","word_first",""
"","","","","","html-keyboard-response","336","538415","0.0-13.0-1.0-1.0-0.1-1.87","null","<span style='color:GreenYellow; font-size: 70px;'>正确! </span>","null","","","","","","","","","","","","","","","","","","","","","","","feedback_test"
"","","","","","psychophysics","337","540284","0.0-13.0-1.0-1.0-0.1-0.88","715","","f","","","","","","","","","","","","","key","f","16.65918918918957","768","428","f","true","img/C_ambi40.png","常人","word_first",""
"","","","","","html-keyboard-response","338","540590","0.0-13.0-1.0-1.0-0.1-1.88","null","<span style='color:GreenYellow; font-size: 70px;'>正确! </span>","null","","","","","","","","","","","","","","","","","","","","","","","feedback_test"
"","","","","","psychophysics","339","542228","0.0-13.0-1.0-1.0-0.1-0.89","477","","f","","","","","","","","","","","","","key","f","16.67400000000027","768","428","f","true","img/T_ambi40.png","坏人","word_first",""
"","","","","","html-keyboard-response","340","542533","0.0-13.0-1.0-1.0-0.1-1.89","null","<span style='color:GreenYellow; font-size: 70px;'>正确! </span>","null","","","","","","","","","","","","","","","","","","","","","","","feedback_test"
"","","","","","psychophysics","341","544361","0.0-13.0-1.0-1.0-0.1-0.90","662","","j","","","","","","","","","","","","","key","j","16.673129629630473","768","428","j","true","img/C_ambi40.png","好人","word_first",""
"","","","","","html-keyboard-response","342","544673","0.0-13.0-1.0-1.0-0.1-1.90","null","<span style='color:GreenYellow; font-size: 70px;'>正确! </span>","null","","","","","","","","","","","","","","","","","","","","","","","feedback_test"
"","","","","","psychophysics","343","546558","0.0-13.0-1.0-1.0-0.1-0.91","727","","j","","","","","","","","","","","","","key","j","16.673133928570937","768","428","j","true","img/T_ambi40.png","好人","word_first",""
"","","","","","html-keyboard-response","344","546868","0.0-13.0-1.0-1.0-0.1-1.91","null","<span style='color:GreenYellow; font-size: 70px;'>正确! </span>","null","","","","","","","","","","","","","","","","","","","","","","","feedback_test"
"","","","","","psychophysics","345","548724","0.0-13.0-1.0-1.0-0.1-0.92","705","","j","","","","","","","","","","","","","key","j","16.67153636363589","768","428","j","true","img/C_ambi40.png","坏人","word_first",""
"","","","","","html-keyboard-response","346","549030","0.0-13.0-1.0-1.0-0.1-1.92","null","<span style='color:GreenYellow; font-size: 70px;'>正确! </span>","null","","","","","","","","","","","","","","","","","","","","","","","feedback_test"
"","","","","","psychophysics","347","550965","0.0-13.0-1.0-1.0-0.1-0.93","775","","j","","","","","","","","","","","","","key","j","16.672773913043024","768","428","j","true","img/S_ambi40.png","常人","word_first",""
"","","","","","html-keyboard-response","348","551278","0.0-13.0-1.0-1.0-0.1-1.93","null","<span style='color:GreenYellow; font-size: 70px;'>正确! </span>","null","","","","","","","","","","","","","","","","","","","","","","","feedback_test"
"","","","","","psychophysics","349","553330","0.0-13.0-1.0-1.0-0.1-0.94","893","","f","","","","","","","","","","","","","key","f","16.67350819672183","768","428","f","true","img/S_ambi40.png","好人","word_first",""
"","","","","","html-keyboard-response","350","553643","0.0-13.0-1.0-1.0-0.1-1.94","null","<span style='color:GreenYellow; font-size: 70px;'>正确! </span>","null","","","","","","","","","","","","","","","","","","","","","","","feedback_test"
"","","","","","psychophysics","351","555592","0.0-13.0-1.0-1.0-0.1-0.95","787","","f","","","","","","","","","","","","","key","f","16.673730434782033","768","428","f","true","img/T_ambi40.png","坏人","word_first",""
"","","","","","html-keyboard-response","352","555909","0.0-13.0-1.0-1.0-0.1-1.95","null","<span style='color:GreenYellow; font-size: 70px;'>正确! </span>","null","","","","","","","","","","","","","","","","","","","","","","","feedback_test"
"","","","","","psychophysics","353","557627","0.0-13.0-1.0-1.0-0.1-0.96","558","","f","","","","","","","","","","","","","key","f","16.673156862744065","768","428","f","true","img/T_ambi40.png","坏人","word_first",""
"","","","","","html-keyboard-response","354","557933","0.0-13.0-1.0-1.0-0.1-1.96","null","<span style='color:GreenYellow; font-size: 70px;'>正确! </span>","null","","","","","","","","","","","","","","","","","","","","","","","feedback_test"
"","","","","","psychophysics","355","559691","0.0-13.0-1.0-1.0-0.1-0.97","603","","f","","","","","","","","","","","","","key","f","16.67326666666749","768","428","f","true","img/S_ambi40.png","好人","word_first",""
"","","","","","html-keyboard-response","356","560014","0.0-13.0-1.0-1.0-0.1-1.97","null","<span style='color:GreenYellow; font-size: 70px;'>正确! </span>","null","","","","","","","","","","","","","","","","","","","","","","","feedback_test"
"","","","","","psychophysics","357","561787","0.0-13.0-1.0-1.0-0.1-0.98","615","","j","","","","","","","","","","","","","key","j","16.674180952380855","768","428","j","true","img/C_ambi40.png","好人","word_first",""
"","","","","","html-keyboard-response","358","562093","0.0-13.0-1.0-1.0-0.1-1.98","null","<span style='color:GreenYellow; font-size: 70px;'>正确! </span>","null","","","","","","","","","","","","","","","","","","","","","","","feedback_test"
"","","","","","psychophysics","359","563881","0.0-13.0-1.0-1.0-0.1-0.99","625","","f","","","","","","","","","","","","","key","f","16.667830188679595","768","428","f","true","img/S_ambi40.png","好人","word_first",""
"","","","","","html-keyboard-response","360","564186","0.0-13.0-1.0-1.0-0.1-1.99","null","<span style='color:GreenYellow; font-size: 70px;'>正确! </span>","null","","","","","","","","","","","","","","","","","","","","","","","feedback_test"
"","","","","","psychophysics","361","565948","0.0-13.0-1.0-1.0-0.1-0.100","608","","j","","","","","","","","","","","","","key","j","16.673438095238193","768","428","j","true","img/T_ambi40.png","好人","word_first",""
"","","","","","html-keyboard-response","362","566254","0.0-13.0-1.0-1.0-0.1-1.100","null","<span style='color:GreenYellow; font-size: 70px;'>正确! </span>","null","","","","","","","","","","","","","","","","","","","","","","","feedback_test"
"","","","","","psychophysics","363","568029","0.0-13.0-1.0-1.0-0.1-0.101","617","","f","","","","","","","","","","","","","key","f","16.672780952380883","768","428","f","true","img/C_ambi40.png","常人","word_first",""
"","","","","","html-keyboard-response","364","568347","0.0-13.0-1.0-1.0-0.1-1.101","null","<span style='color:GreenYellow; font-size: 70px;'>正确! </span>","null","","","","","","","","","","","","","","","","","","","","","","","feedback_test"
"","","","","","psychophysics","365","570036","0.0-13.0-1.0-1.0-0.1-0.102","536","","j","","","","","","","","","","","","","key","j","16.67268999999971","768","428","j","true","img/T_ambi40.png","常人","word_first",""
"","","","","","html-keyboard-response","366","570344","0.0-13.0-1.0-1.0-0.1-1.102","null","<span style='color:GreenYellow; font-size: 70px;'>正确! </span>","null","","","","","","","","","","","","","","","","","","","","","","","feedback_test"
"","","","","","psychophysics","367","572214","0.0-13.0-1.0-1.0-0.1-0.103","712","","f","","","","","","","","","","","","","key","f","16.673207207206378","768","428","f","true","img/C_ambi40.png","常人","word_first",""
"","","","","","html-keyboard-response","368","572521","0.0-13.0-1.0-1.0-0.1-1.103","null","<span style='color:GreenYellow; font-size: 70px;'>正确! </span>","null","","","","","","","","","","","","","","","","","","","","","","","feedback_test"
"","","","","","psychophysics","369","574390","0.0-13.0-1.0-1.0-0.1-0.104","713","","j","","","","","","","","","","","","","key","j","16.673378378378338","768","428","j","true","img/C_ambi40.png","坏人","word_first",""
"","","","","","html-keyboard-response","370","574708","0.0-13.0-1.0-1.0-0.1-1.104","null","<span style='color:GreenYellow; font-size: 70px;'>正确! </span>","null","","","","","","","","","","","","","","","","","","","","","","","feedback_test"
"","","","","","psychophysics","371","576608","0.0-13.0-1.0-1.0-0.1-0.105","745","","j","","","","","","","","","","","","","key","j","16.67508849557551","768","428","j","true","img/S_ambi40.png","坏人","word_first",""
"","","","","","html-keyboard-response","372","576918","0.0-13.0-1.0-1.0-0.1-1.105","null","<span style='color:GreenYellow; font-size: 70px;'>正确! </span>","null","","","","","","","","","","","","","","","","","","","","","","","feedback_test"
"","","","","","psychophysics","373","578689","0.0-13.0-1.0-1.0-0.1-0.106","611","","j","","","","","","","","","","","","","key","j","16.672780952380883","768","428","j","true","img/S_ambi40.png","常人","word_first",""
"","","","","","html-keyboard-response","374","579005","0.0-13.0-1.0-1.0-0.1-1.106","null","<span style='color:GreenYellow; font-size: 70px;'>正确! </span>","null","","","","","","","","","","","","","","","","","","","","","","","feedback_test"
"","","","","","psychophysics","375","580739","0.0-13.0-1.0-1.0-0.1-0.107","577","","f","","","","","","","","","","","","","key","f","16.673796116505542","768","428","f","true","img/T_ambi40.png","坏人","word_first",""
"","","","","","html-keyboard-response","376","581052","0.0-13.0-1.0-1.0-0.1-1.107","null","<span style='color:GreenYellow; font-size: 70px;'>正确! </span>","null","","","","","","","","","","","","","","","","","","","","","","","feedback_test"
"","","","","","psychophysics","377","582790","0.0-13.0-1.0-1.0-0.1-0.108","578","","f","","","","","","","","","","","","","key","f","16.6723495145629","768","428","f","true","img/T_ambi40.png","坏人","word_first",""
"","","","","","html-keyboard-response","378","583104","0.0-13.0-1.0-1.0-0.1-1.108","null","<span style='color:GreenYellow; font-size: 70px;'>正确! </span>","null","","","","","","","","","","","","","","","","","","","","","","","feedback_test"
"","","","","","psychophysics","379","584852","0.0-13.0-1.0-1.0-0.1-0.109","587","","j","","","","","","","","","","","","","key","j","16.6742330097087","768","428","j","true","img/T_ambi40.png","常人","word_first",""
"","","","","","html-keyboard-response","380","585165","0.0-13.0-1.0-1.0-0.1-1.109","null","<span style='color:GreenYellow; font-size: 70px;'>正确! </span>","null","","","","","","","","","","","","","","","","","","","","","","","feedback_test"
"","","","","","psychophysics","381","587073","0.0-13.0-1.0-1.0-0.1-0.110","755","","j","","","","","","","","","","","","","key","j","16.673504424779015","768","428","j","true","img/S_ambi40.png","坏人","word_first",""
"","","","","","html-keyboard-response","382","587379","0.0-13.0-1.0-1.0-0.1-1.110","null","<span style='color:GreenYellow; font-size: 70px;'>正确! </span>","null","","","","","","","","","","","","","","","","","","","","","","","feedback_test"
"","","","","","psychophysics","383","589209","0.0-13.0-1.0-1.0-0.1-0.111","672","","f","","","","","","","","","","","","","key","f","16.674376146788838","768","428","f","true","img/S_ambi40.png","好人","word_first",""
"","","","","","html-keyboard-response","384","589517","0.0-13.0-1.0-1.0-0.1-1.111","null","<span style='color:GreenYellow; font-size: 70px;'>正确! </span>","null","","","","","","","","","","","","","","","","","","","","","","","feedback_test"
"","","","","","psychophysics","385","591679","0.0-13.0-1.0-1.0-0.1-0.112","1011","","f","","","","","","","","","","","","","key","f","16.67334374999973","768","428","f","true","img/C_ambi40.png","常人","word_first",""
"","","","","","html-keyboard-response","386","591988","0.0-13.0-1.0-1.0-0.1-1.112","null","<span style='color:GreenYellow; font-size: 70px;'>正确! </span>","null","","","","","","","","","","","","","","","","","","","","","","","feedback_test"
"","","","","","psychophysics","387","593674","0.0-13.0-1.0-1.0-0.1-0.113","531","","f","","","","","","","","","","","","","key","f","16.67234999999986","768","428","f","true","img/C_ambi40.png","常人","word_first",""
"","","","","","html-keyboard-response","388","593978","0.0-13.0-1.0-1.0-0.1-1.113","null","<span style='color:GreenYellow; font-size: 70px;'>正确! </span>","null","","","","","","","","","","","","","","","","","","","","","","","feedback_test"
"","","","","","psychophysics","389","595682","0.0-13.0-1.0-1.0-0.1-0.114","543","","f","","","","","","","","","","","","","key","f","16.673861386139166","768","428","f","true","img/T_ambi40.png","坏人","word_first",""
"","","","","","html-keyboard-response","390","595998","0.0-13.0-1.0-1.0-0.1-1.114","null","<span style='color:GreenYellow; font-size: 70px;'>正确! </span>","null","","","","","","","","","","","","","","","","","","","","","","","feedback_test"
"","","","","","psychophysics","391","597734","0.0-13.0-1.0-1.0-0.1-0.115","582","","j","","","","","","","","","","","","","key","j","16.673873786407622","768","428","j","true","img/S_ambi40.png","常人","word_first",""
"","","","","","html-keyboard-response","392","598046","0.0-13.0-1.0-1.0-0.1-1.115","null","<span style='color:GreenYellow; font-size: 70px;'>正确! </span>","null","","","","","","","","","","","","","","","","","","","","","","","feedback_test"
"","","","","","psychophysics","393","599944","0.0-13.0-1.0-1.0-0.1-0.116","740","","j","","","","","","","","","","","","","key","j","16.672601769911125","768","428","j","true","img/T_ambi40.png","好人","word_first",""
"","","","","","html-keyboard-response","394","600253","0.0-13.0-1.0-1.0-0.1-1.116","null","<span style='color:GreenYellow; font-size: 70px;'>正确! </span>","null","","","","","","","","","","","","","","","","","","","","","","","feedback_test"
"","","","","","psychophysics","395","602189","0.0-13.0-1.0-1.0-0.1-0.117","783","","j","","","","","","","","","","","","","key","j","16.6731403508773","768","428","j","true","img/C_ambi40.png","坏人","word_first",""
"","","","","","html-keyboard-response","396","602494","0.0-13.0-1.0-1.0-0.1-1.117","null","<span style='color:GreenYellow; font-size: 70px;'>正确! </span>","null","","","","","","","","","","","","","","","","","","","","","","","feedback_test"
"","","","","","psychophysics","397","604368","0.0-13.0-1.0-1.0-0.1-0.118","717","","f","","","","","","","","","","","","","key","f","16.67354054054086","768","428","f","true","img/S_ambi40.png","好人","word_first",""
"","","","","","html-keyboard-response","398","604684","0.0-13.0-1.0-1.0-0.1-1.118","null","<span style='color:GreenYellow; font-size: 70px;'>正确! </span>","null","","","","","","","","","","","","","","","","","","","","","","","feedback_test"
"","","","","","psychophysics","399","606747","0.0-13.0-1.0-1.0-0.1-0.119","907","","j","","","","","","","","","","","","","key","j","16.67294308943087","768","428","j","true","img/C_ambi40.png","好人","word_first",""
"","","","","","html-keyboard-response","400","607058","0.0-13.0-1.0-1.0-0.1-1.119","null","<span style='color:GreenYellow; font-size: 70px;'>正确! </span>","null","","","","","","","","","","","","","","","","","","","","","","","feedback_test"
"","","","","","html-keyboard-response","401","608409","0.0-13.0-1.0-1.0-1.1","1347","<style>.context{color:white; font-size: 35px; line-height:40px}</style>                              <div><p class='context'>您正确回答了93% 的试次。</p><p class='context'>您的平均反应时为634毫秒。</p><p class='context'>请按任意键进入休息</p></div>","enter","","","","","","","","","","","","","","","","","","","","","","",""
"","","","","","html-button-response","402","669422","0.0-13.0-1.0-1.0-2.1","61009","
                      <p>您当前还剩余2组实验</p>
                      <p>现在是休息时间，当您结束休息后，您可以点击 结束休息 按钮 继续</p>
                      <p>建议休息时间还剩余<span id=""iii"">60</span>秒</p>","0","","","","","","","","","","","","","","","","","","","","","","",""
"","","","","","psychophysics","403","671285","0.0-13.0-1.0-1.0-0.2-0.120","705","","f","","","","","","","","","","","","","key","f","16.673108108108863","768","428","f","true","img/S_ambi40.png","好人","word_first",""
"","","","","","html-keyboard-response","404","671590","0.0-13.0-1.0-1.0-0.2-1.120","null","<span style='color:GreenYellow; font-size: 70px;'>正确! </span>","null","","","","","","","","","","","","","","","","","","","","","","","feedback_test"
"","","","","","psychophysics","405","673294","0.0-13.0-1.0-1.0-0.2-0.121","546","","j","","","","","","","","","","","","","key","j","16.669831683167654","768","428","j","true","img/C_ambi40.png","好人","word_first",""
"","","","","","html-keyboard-response","406","673605","0.0-13.0-1.0-1.0-0.2-1.121","null","<span style='color:GreenYellow; font-size: 70px;'>正确! </span>","null","","","","","","","","","","","","","","","","","","","","","","","feedback_test"
"","","","","","psychophysics","407","675348","0.0-13.0-1.0-1.0-0.2-0.122","586","","j","","","","","","","","","","","","","key","j","16.673446601941656","768","428","j","true","img/S_ambi40.png","坏人","word_first",""
"","","","","","html-keyboard-response","408","675663","0.0-13.0-1.0-1.0-0.2-1.122","null","<span style='color:GreenYellow; font-size: 70px;'>正确! </span>","null","","","","","","","","","","","","","","","","","","","","","","","feedback_test"
"","","","","","psychophysics","409","677343","0.0-13.0-1.0-1.0-0.2-0.123","526","","f","","","","","","","","","","","","","key","f","16.67362000000081","768","428","f","true","img/T_ambi40.png","坏人","word_first",""
"","","","","","html-keyboard-response","410","677653","0.0-13.0-1.0-1.0-0.2-1.123","null","<span style='color:GreenYellow; font-size: 70px;'>正确! </span>","null","","","","","","","","","","","","","","","","","","","","","","","feedback_test"
"","","","","","psychophysics","411","679397","0.0-13.0-1.0-1.0-0.2-0.124","591","","j","","","","","","","","","","","","","key","j","16.682196078431684","768","428","j","true","img/S_ambi40.png","常人","word_first",""
"","","","","","html-keyboard-response","412","679709","0.0-13.0-1.0-1.0-0.2-1.124","null","<span style='color:GreenYellow; font-size: 70px;'>正确! </span>","null","","","","","","","","","","","","","","","","","","","","","","","feedback_test"
"","","","","","psychophysics","413","681452","0.0-13.0-1.0-1.0-0.2-0.125","580","","f","","","","","","","","","","","","","key","f","16.672757281553345","768","428","f","true","img/C_ambi40.png","常人","word_first",""
"","","","","","html-keyboard-response","414","681761","0.0-13.0-1.0-1.0-0.2-1.125","null","<span style='color:GreenYellow; font-size: 70px;'>正确! </span>","null","","","","","","","","","","","","","","","","","","","","","","","feedback_test"
"","","","","","psychophysics","415","683560","0.0-13.0-1.0-1.0-0.2-0.126","638","","j","","","","","","","","","","","","","key","j","16.66856074766321","768","428","j","true","img/T_ambi40.png","好人","word_first",""
"","","","","","html-keyboard-response","416","683865","0.0-13.0-1.0-1.0-0.2-1.126","null","<span style='color:GreenYellow; font-size: 70px;'>正确! </span>","null","","","","","","","","","","","","","","","","","","","","","","","feedback_test"
"","","","","","psychophysics","417","685635","0.0-13.0-1.0-1.0-0.2-0.127","615","","j","","","","","","","","","","","","","key","j","16.673628571428846","768","428","j","true","img/C_ambi40.png","坏人","word_first",""
"","","","","","html-keyboard-response","418","685941","0.0-13.0-1.0-1.0-0.2-1.127","null","<span style='color:GreenYellow; font-size: 70px;'>正确! </span>","null","","","","","","","","","","","","","","","","","","","","","","","feedback_test"
"","","","","","psychophysics","419","687812","0.0-13.0-1.0-1.0-0.2-0.128","710","","f","","","","","","","","","","","","","key","f","16.67127927927917","768","428","f","true","img/S_ambi40.png","好人","word_first",""
"","","","","","html-keyboard-response","420","688119","0.0-13.0-1.0-1.0-0.2-1.128","null","<span style='color:GreenYellow; font-size: 70px;'>正确! </span>","null","","","","","","","","","","","","","","","","","","","","","","","feedback_test"
"","","","","","psychophysics","421","690113","0.0-13.0-1.0-1.0-0.2-0.129","841","","j","","","","","","","","","","","","","key","j","16.674016949152417","768","428","j","true","img/T_ambi40.png","常人","word_first",""
"","","","","","html-keyboard-response","422","690422","0.0-13.0-1.0-1.0-0.2-1.129","null","<span style='color:GreenYellow; font-size: 70px;'>正确! </span>","null","","","","","","","","","","","","","","","","","","","","","","","feedback_test"
"","","","","","psychophysics","423","692146","0.0-13.0-1.0-1.0-0.2-0.130","572","","f","","","","","","","","","","","","","key","f","16.673147058823172","768","428","f","true","img/T_ambi40.png","坏人","word_first",""
"","","","","","html-keyboard-response","424","692449","0.0-13.0-1.0-1.0-0.2-1.130","null","<span style='color:GreenYellow; font-size: 70px;'>正确! </span>","null","","","","","","","","","","","","","","","","","","","","","","","feedback_test"
"","","","","","psychophysics","425","694259","0.0-13.0-1.0-1.0-0.2-0.131","648","","f","","","","","","","","","","","","","key","f","16.672289719625603","768","428","f","true","img/C_ambi40.png","常人","word_first",""
"","","","","","html-keyboard-response","426","694563","0.0-13.0-1.0-1.0-0.2-1.131","null","<span style='color:GreenYellow; font-size: 70px;'>正确! </span>","null","","","","","","","","","","","","","","","","","","","","","","","feedback_test"
"","","","","","psychophysics","427","696214","0.0-13.0-1.0-1.0-0.2-0.132","490","","f","","","","","","","","","","","","","key","f","16.671255102041368","768","428","f","true","img/T_ambi40.png","坏人","word_first",""
"","","","","","html-keyboard-response","428","696517","0.0-13.0-1.0-1.0-0.2-1.132","null","<span style='color:GreenYellow; font-size: 70px;'>正确! </span>","null","","","","","","","","","","","","","","","","","","","","","","","feedback_test"
"","","","","","psychophysics","429","698334","0.0-13.0-1.0-1.0-0.2-0.133","659","","j","","","","","","","","","","","","","key","j","16.673574074073393","768","428","j","true","img/T_ambi40.png","好人","word_first",""
"","","","","","html-keyboard-response","430","698641","0.0-13.0-1.0-1.0-0.2-1.133","null","<span style='color:GreenYellow; font-size: 70px;'>正确! </span>","null","","","","","","","","","","","","","","","","","","","","","","","feedback_test"
"","","","","","psychophysics","431","700371","0.0-13.0-1.0-1.0-0.2-0.134","578","","f","","","","","","","","","","","","","key","f","16.56935294117669","768","428","f","true","img/S_ambi40.png","好人","word_first",""
"","","","","","html-keyboard-response","432","700679","0.0-13.0-1.0-1.0-0.2-1.134","null","<span style='color:GreenYellow; font-size: 70px;'>正确! </span>","null","","","","","","","","","","","","","","","","","","","","","","","feedback_test"
