"success","timeout","failed_images","failed_audio","failed_video","trial_type","trial_index","time_elapsed","internal_node_id","rt","stimulus","response","value","item_width_mm","item_height_mm","item_width_px","px2mm","view_dist_mm","item_width_deg","px2deg","scale_factor","win_width_deg","win_height_deg","view_history","response_type","key_press","avg_frame_time","center_x","center_y","correct_response","correct","Image","word","condition","screen_id"
"true","false","[]","[]","[]","preload","0","1708","0.0-0.0","","","","","","","","","","","","","","","","","","","","","","","","","",""
"","","","","","html-keyboard-response","1","16590","0.0-1.0","14881","
     <p>您好，欢迎参加本次实验。</p>
     <p>为充分保障您的权利，请确保您已经知晓并同意《参与实验同意书》以及《数据公开知情同意书》。</p>
     <p>如果您未见过上述内容，请咨询实验员。</p>
     <p>如果您选择继续实验，则表示您已经清楚两份知情同意书的内容并同意。</p>
     <p> <div style = ""color: green""><按任意键至下页></div> </p>
     "," ","","","","","","","","","","","","","","","","","","","","","","",""
"","","","","","html-keyboard-response","2","18049","0.0-2.0","1459","
     <p>本实验首先需要您填写一些基本个人信息。</p>
     <p> <div style = ""color: green""><按任意键至下页></div></p>
     "," ","","","","","","","","","","","","","","","","","","","","","","",""
"","","","","","call-function","3","18050","0.0-3.0-0.0","","","","","","","","","","","","","","","","","","","","","","","","","",""
"","","","","","survey-html-form","4","25345","0.0-3.0-1.0","7287","","{""Q0"":""37""}","","","","","","","","","","","","","","","","","","","","","","",""
"","","","","","html-button-response","5","26293","0.0-3.0-2.0","946","<p style = 'color : white'>您的性别</p>","1","","","","","","","","","","","","","","","","","","","","","","",""
"","","","","","survey-html-form","6","35111","0.0-3.0-3.0","8817","","{""Q0"":""2000""}","","","","","","","","","","","","","","","","","","","","","","",""
"","","","","","survey-html-form","7","40149","0.0-3.0-4.0","5037","","{""Q0"":""5""}","","","","","","","","","","","","","","","","","","","","","","",""
"","","","","","virtual-chinrest","8","102616","0.0-4.0","62465","","","","85.6","53.98","605.5128055162717","7.077171962562792","403.48","12.110256110325432","50.00000000000001","1.0371374383479064","37.459999999999994","19.38","","","","","","","","","","","",""
"true","","","","","fullscreen","9","107412","0.0-5.0","","","","","","","","","","","","","","","","","","","","","","","","","",""
"","","","","","instructions","10","144377","0.0-6.0","36964","","","","","","","","","","","","","","[{""page_index"":0,""viewing_time"":2296},{""page_index"":1,""viewing_time"":22638},{""page_index"":2,""viewing_time"":8129},{""page_index"":3,""viewing_time"":3901}]","","","","","","","","","","",""
"","","","","","psychophysics","11","146172","0.0-7.0-0.0-0.0","639","","j","","","","","","","","","","","","","key","j","16.66157009345795","960","536","j","true","img/C_ambi40.png","好人","prac_image_first",""
"","","","","","html-keyboard-response","12","146476","0.0-7.0-0.0-1.0","null","<span style='color:GreenYellow; font-size: 70px;'>正确! </span>","null","","","","","","","","","","","","","","","","","","","","","","","feedback_test"
"","","","","","psychophysics","13","148533","0.0-7.0-0.0-0.1","903","","f","","","","","","","","","","","","","key","f","16.657959349593526","960","536","f","true","img/S_ambi40.png","常人","prac_image_first",""
"","","","","","html-keyboard-response","14","148837","0.0-7.0-0.0-1.1","null","<span style='color:GreenYellow; font-size: 70px;'>正确! </span>","null","","","","","","","","","","","","","","","","","","","","","","","feedback_test"
"","","","","","psychophysics","15","150743","0.0-7.0-0.0-0.2","748","","j","","","","","","","","","","","","","key","j","18.454078431372466","960","536","j","true","img/C_ambi40.png","好人","prac_image_first",""
"","","","","","html-keyboard-response","16","151046","0.0-7.0-0.0-1.2","null","<span style='color:GreenYellow; font-size: 70px;'>正确! </span>","null","","","","","","","","","","","","","","","","","","","","","","","feedback_test"
"","","","","","psychophysics","17","153089","0.0-7.0-0.0-0.3","883","","j","","","","","","","","","","","","","key","j","16.66110743801658","960","536","j","true","img/T_ambi40.png","常人","prac_image_first",""
"","","","","","html-keyboard-response","18","153396","0.0-7.0-0.0-1.3","null","<span style='color:GreenYellow; font-size: 70px;'>正确! </span>","null","","","","","","","","","","","","","","","","","","","","","","","feedback_test"
"","","","","","psychophysics","19","155395","0.0-7.0-0.0-0.4","839","","f","","","","","","","","","","","","","key","f","16.657336134453764","960","536","f","true","img/C_ambi40.png","坏人","prac_image_first",""
"","","","","","html-keyboard-response","20","155697","0.0-7.0-0.0-1.4","null","<span style='color:GreenYellow; font-size: 70px;'>正确! </span>","null","","","","","","","","","","","","","","","","","","","","","","","feedback_test"
"","","","","","psychophysics","21","157614","0.0-7.0-0.0-0.5","757","","f","","","","","","","","","","","","","key","f","16.65907017543877","960","536","f","true","img/T_ambi40.png","坏人","prac_image_first",""
"","","","","","html-keyboard-response","22","157916","0.0-7.0-0.0-1.5","null","<span style='color:GreenYellow; font-size: 70px;'>正确! </span>","null","","","","","","","","","","","","","","","","","","","","","","","feedback_test"
"","","","","","psychophysics","23","159942","0.0-7.0-0.0-0.6","868","","f","","","","","","","","","","","","","key","f","16.658239669421466","960","536","j","false","img/S_ambi40.png","坏人","prac_image_first",""
"","","","","","html-keyboard-response","24","160247","0.0-7.0-0.0-1.6","null","<span style='color:red; font-size: 70px;'>错误! </span>","null","","","","","","","","","","","","","","","","","","","","","","","feedback_test"
"","","","","","psychophysics","25","162509","0.0-7.0-0.0-0.7","1103","","j","","","","","","","","","","","","","key","j","17.165839694656533","960","536","j","true","img/T_ambi40.png","常人","prac_image_first",""
"","","","","","html-keyboard-response","26","162816","0.0-7.0-0.0-1.7","null","<span style='color:GreenYellow; font-size: 70px;'>正确! </span>","null","","","","","","","","","","","","","","","","","","","","","","","feedback_test"
"","","","","","psychophysics","27","164856","0.0-7.0-0.0-0.8","886","","f","","","","","","","","","","","","","key","f","16.660729508196695","960","536","f","true","img/T_ambi40.png","好人","prac_image_first",""
"","","","","","html-keyboard-response","28","165166","0.0-7.0-0.0-1.8","null","<span style='color:GreenYellow; font-size: 70px;'>正确! </span>","null","","","","","","","","","","","","","","","","","","","","","","","feedback_test"
"","","","","","psychophysics","29","167437","0.0-7.0-0.0-0.9","1118","","f","","","","","","","","","","","","","key","f","16.657735294117575","960","536","f","true","img/C_ambi40.png","常人","prac_image_first",""
"","","","","","html-keyboard-response","30","167746","0.0-7.0-0.0-1.9","null","<span style='color:GreenYellow; font-size: 70px;'>正确! </span>","null","","","","","","","","","","","","","","","","","","","","","","","feedback_test"
"","","","","","psychophysics","31","169862","0.0-7.0-0.0-0.10","960","","j","","","","","","","","","","","","","key","j","16.65800793650782","960","536","f","false","img/S_ambi40.png","好人","prac_image_first",""
"","","","","","html-keyboard-response","32","170166","0.0-7.0-0.0-1.10","null","<span style='color:red; font-size: 70px;'>错误! </span>","null","","","","","","","","","","","","","","","","","","","","","","","feedback_test"
"","","","","","psychophysics","33","172114","0.0-7.0-0.0-0.11","797","","j","","","","","","","","","","","","","key","j","16.949345132743474","960","536","j","true","img/S_ambi40.png","坏人","prac_image_first",""
"","","","","","html-keyboard-response","34","172416","0.0-7.0-0.0-1.11","null","<span style='color:GreenYellow; font-size: 70px;'>正确! </span>","null","","","","","","","","","","","","","","","","","","","","","","","feedback_test"
"","","","","","psychophysics","35","174262","0.0-7.0-0.0-0.12","686","","f","","","","","","","","","","","","","key","f","16.65766972477052","960","536","f","true","img/C_ambi40.png","坏人","prac_image_first",""
"","","","","","html-keyboard-response","36","174566","0.0-7.0-0.0-1.12","null","<span style='color:GreenYellow; font-size: 70px;'>正确! </span>","null","","","","","","","","","","","","","","","","","","","","","","","feedback_test"
"","","","","","psychophysics","37","176483","0.0-7.0-0.0-0.13","757","","j","","","","","","","","","","","","","key","j","16.65848245614044","960","536","j","true","img/S_ambi40.png","坏人","prac_image_first",""
"","","","","","html-keyboard-response","38","176786","0.0-7.0-0.0-1.13","null","<span style='color:GreenYellow; font-size: 70px;'>正确! </span>","null","","","","","","","","","","","","","","","","","","","","","","","feedback_test"
"","","","","","psychophysics","39","178507","0.0-7.0-0.0-0.14","561","","j","","","","","","","","","","","","","key","j","16.823316831683158","960","536","j","true","img/C_ambi40.png","好人","prac_image_first",""
"","","","","","html-keyboard-response","40","178823","0.0-7.0-0.0-1.14","null","<span style='color:GreenYellow; font-size: 70px;'>正确! </span>","null","","","","","","","","","","","","","","","","","","","","","","","feedback_test"
"","","","","","psychophysics","41","180657","0.0-7.0-0.0-0.15","681","","f","","","","","","","","","","","","","key","f","16.658394495412704","960","536","f","true","img/S_ambi40.png","常人","prac_image_first",""
"","","","","","html-keyboard-response","42","180962","0.0-7.0-0.0-1.15","null","<span style='color:GreenYellow; font-size: 70px;'>正确! </span>","null","","","","","","","","","","","","","","","","","","","","","","","feedback_test"
"","","","","","psychophysics","43","182810","0.0-7.0-0.0-0.16","686","","j","","","","","","","","","","","","","key","j","16.654220183486217","960","536","j","true","img/T_ambi40.png","常人","prac_image_first",""
"","","","","","html-keyboard-response","44","183117","0.0-7.0-0.0-1.16","null","<span style='color:GreenYellow; font-size: 70px;'>正确! </span>","null","","","","","","","","","","","","","","","","","","","","","","","feedback_test"
"","","","","","psychophysics","45","184930","0.0-7.0-0.0-0.17","654","","j","","","","","","","","","","","","","key","j","16.657888888888852","960","536","f","false","img/T_ambi40.png","好人","prac_image_first",""
"","","","","","html-keyboard-response","46","185236","0.0-7.0-0.0-1.17","null","<span style='color:red; font-size: 70px;'>错误! </span>","null","","","","","","","","","","","","","","","","","","","","","","","feedback_test"
"","","","","","psychophysics","47","187039","0.0-7.0-0.0-0.18","646","","j","","","","","","","","","","","","","key","j","16.660476635513767","960","536","j","true","img/C_ambi40.png","好人","prac_image_first",""
"","","","","","html-keyboard-response","48","187346","0.0-7.0-0.0-1.18","null","<span style='color:GreenYellow; font-size: 70px;'>正确! </span>","null","","","","","","","","","","","","","","","","","","","","","","","feedback_test"
"","","","","","psychophysics","49","189299","0.0-7.0-0.0-0.19","793","","f","","","","","","","","","","","","","key","f","16.657974137931134","960","536","f","true","img/T_ambi40.png","坏人","prac_image_first",""
"","","","","","html-keyboard-response","50","189607","0.0-7.0-0.0-1.19","null","<span style='color:GreenYellow; font-size: 70px;'>正确! </span>","null","","","","","","","","","","","","","","","","","","","","","","","feedback_test"
"","","","","","psychophysics","51","191531","0.0-7.0-0.0-0.20","773","","j","","","","","","","","","","","","","key","j","17.58642592592595","960","536","j","true","img/S_ambi40.png","坏人","prac_image_first",""
"","","","","","html-keyboard-response","52","191836","0.0-7.0-0.0-1.20","null","<span style='color:GreenYellow; font-size: 70px;'>正确! </span>","null","","","","","","","","","","","","","","","","","","","","","","","feedback_test"
"","","","","","psychophysics","53","193582","0.0-7.0-0.0-0.21","592","","j","","","","","","","","","","","","","key","j","16.65747572815535","960","536","f","false","img/C_ambi40.png","常人","prac_image_first",""
"","","","","","html-keyboard-response","54","193886","0.0-7.0-0.0-1.21","null","<span style='color:red; font-size: 70px;'>错误! </span>","null","","","","","","","","","","","","","","","","","","","","","","","feedback_test"
"","","","","","psychophysics","55","195823","0.0-7.0-0.0-0.22","786","","f","","","","","","","","","","","","","key","f","16.65741739130437","960","536","f","true","img/S_ambi40.png","好人","prac_image_first",""
"","","","","","html-keyboard-response","56","196126","0.0-7.0-0.0-1.22","null","<span style='color:GreenYellow; font-size: 70px;'>正确! </span>","null","","","","","","","","","","","","","","","","","","","","","","","feedback_test"
"","","","","","psychophysics","57","198087","0.0-7.0-0.0-0.23","802","","f","","","","","","","","","","","","","key","f","16.66102564102561","960","536","j","false","img/T_ambi40.png","常人","prac_image_first",""
"","","","","","html-keyboard-response","58","198397","0.0-7.0-0.0-1.23","null","<span style='color:red; font-size: 70px;'>错误! </span>","null","","","","","","","","","","","","","","","","","","","","","","","feedback_test"
"","","","","","html-keyboard-response","59","200666","0.0-8.0","2267","<style>.context{color:white; font-size: 35px; line-height:40px}</style>                              <div><p class='context'>您正确回答了79% 的试次。</p><p class='context'>您的平均反应时为792毫秒。</p><p class='context'>恭喜您完成这一阶段的练习。按任意键进入<span style='color: yellow;'>先文字后图形条件</span>的练习。</p></div>"," ","","","","","","","","","","","","","","","","","","","","","","",""
"","","","","","psychophysics","60","202808","0.0-9.0-0.0-0.0","975","","f","","","","","","","","","","","","","key","f","16.655220472440856","960","536","f","true","img/T_ambi40.png","坏人","prac_word_first",""
"","","","","","html-keyboard-response","61","203117","0.0-9.0-0.0-1.0","null","<span style='color:GreenYellow; font-size: 70px;'>正确! </span>","null","","","","","","","","","","","","","","","","","","","","","","","feedback_test"
"","","","","","psychophysics","62","204961","0.0-9.0-0.0-0.1","684","","f","","","","","","","","","","","","","key","f","16.6544403669725","960","536","f","true","img/C_ambi40.png","坏人","prac_word_first",""
"","","","","","html-keyboard-response","63","205287","0.0-9.0-0.0-1.1","null","<span style='color:GreenYellow; font-size: 70px;'>正确! </span>","null","","","","","","","","","","","","","","","","","","","","","","","feedback_test"
"","","","","","psychophysics","64","206985","0.0-9.0-0.0-0.2","538","","j","","","","","","","","","","","","","key","j","16.655297029702947","960","536","j","true","img/T_ambi40.png","常人","prac_word_first",""
"","","","","","html-keyboard-response","65","207287","0.0-9.0-0.0-1.2","null","<span style='color:GreenYellow; font-size: 70px;'>正确! </span>","null","","","","","","","","","","","","","","","","","","","","","","","feedback_test"
"","","","","","psychophysics","66","208940","0.0-9.0-0.0-0.3","495","","f","","","","","","","","","","","","","key","f","16.6574183673469","960","536","j","false","img/S_ambi40.png","坏人","prac_word_first",""
"","","","","","html-keyboard-response","67","209246","0.0-9.0-0.0-1.3","null","<span style='color:red; font-size: 70px;'>错误! </span>","null","","","","","","","","","","","","","","","","","","","","","","","feedback_test"
"","","","","","psychophysics","68","211031","0.0-9.0-0.0-0.4","634","","j","","","","","","","","","","","","","key","j","17.83656565656573","960","536","f","false","img/T_ambi40.png","好人","prac_word_first",""
"","","","","","html-keyboard-response","69","211337","0.0-9.0-0.0-1.4","null","<span style='color:red; font-size: 70px;'>错误! </span>","null","","","","","","","","","","","","","","","","","","","","","","","feedback_test"
"","","","","","psychophysics","70","213098","0.0-9.0-0.0-0.5","604","","j","","","","","","","","","","","","","key","j","16.98287378640781","960","536","j","true","img/C_ambi40.png","好人","prac_word_first",""
"","","","","","html-keyboard-response","71","213406","0.0-9.0-0.0-1.5","null","<span style='color:GreenYellow; font-size: 70px;'>正确! </span>","null","","","","","","","","","","","","","","","","","","","","","","","feedback_test"
"","","","","","psychophysics","72","215155","0.0-9.0-0.0-0.6","596","","j","","","","","","","","","","","","","key","j","16.661240384615386","960","536","j","true","img/S_ambi40.png","坏人","prac_word_first",""
"","","","","","html-keyboard-response","73","215456","0.0-9.0-0.0-1.6","null","<span style='color:GreenYellow; font-size: 70px;'>正确! </span>","null","","","","","","","","","","","","","","","","","","","","","","","feedback_test"
"","","","","","psychophysics","74","217143","0.0-9.0-0.0-0.7","535","","j","","","","","","","","","","","","","key","j","16.64088000000018","960","536","f","false","img/S_ambi40.png","常人","prac_word_first",""
"","","","","","html-keyboard-response","75","217457","0.0-9.0-0.0-1.7","null","<span style='color:red; font-size: 70px;'>错误! </span>","null","","","","","","","","","","","","","","","","","","","","","","","feedback_test"
"","","","","","psychophysics","76","219225","0.0-9.0-0.0-0.8","617","","j","","","","","","","","","","","","","key","j","16.658723809523785","960","536","j","true","img/C_ambi40.png","好人","prac_word_first",""
"","","","","","html-keyboard-response","77","219532","0.0-9.0-0.0-1.8","null","<span style='color:GreenYellow; font-size: 70px;'>正确! </span>","null","","","","","","","","","","","","","","","","","","","","","","","feedback_test"
"","","","","","psychophysics","78","221512","0.0-9.0-0.0-0.9","825","","f","","","","","","","","","","","","","key","f","17.396362831858315","960","536","f","true","img/C_ambi40.png","常人","prac_word_first",""
"","","","","","html-keyboard-response","79","221822","0.0-9.0-0.0-1.9","null","<span style='color:GreenYellow; font-size: 70px;'>正确! </span>","null","","","","","","","","","","","","","","","","","","","","","","","feedback_test"
"","","","","","psychophysics","80","223858","0.0-9.0-0.0-0.10","871","","j","","","","","","","","","","","","","key","j","16.660603305785042","960","536","j","true","img/T_ambi40.png","常人","prac_word_first",""
"","","","","","html-keyboard-response","81","224167","0.0-9.0-0.0-1.10","null","<span style='color:GreenYellow; font-size: 70px;'>正确! </span>","null","","","","","","","","","","","","","","","","","","","","","","","feedback_test"
"","","","","","psychophysics","82","225875","0.0-9.0-0.0-0.11","555","","j","","","","","","","","","","","","","key","j","16.65775490196093","960","536","f","false","img/S_ambi40.png","好人","prac_word_first",""
"","","","","","html-keyboard-response","83","226178","0.0-9.0-0.0-1.11","null","<span style='color:red; font-size: 70px;'>错误! </span>","null","","","","","","","","","","","","","","","","","","","","","","","feedback_test"
"","","","","","psychophysics","84","228215","0.0-9.0-0.0-0.12","879","","j","","","","","","","","","","","","","key","j","16.657719008264724","960","536","j","true","img/T_ambi40.png","常人","prac_word_first",""
"","","","","","html-keyboard-response","85","228516","0.0-9.0-0.0-1.12","null","<span style='color:GreenYellow; font-size: 70px;'>正确! </span>","null","","","","","","","","","","","","","","","","","","","","","","","feedback_test"
"","","","","","psychophysics","86","230313","0.0-9.0-0.0-0.13","645","","j","","","","","","","","","","","","","key","j","16.66093396226423","960","536","f","false","img/T_ambi40.png","好人","prac_word_first",""
"","","","","","html-keyboard-response","87","230622","0.0-9.0-0.0-1.13","null","<span style='color:red; font-size: 70px;'>错误! </span>","null","","","","","","","","","","","","","","","","","","","","","","","feedback_test"
"","","","","","psychophysics","88","232519","0.0-9.0-0.0-0.14","736","","j","","","","","","","","","","","","","key","j","16.659628318584076","960","536","j","true","img/T_ambi40.png","常人","prac_word_first",""
"","","","","","html-keyboard-response","89","232821","0.0-9.0-0.0-1.14","null","<span style='color:GreenYellow; font-size: 70px;'>正确! </span>","null","","","","","","","","","","","","","","","","","","","","","","","feedback_test"
"","","","","","psychophysics","90","234628","0.0-9.0-0.0-0.15","651","","j","","","","","","","","","","","","","key","j","16.658467289719677","960","536","j","true","img/C_ambi40.png","好人","prac_word_first",""
"","","","","","html-keyboard-response","91","234939","0.0-9.0-0.0-1.15","null","<span style='color:GreenYellow; font-size: 70px;'>正确! </span>","null","","","","","","","","","","","","","","","","","","","","","","","feedback_test"
"","","","","","psychophysics","92","236858","0.0-9.0-0.0-0.16","767","","f","","","","","","","","","","","","","key","f","16.803840707964365","960","536","f","true","img/S_ambi40.png","好人","prac_word_first",""
"","","","","","html-keyboard-response","93","237162","0.0-9.0-0.0-1.16","null","<span style='color:GreenYellow; font-size: 70px;'>正确! </span>","null","","","","","","","","","","","","","","","","","","","","","","","feedback_test"
"","","","","","psychophysics","94","238904","0.0-9.0-0.0-0.17","591","","j","","","","","","","","","","","","","key","j","16.657805825242868","960","536","j","true","img/S_ambi40.png","坏人","prac_word_first",""
"","","","","","html-keyboard-response","95","239206","0.0-9.0-0.0-1.17","null","<span style='color:GreenYellow; font-size: 70px;'>正确! </span>","null","","","","","","","","","","","","","","","","","","","","","","","feedback_test"
"","","","","","psychophysics","96","241014","0.0-9.0-0.0-0.18","653","","j","","","","","","","","","","","","","key","j","18.35764285714285","960","536","j","true","img/C_ambi40.png","好人","prac_word_first",""
"","","","","","html-keyboard-response","97","241317","0.0-9.0-0.0-1.18","null","<span style='color:GreenYellow; font-size: 70px;'>正确! </span>","null","","","","","","","","","","","","","","","","","","","","","","","feedback_test"
"","","","","","psychophysics","98","243288","0.0-9.0-0.0-0.19","812","","f","","","","","","","","","","","","","key","f","16.661444444444157","960","536","f","true","img/C_ambi40.png","坏人","prac_word_first",""
"","","","","","html-keyboard-response","99","243596","0.0-9.0-0.0-1.19","null","<span style='color:GreenYellow; font-size: 70px;'>正确! </span>","null","","","","","","","","","","","","","","","","","","","","","","","feedback_test"
"","","","","","psychophysics","100","245414","0.0-9.0-0.0-0.20","658","","j","","","","","","","","","","","","","key","j","16.660287037036916","960","536","j","true","img/S_ambi40.png","坏人","prac_word_first",""
"","","","","","html-keyboard-response","101","245716","0.0-9.0-0.0-1.20","null","<span style='color:GreenYellow; font-size: 70px;'>正确! </span>","null","","","","","","","","","","","","","","","","","","","","","","","feedback_test"
"","","","","","psychophysics","102","247461","0.0-9.0-0.0-0.21","585","","f","","","","","","","","","","","","","key","f","16.65903846153826","960","536","f","true","img/T_ambi40.png","坏人","prac_word_first",""
"","","","","","html-keyboard-response","103","247766","0.0-9.0-0.0-1.21","null","<span style='color:GreenYellow; font-size: 70px;'>正确! </span>","null","","","","","","","","","","","","","","","","","","","","","","","feedback_test"
"","","","","","psychophysics","104","249782","0.0-9.0-0.0-0.22","860","","f","","","","","","","","","","","","","key","f","16.660658333333654","960","536","f","true","img/C_ambi40.png","常人","prac_word_first",""
"","","","","","html-keyboard-response","105","250086","0.0-9.0-0.0-1.22","null","<span style='color:GreenYellow; font-size: 70px;'>正确! </span>","null","","","","","","","","","","","","","","","","","","","","","","","feedback_test"
"","","","","","psychophysics","106","252257","0.0-9.0-0.0-0.23","1019","","f","","","","","","","","","","","","","key","f","17.460886178861895","960","536","f","true","img/S_ambi40.png","常人","prac_word_first",""
"","","","","","html-keyboard-response","107","252566","0.0-9.0-0.0-1.23","null","<span style='color:GreenYellow; font-size: 70px;'>正确! </span>","null","","","","","","","","","","","","","","","","","","","","","","","feedback_test"
"","","","","","html-keyboard-response","108","256332","0.0-10.0","3764","<style>.context{color:white; font-size: 35px; line-height:40px}</style>                              <div><p class='context'>您正确回答了79% 的试次。</p><p class='context'>您的平均反应时为733毫秒。</p><p class='context'>恭喜您完成练习。按任意键进入<span style='color: yellow;'>图形和文字同时呈现条件</span>的练习。</p></div>"," ","","","","","","","","","","","","","","","","","","","","","","",""
"","","","","","psychophysics","109","258380","0.0-11.0-0.0-0.0","1039","","f","","","","","","","","","","","","","key","f","16.6575737704917","960","536","f","true","img/T_ambi40.png","好人","prac_simultaneous",""
"","","","","","html-keyboard-response","110","258686","0.0-11.0-0.0-1.0","null","<span style='color:GreenYellow; font-size: 70px;'>正确! </span>","null","","","","","","","","","","","","","","","","","","","","","","","feedback_test"
"","","","","","psychophysics","111","260423","0.0-11.0-0.0-0.1","727","","f","","","","","","","","","","","","","key","f","16.659902912621654","960","536","j","false","img/T_ambi40.png","常人","prac_simultaneous",""
"","","","","","html-keyboard-response","112","260727","0.0-11.0-0.0-1.1","null","<span style='color:red; font-size: 70px;'>错误! </span>","null","","","","","","","","","","","","","","","","","","","","","","","feedback_test"
"","","","","","psychophysics","113","262413","0.0-11.0-0.0-0.2","681","","j","","","","","","","","","","","","","key","j","16.65738000000012","960","536","j","true","img/T_ambi40.png","常人","prac_simultaneous",""
"","","","","","html-keyboard-response","114","262716","0.0-11.0-0.0-1.2","null","<span style='color:GreenYellow; font-size: 70px;'>正确! </span>","null","","","","","","","","","","","","","","","","","","","","","","","feedback_test"
"","","","","","psychophysics","115","264479","0.0-11.0-0.0-0.3","754","","f","","","","","","","","","","","","","key","f","16.6541153846153","960","536","f","true","img/C_ambi40.png","常人","prac_simultaneous",""
"","","","","","html-keyboard-response","116","264786","0.0-11.0-0.0-1.3","null","<span style='color:GreenYellow; font-size: 70px;'>正确! </span>","null","","","","","","","","","","","","","","","","","","","","","","","feedback_test"
"","","","","","psychophysics","117","266606","0.0-11.0-0.0-0.4","814","","j","","","","","","","","","","","","","key","j","16.812953271028352","960","536","j","true","img/C_ambi40.png","好人","prac_simultaneous",""
"","","","","","html-keyboard-response","118","266921","0.0-11.0-0.0-1.4","null","<span style='color:GreenYellow; font-size: 70px;'>正确! </span>","null","","","","","","","","","","","","","","","","","","","","","","","feedback_test"
"","","","","","psychophysics","119","268593","0.0-11.0-0.0-0.5","671","","f","","","","","","","","","","","","","key","f","16.65688421052611","960","536","f","true","img/S_ambi40.png","好人","prac_simultaneous",""
"","","","","","html-keyboard-response","120","268896","0.0-11.0-0.0-1.5","null","<span style='color:GreenYellow; font-size: 70px;'>正确! </span>","null","","","","","","","","","","","","","","","","","","","","","","","feedback_test"
"","","","","","psychophysics","121","270721","0.0-11.0-0.0-0.6","825","","j","","","","","","","","","","","","","key","j","16.654064814814504","960","536","j","true","img/S_ambi40.png","坏人","prac_simultaneous",""
"","","","","","html-keyboard-response","122","271026","0.0-11.0-0.0-1.6","null","<span style='color:GreenYellow; font-size: 70px;'>正确! </span>","null","","","","","","","","","","","","","","","","","","","","","","","feedback_test"
"","","","","","psychophysics","123","272701","0.0-11.0-0.0-0.7","673","","j","","","","","","","","","","","","","key","j","16.657101010101155","960","536","j","true","img/C_ambi40.png","好人","prac_simultaneous",""
"","","","","","html-keyboard-response","124","273006","0.0-11.0-0.0-1.7","null","<span style='color:GreenYellow; font-size: 70px;'>正确! </span>","null","","","","","","","","","","","","","","","","","","","","","","","feedback_test"
"","","","","","psychophysics","125","274706","0.0-11.0-0.0-0.8","697","","f","","","","","","","","","","","","","key","f","16.66166336633643","960","536","f","true","img/C_ambi40.png","坏人","prac_simultaneous",""
"","","","","","html-keyboard-response","126","275016","0.0-11.0-0.0-1.8","null","<span style='color:GreenYellow; font-size: 70px;'>正确! </span>","null","","","","","","","","","","","","","","","","","","","","","","","feedback_test"
"","","","","","psychophysics","127","276789","0.0-11.0-0.0-0.9","765","","j","","","","","","","","","","","","","key","j","16.820740384615558","960","536","f","false","img/S_ambi40.png","常人","prac_simultaneous",""
"","","","","","html-keyboard-response","128","277096","0.0-11.0-0.0-1.9","null","<span style='color:red; font-size: 70px;'>错误! </span>","null","","","","","","","","","","","","","","","","","","","","","","","feedback_test"
"","","","","","psychophysics","129","279031","0.0-11.0-0.0-0.10","925","","f","","","","","","","","","","","","","key","f","17.25849549549575","960","536","j","false","img/S_ambi40.png","坏人","prac_simultaneous",""
"","","","","","html-keyboard-response","130","279336","0.0-11.0-0.0-1.10","null","<span style='color:red; font-size: 70px;'>错误! </span>","null","","","","","","","","","","","","","","","","","","","","","","","feedback_test"
"","","","","","psychophysics","131","281280","0.0-11.0-0.0-0.11","942","","f","","","","","","","","","","","","","key","f","16.660025862068668","960","536","f","true","img/T_ambi40.png","坏人","prac_simultaneous",""
"","","","","","html-keyboard-response","132","281586","0.0-11.0-0.0-1.11","null","<span style='color:GreenYellow; font-size: 70px;'>正确! </span>","null","","","","","","","","","","","","","","","","","","","","","","","feedback_test"
"","","","","","psychophysics","133","283422","0.0-11.0-0.0-0.12","834","","f","","","","","","","","","","","","","key","f","16.643201834862356","960","536","j","false","img/S_ambi40.png","坏人","prac_simultaneous",""
"","","","","","html-keyboard-response","134","283726","0.0-11.0-0.0-1.12","null","<span style='color:red; font-size: 70px;'>错误! </span>","null","","","","","","","","","","","","","","","","","","","","","","","feedback_test"
"","","","","","psychophysics","135","286038","0.0-11.0-0.0-0.13","1302","","j","","","","","","","","","","","","","key","j","16.65975362318863","960","536","j","true","img/C_ambi40.png","好人","prac_simultaneous",""
"","","","","","html-keyboard-response","136","286346","0.0-11.0-0.0-1.13","null","<span style='color:GreenYellow; font-size: 70px;'>正确! </span>","null","","","","","","","","","","","","","","","","","","","","","","","feedback_test"
"","","","","","psychophysics","137","288188","0.0-11.0-0.0-0.14","837","","f","","","","","","","","","","","","","key","f","16.969888888888548","960","536","f","true","img/T_ambi40.png","好人","prac_simultaneous",""
"","","","","","html-keyboard-response","138","288496","0.0-11.0-0.0-1.14","null","<span style='color:GreenYellow; font-size: 70px;'>正确! </span>","null","","","","","","","","","","","","","","","","","","","","","","","feedback_test"
"","","","","","psychophysics","139","290302","0.0-11.0-0.0-0.15","802","","f","","","","","","","","","","","","","key","f","17.46546601941775","960","536","f","true","img/T_ambi40.png","坏人","prac_simultaneous",""
"","","","","","html-keyboard-response","140","290606","0.0-11.0-0.0-1.15","null","<span style='color:GreenYellow; font-size: 70px;'>正确! </span>","null","","","","","","","","","","","","","","","","","","","","","","","feedback_test"
"","","","","","psychophysics","141","292584","0.0-11.0-0.0-0.16","968","","f","","","","","","","","","","","","","key","f","16.655076271186434","960","536","f","true","img/S_ambi40.png","好人","prac_simultaneous",""
"","","","","","html-keyboard-response","142","292896","0.0-11.0-0.0-1.16","null","<span style='color:GreenYellow; font-size: 70px;'>正确! </span>","null","","","","","","","","","","","","","","","","","","","","","","","feedback_test"
"","","","","","psychophysics","143","294782","0.0-11.0-0.0-0.17","885","","j","","","","","","","","","","","","","key","j","16.639321428571357","960","536","j","true","img/T_ambi40.png","常人","prac_simultaneous",""
"","","","","","html-keyboard-response","144","295096","0.0-11.0-0.0-1.17","null","<span style='color:GreenYellow; font-size: 70px;'>正确! </span>","null","","","","","","","","","","","","","","","","","","","","","","","feedback_test"
"","","","","","psychophysics","145","296893","0.0-11.0-0.0-0.18","795","","f","","","","","","","","","","","","","key","f","16.657622641509285","960","536","f","true","img/S_ambi40.png","常人","prac_simultaneous",""
"","","","","","html-keyboard-response","146","297196","0.0-11.0-0.0-1.18","null","<span style='color:GreenYellow; font-size: 70px;'>正确! </span>","null","","","","","","","","","","","","","","","","","","","","","","","feedback_test"
"","","","","","psychophysics","147","299036","0.0-11.0-0.0-0.19","839","","f","","","","","","","","","","","","","key","f","16.654761467889962","960","536","f","true","img/C_ambi40.png","坏人","prac_simultaneous",""
"","","","","","html-keyboard-response","148","299346","0.0-11.0-0.0-1.19","null","<span style='color:GreenYellow; font-size: 70px;'>正确! </span>","null","","","","","","","","","","","","","","","","","","","","","","","feedback_test"
"","","","","","psychophysics","149","301239","0.0-11.0-0.0-0.20","887","","f","","","","","","","","","","","","","key","f","17.117532110091624","960","536","f","true","img/C_ambi40.png","常人","prac_simultaneous",""
"","","","","","html-keyboard-response","150","301546","0.0-11.0-0.0-1.20","null","<span style='color:GreenYellow; font-size: 70px;'>正确! </span>","null","","","","","","","","","","","","","","","","","","","","","","","feedback_test"
"","","","","","psychophysics","151","303223","0.0-11.0-0.0-0.21","667","","f","","","","","","","","","","","","","key","f","16.657979797979937","960","536","j","false","img/T_ambi40.png","常人","prac_simultaneous",""
"","","","","","html-keyboard-response","152","303526","0.0-11.0-0.0-1.21","null","<span style='color:red; font-size: 70px;'>错误! </span>","null","","","","","","","","","","","","","","","","","","","","","","","feedback_test"
"","","","","","psychophysics","153","305258","0.0-11.0-0.0-0.22","731","","j","","","","","","","","","","","","","key","j","16.66094117647085","960","536","j","true","img/C_ambi40.png","好人","prac_simultaneous",""
"","","","","","html-keyboard-response","154","305566","0.0-11.0-0.0-1.22","null","<span style='color:GreenYellow; font-size: 70px;'>正确! </span>","null","","","","","","","","","","","","","","","","","","","","","","","feedback_test"
"","","","","","psychophysics","155","307410","0.0-11.0-0.0-0.23","835","","f","","","","","","","","","","","","","key","f","16.65793636363656","960","536","j","false","img/S_ambi40.png","坏人","prac_simultaneous",""
"","","","","","html-keyboard-response","156","307716","0.0-11.0-0.0-1.23","null","<span style='color:red; font-size: 70px;'>错误! </span>","null","","","","","","","","","","","","","","","","","","","","","","","feedback_test"
"","","","","","html-keyboard-response","157","310459","0.0-12.0","2740","<style>.context{color:white; font-size: 35px; line-height:40px}</style>                              <div><p class='context'>您正确回答了75% 的试次。</p><p class='context'>您的平均反应时为841毫秒。</p><p class='context'>恭喜您完成练习。按任意键进入正式实验。</p><p class='footer' style='font-size: 35px; line-height:40px;'>请在进入正式实验实验之前将您的<span style='color: lightgreen;'>食指</span>放在电脑键盘的相应键位上进行按键。</p>"," ","","","","","","","","","","","","","","","","","","","","","","",""
"","","","","","html-keyboard-response","158","314964","0.0-13.0-0.0-0.0","4501","
      <p>请您将手指放在按键上，准备进入呈现顺序为<span style='color: yellow;'>先图形后文字条件</span>的正式匹配任务</p>
      <p> <div style = ""color: green""><按任意键进入下一阶段的匹配任务></div></p>
      "," ","","","","","","","","","","","","","","","","","","","","","","",""
"","","","","","psychophysics","159","316553","0.0-13.0-0.0-1.0-0.0-0.0","437","","j","","","","","","","","","","","","","key","j","16.662393617020808","960","536","j","true","img/C_ambi40.png","好人","image_first",""
"","","","","","html-keyboard-response","160","316856","0.0-13.0-0.0-1.0-0.0-1.0","null","<span style='color:GreenYellow; font-size: 70px;'>正确! </span>","null","","","","","","","","","","","","","","","","","","","","","","","feedback_test"
"","","","","","psychophysics","161","318832","0.0-13.0-0.0-1.0-0.0-0.1","816","","f","","","","","","","","","","","","","key","f","16.655794871794896","960","536","j","false","img/T_ambi40.png","常人","image_first",""
"","","","","","html-keyboard-response","162","319146","0.0-13.0-0.0-1.0-0.0-1.1","null","<span style='color:red; font-size: 70px;'>错误! </span>","null","","","","","","","","","","","","","","","","","","","","","","","feedback_test"
"","","","","","psychophysics","163","320993","0.0-13.0-0.0-1.0-0.0-0.2","694","","f","","","","","","","","","","","","","key","f","16.661300000000153","960","536","f","true","img/S_ambi40.png","好人","image_first",""
"","","","","","html-keyboard-response","164","321296","0.0-13.0-0.0-1.0-0.0-1.2","null","<span style='color:GreenYellow; font-size: 70px;'>正确! </span>","null","","","","","","","","","","","","","","","","","","","","","","","feedback_test"
"","","","","","psychophysics","165","323310","0.0-13.0-0.0-1.0-0.0-0.3","862","","j","","","","","","","","","","","","","key","j","16.658783333333364","960","536","j","true","img/S_ambi40.png","坏人","image_first",""
"","","","","","html-keyboard-response","166","323616","0.0-13.0-0.0-1.0-0.0-1.3","null","<span style='color:GreenYellow; font-size: 70px;'>正确! </span>","null","","","","","","","","","","","","","","","","","","","","","","","feedback_test"
"","","","","","psychophysics","167","325566","0.0-13.0-0.0-1.0-0.0-0.4","790","","f","","","","","","","","","","","","","key","f","16.658034482758577","960","536","f","true","img/T_ambi40.png","坏人","image_first",""
"","","","","","html-keyboard-response","168","325876","0.0-13.0-0.0-1.0-0.0-1.4","null","<span style='color:GreenYellow; font-size: 70px;'>正确! </span>","null","","","","","","","","","","","","","","","","","","","","","","","feedback_test"
"","","","","","psychophysics","169","327605","0.0-13.0-0.0-1.0-0.0-0.5","576","","j","","","","","","","","","","","","","key","j","16.66189320388338","960","536","f","false","img/C_ambi40.png","常人","image_first",""
"","","","","","html-keyboard-response","170","327907","0.0-13.0-0.0-1.0-0.0-1.5","null","<span style='color:red; font-size: 70px;'>错误! </span>","null","","","","","","","","","","","","","","","","","","","","","","","feedback_test"
"","","","","","psychophysics","171","329842","0.0-13.0-0.0-1.0-0.0-0.6","781","","j","","","","","","","","","","","","","key","j","18.24255238095232","960","536","f","false","img/T_ambi40.png","好人","image_first",""
"","","","","","html-keyboard-response","172","330146","0.0-13.0-0.0-1.0-0.0-1.6","null","<span style='color:red; font-size: 70px;'>错误! </span>","null","","","","","","","","","","","","","","","","","","","","","","","feedback_test"
"","","","","","psychophysics","173","331903","0.0-13.0-0.0-1.0-0.0-0.7","596","","j","","","","","","","","","","","","","key","j","16.660288461538865","960","536","j","true","img/C_ambi40.png","好人","image_first",""
"","","","","","html-keyboard-response","174","332206","0.0-13.0-0.0-1.0-0.0-1.7","null","<span style='color:GreenYellow; font-size: 70px;'>正确! </span>","null","","","","","","","","","","","","","","","","","","","","","","","feedback_test"
"","","","","","psychophysics","175","334435","0.0-13.0-0.0-1.0-0.0-0.8","1077","","j","","","","","","","","","","","","","key","j","16.915335877862482","960","536","j","true","img/T_ambi40.png","常人","image_first",""
"","","","","","html-keyboard-response","176","334736","0.0-13.0-0.0-1.0-0.0-1.8","null","<span style='color:GreenYellow; font-size: 70px;'>正确! </span>","null","","","","","","","","","","","","","","","","","","","","","","","feedback_test"
"","","","","","psychophysics","177","336652","0.0-13.0-0.0-1.0-0.0-0.9","761","","f","","","","","","","","","","","","","key","f","16.807566371681457","960","536","f","true","img/C_ambi40.png","坏人","image_first",""
"","","","","","html-keyboard-response","178","336956","0.0-13.0-0.0-1.0-0.0-1.9","null","<span style='color:GreenYellow; font-size: 70px;'>正确! </span>","null","","","","","","","","","","","","","","","","","","","","","","","feedback_test"
"","","","","","psychophysics","179","339052","0.0-13.0-0.0-1.0-0.0-0.10","945","","j","","","","","","","","","","","","","key","j","17.354050420167926","960","536","j","true","img/S_ambi40.png","坏人","image_first",""
"","","","","","html-keyboard-response","180","339356","0.0-13.0-0.0-1.0-0.0-1.10","null","<span style='color:GreenYellow; font-size: 70px;'>正确! </span>","null","","","","","","","","","","","","","","","","","","","","","","","feedback_test"
"","","","","","psychophysics","181","341173","0.0-13.0-0.0-1.0-0.0-0.11","665","","f","","","","","","","","","","","","","key","f","16.657768518518424","960","536","f","true","img/S_ambi40.png","常人","image_first",""
"","","","","","html-keyboard-response","182","341476","0.0-13.0-0.0-1.0-0.0-1.11","null","<span style='color:GreenYellow; font-size: 70px;'>正确! </span>","null","","","","","","","","","","","","","","","","","","","","","","","feedback_test"
"","","","","","psychophysics","183","343508","0.0-13.0-0.0-1.0-0.0-0.12","869","","f","","","","","","","","","","","","","key","f","16.659024793388177","960","536","f","true","img/C_ambi40.png","坏人","image_first",""
"","","","","","html-keyboard-response","184","343821","0.0-13.0-0.0-1.0-0.0-1.12","null","<span style='color:GreenYellow; font-size: 70px;'>正确! </span>","null","","","","","","","","","","","","","","","","","","","","","","","feedback_test"
"","","","","","psychophysics","185","345627","0.0-13.0-0.0-1.0-0.0-0.13","656","","f","","","","","","","","","","","","","key","f","16.65498130841161","960","536","f","true","img/T_ambi40.png","坏人","image_first",""
"","","","","","html-keyboard-response","186","345936","0.0-13.0-0.0-1.0-0.0-1.13","null","<span style='color:GreenYellow; font-size: 70px;'>正确! </span>","null","","","","","","","","","","","","","","","","","","","","","","","feedback_test"
"","","","","","psychophysics","187","348082","0.0-13.0-0.0-1.0-0.0-0.14","986","","j","","","","","","","","","","","","","key","j","16.657842519685286","960","536","j","true","img/C_ambi40.png","好人","image_first",""
"","","","","","html-keyboard-response","188","348386","0.0-13.0-0.0-1.0-0.0-1.14","null","<span style='color:GreenYellow; font-size: 70px;'>正确! </span>","null","","","","","","","","","","","","","","","","","","","","","","","feedback_test"
"","","","","","psychophysics","189","350688","0.0-13.0-0.0-1.0-0.0-0.15","1142","","f","","","","","","","","","","","","","key","f","16.90731111111085","960","536","f","true","img/T_ambi40.png","好人","image_first",""
"","","","","","html-keyboard-response","190","350996","0.0-13.0-0.0-1.0-0.0-1.15","null","<span style='color:GreenYellow; font-size: 70px;'>正确! </span>","null","","","","","","","","","","","","","","","","","","","","","","","feedback_test"
"","","","","","psychophysics","191","353036","0.0-13.0-0.0-1.0-0.0-0.16","887","","j","","","","","","","","","","","","","key","j","16.66016393442606","960","536","j","true","img/T_ambi40.png","常人","image_first",""
"","","","","","html-keyboard-response","192","353346","0.0-13.0-0.0-1.0-0.0-1.16","null","<span style='color:GreenYellow; font-size: 70px;'>正确! </span>","null","","","","","","","","","","","","","","","","","","","","","","","feedback_test"
"","","","","","psychophysics","193","355091","0.0-13.0-0.0-1.0-0.0-0.17","593","","j","","","","","","","","","","","","","key","j","16.530669902912475","960","536","j","true","img/T_ambi40.png","常人","image_first",""
"","","","","","html-keyboard-response","194","355396","0.0-13.0-0.0-1.0-0.0-1.17","null","<span style='color:GreenYellow; font-size: 70px;'>正确! </span>","null","","","","","","","","","","","","","","","","","","","","","","","feedback_test"
"","","","","","psychophysics","195","357263","0.0-13.0-0.0-1.0-0.0-0.18","716","","f","","","","","","","","","","","","","key","f","16.65748648648622","960","536","j","false","img/S_ambi40.png","坏人","image_first",""
"","","","","","html-keyboard-response","196","357566","0.0-13.0-0.0-1.0-0.0-1.18","null","<span style='color:red; font-size: 70px;'>错误! </span>","null","","","","","","","","","","","","","","","","","","","","","","","feedback_test"
"","","","","","psychophysics","197","359499","0.0-13.0-0.0-1.0-0.0-0.19","773","","f","","","","","","","","","","","","","key","f","17.107410714285965","960","536","f","true","img/S_ambi40.png","常人","image_first",""
"","","","","","html-keyboard-response","198","359806","0.0-13.0-0.0-1.0-0.0-1.19","null","<span style='color:GreenYellow; font-size: 70px;'>正确! </span>","null","","","","","","","","","","","","","","","","","","","","","","","feedback_test"
"","","","","","psychophysics","199","361513","0.0-13.0-0.0-1.0-0.0-0.20","554","","j","","","","","","","","","","","","","key","j","16.6580196078433","960","536","j","true","img/S_ambi40.png","坏人","image_first",""
"","","","","","html-keyboard-response","200","361816","0.0-13.0-0.0-1.0-0.0-1.20","null","<span style='color:GreenYellow; font-size: 70px;'>正确! </span>","null","","","","","","","","","","","","","","","","","","","","","","","feedback_test"
"","","","","","psychophysics","201","363686","0.0-13.0-0.0-1.0-0.0-0.21","711","","j","","","","","","","","","","","","","key","j","16.660774774774428","960","536","f","false","img/C_ambi40.png","常人","image_first",""
"","","","","","html-keyboard-response","202","363996","0.0-13.0-0.0-1.0-0.0-1.21","null","<span style='color:red; font-size: 70px;'>错误! </span>","null","","","","","","","","","","","","","","","","","","","","","","","feedback_test"
"","","","","","psychophysics","203","365724","0.0-13.0-0.0-1.0-0.0-0.22","568","","j","","","","","","","","","","","","","key","j","16.65764077669925","960","536","j","true","img/C_ambi40.png","好人","image_first",""
"","","","","","html-keyboard-response","204","366026","0.0-13.0-0.0-1.0-0.0-1.22","null","<span style='color:GreenYellow; font-size: 70px;'>正确! </span>","null","","","","","","","","","","","","","","","","","","","","","","","feedback_test"
"","","","","","psychophysics","205","367793","0.0-13.0-0.0-1.0-0.0-0.23","606","","f","","","","","","","","","","","","","key","f","16.655152380952632","960","536","f","true","img/S_ambi40.png","好人","image_first",""
"","","","","","html-keyboard-response","206","368116","0.0-13.0-0.0-1.0-0.0-1.23","null","<span style='color:GreenYellow; font-size: 70px;'>正确! </span>","null","","","","","","","","","","","","","","","","","","","","","","","feedback_test"
"","","","","","psychophysics","207","369980","0.0-13.0-0.0-1.0-0.0-0.24","709","","f","","","","","","","","","","","","","key","f","16.96661467889939","960","536","j","false","img/T_ambi40.png","常人","image_first",""
"","","","","","html-keyboard-response","208","370292","0.0-13.0-0.0-1.0-0.0-1.24","null","<span style='color:red; font-size: 70px;'>错误! </span>","null","","","","","","","","","","","","","","","","","","","","","","","feedback_test"
"","","","","","psychophysics","209","371944","0.0-13.0-0.0-1.0-0.0-0.25","498","","j","","","","","","","","","","","","","key","j","16.65604081632669","960","536","f","false","img/C_ambi40.png","常人","image_first",""
"","","","","","html-keyboard-response","210","372256","0.0-13.0-0.0-1.0-0.0-1.25","null","<span style='color:red; font-size: 70px;'>错误! </span>","null","","","","","","","","","","","","","","","","","","","","","","","feedback_test"
"","","","","","psychophysics","211","374031","0.0-13.0-0.0-1.0-0.0-0.26","615","","j","","","","","","","","","","","","","key","j","16.65743809523826","960","536","j","true","img/C_ambi40.png","好人","image_first",""
"","","","","","html-keyboard-response","212","374336","0.0-13.0-0.0-1.0-0.0-1.26","null","<span style='color:GreenYellow; font-size: 70px;'>正确! </span>","null","","","","","","","","","","","","","","","","","","","","","","","feedback_test"
"","","","","","psychophysics","213","376167","0.0-13.0-0.0-1.0-0.0-0.27","671","","f","","","","","","","","","","","","","key","f","16.658462962962435","960","536","j","false","img/T_ambi40.png","常人","image_first",""
"","","","","","html-keyboard-response","214","376476","0.0-13.0-0.0-1.0-0.0-1.27","null","<span style='color:red; font-size: 70px;'>错误! </span>","null","","","","","","","","","","","","","","","","","","","","","","","feedback_test"
"","","","","","psychophysics","215","378409","0.0-13.0-0.0-1.0-0.0-0.28","776","","f","","","","","","","","","","","","","key","f","16.801210526315693","960","536","f","true","img/C_ambi40.png","坏人","image_first",""
"","","","","","html-keyboard-response","216","378716","0.0-13.0-0.0-1.0-0.0-1.28","null","<span style='color:GreenYellow; font-size: 70px;'>正确! </span>","null","","","","","","","","","","","","","","","","","","","","","","","feedback_test"
"","","","","","psychophysics","217","380672","0.0-13.0-0.0-1.0-0.0-0.29","804","","f","","","","","","","","","","","","","key","f","16.65448275862105","960","536","f","true","img/T_ambi40.png","坏人","image_first",""
"","","","","","html-keyboard-response","218","380976","0.0-13.0-0.0-1.0-0.0-1.29","null","<span style='color:GreenYellow; font-size: 70px;'>正确! </span>","null","","","","","","","","","","","","","","","","","","","","","","","feedback_test"
"","","","","","psychophysics","219","382958","0.0-13.0-0.0-1.0-0.0-0.30","827","","f","","","","","","","","","","","","","key","f","16.65790677966128","960","536","j","false","img/S_ambi40.png","坏人","image_first",""
"","","","","","html-keyboard-response","220","383266","0.0-13.0-0.0-1.0-0.0-1.30","null","<span style='color:red; font-size: 70px;'>错误! </span>","null","","","","","","","","","","","","","","","","","","","","","","","feedback_test"
"","","","","","psychophysics","221","385478","0.0-13.0-0.0-1.0-0.0-0.31","1052","","j","","","","","","","","","","","","","key","j","16.657725190839336","960","536","j","true","img/S_ambi40.png","坏人","image_first",""
"","","","","","html-keyboard-response","222","385786","0.0-13.0-0.0-1.0-0.0-1.31","null","<span style='color:GreenYellow; font-size: 70px;'>正确! </span>","null","","","","","","","","","","","","","","","","","","","","","","","feedback_test"
"","","","","","psychophysics","223","387606","0.0-13.0-0.0-1.0-0.0-0.32","659","","j","","","","","","","","","","","","","key","j","16.65916666666669","960","536","j","true","img/C_ambi40.png","好人","image_first",""
"","","","","","html-keyboard-response","224","387912","0.0-13.0-0.0-1.0-0.0-1.32","null","<span style='color:GreenYellow; font-size: 70px;'>正确! </span>","null","","","","","","","","","","","","","","","","","","","","","","","feedback_test"
"","","","","","psychophysics","225","390047","0.0-13.0-0.0-1.0-0.0-0.33","971","","f","","","","","","","","","","","","","key","f","17.485785123966693","960","536","f","true","img/S_ambi40.png","好人","image_first",""
"","","","","","html-keyboard-response","226","390356","0.0-13.0-0.0-1.0-0.0-1.33","null","<span style='color:GreenYellow; font-size: 70px;'>正确! </span>","null","","","","","","","","","","","","","","","","","","","","","","","feedback_test"
"","","","","","psychophysics","227","392387","0.0-13.0-0.0-1.0-0.0-0.34","878","","f","","","","","","","","","","","","","key","f","16.660909090909342","960","536","f","true","img/S_ambi40.png","常人","image_first",""
"","","","","","html-keyboard-response","228","392696","0.0-13.0-0.0-1.0-0.0-1.34","null","<span style='color:GreenYellow; font-size: 70px;'>正确! </span>","null","","","","","","","","","","","","","","","","","","","","","","","feedback_test"
"","","","","","psychophysics","229","394772","0.0-13.0-0.0-1.0-0.0-0.35","916","","f","","","","","","","","","","","","","key","f","16.656983739836992","960","536","f","true","img/T_ambi40.png","好人","image_first",""
"","","","","","html-keyboard-response","230","395076","0.0-13.0-0.0-1.0-0.0-1.35","null","<span style='color:GreenYellow; font-size: 70px;'>正确! </span>","null","","","","","","","","","","","","","","","","","","","","","","","feedback_test"
"","","","","","psychophysics","231","397316","0.0-13.0-0.0-1.0-0.0-0.36","1080","","f","","","","","","","","","","","","","key","f","16.656526315789687","960","536","f","true","img/T_ambi40.png","坏人","image_first",""
"","","","","","html-keyboard-response","232","397626","0.0-13.0-0.0-1.0-0.0-1.36","null","<span style='color:GreenYellow; font-size: 70px;'>正确! </span>","null","","","","","","","","","","","","","","","","","","","","","","","feedback_test"
"","","","","","psychophysics","233","399788","0.0-13.0-0.0-1.0-0.0-0.37","1000","","f","","","","","","","","","","","","","key","f","16.660593750000317","960","536","f","true","img/C_ambi40.png","常人","image_first",""
"","","","","","html-keyboard-response","234","400096","0.0-13.0-0.0-1.0-0.0-1.37","null","<span style='color:GreenYellow; font-size: 70px;'>正确! </span>","null","","","","","","","","","","","","","","","","","","","","","","","feedback_test"
"","","","","","psychophysics","235","401818","0.0-13.0-0.0-1.0-0.0-0.38","564","","j","","","","","","","","","","","","","key","j","18.091924731182786","960","536","j","true","img/C_ambi40.png","好人","image_first",""
"","","","","","html-keyboard-response","236","402131","0.0-13.0-0.0-1.0-0.0-1.38","null","<span style='color:GreenYellow; font-size: 70px;'>正确! </span>","null","","","","","","","","","","","","","","","","","","","","","","","feedback_test"
"","","","","","psychophysics","237","404079","0.0-13.0-0.0-1.0-0.0-0.39","793","","f","","","","","","","","","","","","","key","f","16.657543103448475","960","536","f","true","img/S_ambi40.png","好人","image_first",""
"","","","","","html-keyboard-response","238","404392","0.0-13.0-0.0-1.0-0.0-1.39","null","<span style='color:GreenYellow; font-size: 70px;'>正确! </span>","null","","","","","","","","","","","","","","","","","","","","","","","feedback_test"
"","","","","","psychophysics","239","406234","0.0-13.0-0.0-1.0-0.0-0.40","691","","j","","","","","","","","","","","","","key","j","16.65652293578023","960","536","j","true","img/C_ambi40.png","好人","image_first",""
"","","","","","html-keyboard-response","240","406538","0.0-13.0-0.0-1.0-0.0-1.40","null","<span style='color:GreenYellow; font-size: 70px;'>正确! </span>","null","","","","","","","","","","","","","","","","","","","","","","","feedback_test"
"","","","","","psychophysics","241","408298","0.0-13.0-0.0-1.0-0.0-0.41","605","","f","","","","","","","","","","","","","key","f","16.65652884615366","960","536","f","true","img/T_ambi40.png","好人","image_first",""
"","","","","","html-keyboard-response","242","408606","0.0-13.0-0.0-1.0-0.0-1.41","null","<span style='color:GreenYellow; font-size: 70px;'>正确! </span>","null","","","","","","","","","","","","","","","","","","","","","","","feedback_test"
"","","","","","psychophysics","243","410523","0.0-13.0-0.0-1.0-0.0-0.42","762","","f","","","","","","","","","","","","","key","f","16.808805309734677","960","536","f","true","img/C_ambi40.png","坏人","image_first",""
"","","","","","html-keyboard-response","244","410826","0.0-13.0-0.0-1.0-0.0-1.42","null","<span style='color:GreenYellow; font-size: 70px;'>正确! </span>","null","","","","","","","","","","","","","","","","","","","","","","","feedback_test"
"","","","","","psychophysics","245","412660","0.0-13.0-0.0-1.0-0.0-0.43","682","","f","","","","","","","","","","","","","key","f","16.659495412844123","960","536","j","false","img/S_ambi40.png","坏人","image_first",""
"","","","","","html-keyboard-response","246","412966","0.0-13.0-0.0-1.0-0.0-1.43","null","<span style='color:red; font-size: 70px;'>错误! </span>","null","","","","","","","","","","","","","","","","","","","","","","","feedback_test"
"","","","","","psychophysics","247","415019","0.0-13.0-0.0-1.0-0.0-0.44","893","","f","","","","","","","","","","","","","key","f","16.658459016393877","960","536","j","false","img/T_ambi40.png","常人","image_first",""
"","","","","","html-keyboard-response","248","415322","0.0-13.0-0.0-1.0-0.0-1.44","null","<span style='color:red; font-size: 70px;'>错误! </span>","null","","","","","","","","","","","","","","","","","","","","","","","feedback_test"
"","","","","","psychophysics","249","417493","0.0-13.0-0.0-1.0-0.0-0.45","1017","","j","","","","","","","","","","","","","key","j","16.787507812499825","960","536","j","true","img/S_ambi40.png","坏人","image_first",""
"","","","","","html-keyboard-response","250","417796","0.0-13.0-0.0-1.0-0.0-1.45","null","<span style='color:GreenYellow; font-size: 70px;'>正确! </span>","null","","","","","","","","","","","","","","","","","","","","","","","feedback_test"
"","","","","","psychophysics","251","419811","0.0-13.0-0.0-1.0-0.0-0.46","865","","j","","","","","","","","","","","","","key","j","16.655508333333515","960","536","j","true","img/T_ambi40.png","常人","image_first",""
"","","","","","html-keyboard-response","252","420116","0.0-13.0-0.0-1.0-0.0-1.46","null","<span style='color:GreenYellow; font-size: 70px;'>正确! </span>","null","","","","","","","","","","","","","","","","","","","","","","","feedback_test"
"","","","","","psychophysics","253","422138","0.0-13.0-0.0-1.0-0.0-0.47","862","","f","","","","","","","","","","","","","key","f","16.659133333333497","960","536","f","true","img/S_ambi40.png","常人","image_first",""
"","","","","","html-keyboard-response","254","422446","0.0-13.0-0.0-1.0-0.0-1.47","null","<span style='color:GreenYellow; font-size: 70px;'>正确! </span>","null","","","","","","","","","","","","","","","","","","","","","","","feedback_test"
"","","","","","psychophysics","255","424459","0.0-13.0-0.0-1.0-0.0-0.48","853","","j","","","","","","","","","","","","","key","j","16.657499999999708","960","536","j","true","img/S_ambi40.png","坏人","image_first",""
"","","","","","html-keyboard-response","256","424765","0.0-13.0-0.0-1.0-0.0-1.48","null","<span style='color:GreenYellow; font-size: 70px;'>正确! </span>","null","","","","","","","","","","","","","","","","","","","","","","","feedback_test"
"","","","","","psychophysics","257","426665","0.0-13.0-0.0-1.0-0.0-0.49","741","","f","","","","","","","","","","","","","key","f","16.661486725663906","960","536","f","true","img/T_ambi40.png","坏人","image_first",""
"","","","","","html-keyboard-response","258","426966","0.0-13.0-0.0-1.0-0.0-1.49","null","<span style='color:GreenYellow; font-size: 70px;'>正确! </span>","null","","","","","","","","","","","","","","","","","","","","","","","feedback_test"
"","","","","","psychophysics","259","429042","0.0-13.0-0.0-1.0-0.0-0.50","920","","f","","","","","","","","","","","","","key","f","16.658225806451576","960","536","f","true","img/T_ambi40.png","好人","image_first",""
"","","","","","html-keyboard-response","260","429345","0.0-13.0-0.0-1.0-0.0-1.50","null","<span style='color:GreenYellow; font-size: 70px;'>正确! </span>","null","","","","","","","","","","","","","","","","","","","","","","","feedback_test"
"","","","","","psychophysics","261","431433","0.0-13.0-0.0-1.0-0.0-0.51","936","","f","","","","","","","","","","","","","key","f","17.072123966941778","960","536","f","true","img/C_ambi40.png","坏人","image_first",""
"","","","","","html-keyboard-response","262","431736","0.0-13.0-0.0-1.0-0.0-1.51","null","<span style='color:GreenYellow; font-size: 70px;'>正确! </span>","null","","","","","","","","","","","","","","","","","","","","","","","feedback_test"
"","","","","","psychophysics","263","433514","0.0-13.0-0.0-1.0-0.0-0.52","626","","j","","","","","","","","","","","","","key","j","16.6613523809522","960","536","j","true","img/C_ambi40.png","好人","image_first",""
"","","","","","html-keyboard-response","264","433815","0.0-13.0-0.0-1.0-0.0-1.52","null","<span style='color:GreenYellow; font-size: 70px;'>正确! </span>","null","","","","","","","","","","","","","","","","","","","","","","","feedback_test"
"","","","","","psychophysics","265","435492","0.0-13.0-0.0-1.0-0.0-0.53","524","","j","","","","","","","","","","","","","key","j","16.661990000000223","960","536","j","true","img/C_ambi40.png","好人","image_first",""
"","","","","","html-keyboard-response","266","435796","0.0-13.0-0.0-1.0-0.0-1.53","null","<span style='color:GreenYellow; font-size: 70px;'>正确! </span>","null","","","","","","","","","","","","","","","","","","","","","","","feedback_test"
"","","","","","psychophysics","267","437404","0.0-13.0-0.0-1.0-0.0-0.54","454","","f","","","","","","","","","","","","","key","f","16.661458333333332","960","536","j","false","img/T_ambi40.png","常人","image_first",""
"","","","","","html-keyboard-response","268","437705","0.0-13.0-0.0-1.0-0.0-1.54","null","<span style='color:red; font-size: 70px;'>错误! </span>","null","","","","","","","","","","","","","","","","","","","","","","","feedback_test"
"","","","","","psychophysics","269","439561","0.0-13.0-0.0-1.0-0.0-0.55","695","","f","","","","","","","","","","","","","key","f","16.660099999999776","960","536","f","true","img/S_ambi40.png","好人","image_first",""
"","","","","","html-keyboard-response","270","439865","0.0-13.0-0.0-1.0-0.0-1.55","null","<span style='color:GreenYellow; font-size: 70px;'>正确! </span>","null","","","","","","","","","","","","","","","","","","","","","","","feedback_test"
"","","","","","psychophysics","271","441540","0.0-13.0-0.0-1.0-0.0-0.56","514","","j","","","","","","","","","","","","","key","j","16.660898989899028","960","536","f","false","img/S_ambi40.png","常人","image_first",""
"","","","","","html-keyboard-response","272","441846","0.0-13.0-0.0-1.0-0.0-1.56","null","<span style='color:red; font-size: 70px;'>错误! </span>","null","","","","","","","","","","","","","","","","","","","","","","","feedback_test"
"","","","","","psychophysics","273","443684","0.0-13.0-0.0-1.0-0.0-0.57","686","","j","","","","","","","","","","","","","key","j","16.637706422018432","960","536","j","true","img/S_ambi40.png","坏人","image_first",""
"","","","","","html-keyboard-response","274","443991","0.0-13.0-0.0-1.0-0.0-1.57","null","<span style='color:GreenYellow; font-size: 70px;'>正确! </span>","null","","","","","","","","","","","","","","","","","","","","","","","feedback_test"
"","","","","","psychophysics","275","445826","0.0-13.0-0.0-1.0-0.0-0.58","681","","f","","","","","","","","","","","","","key","f","16.65960550458713","960","536","j","false","img/T_ambi40.png","常人","image_first",""
"","","","","","html-keyboard-response","276","446145","0.0-13.0-0.0-1.0-0.0-1.58","null","<span style='color:red; font-size: 70px;'>错误! </span>","null","","","","","","","","","","","","","","","","","","","","","","","feedback_test"
"","","","","","psychophysics","277","448186","0.0-13.0-0.0-1.0-0.0-0.59","889","","f","","","","","","","","","","","","","key","f","16.654611570248285","960","536","f","true","img/C_ambi40.png","常人","image_first",""
"","","","","","html-keyboard-response","278","448495","0.0-13.0-0.0-1.0-0.0-1.59","null","<span style='color:GreenYellow; font-size: 70px;'>正确! </span>","null","","","","","","","","","","","","","","","","","","","","","","","feedback_test"
"","","","","","html-keyboard-response","279","450293","0.0-13.0-0.0-1.0-1.0","1796","<style>.context{color:white; font-size: 35px; line-height:40px}</style>                              <div><p class='context'>您正确回答了77% 的试次。</p><p class='context'>您的平均反应时为788毫秒。</p><p class='context'>请按任意键进入休息</p></div>"," ","","","","","","","","","","","","","","","","","","","","","","",""
"","","","","","html-button-response","280","478532","0.0-13.0-0.0-1.0-2.0","28236","
                      <p>您当前还剩余3组实验</p>
                      <p>现在是休息时间，当您结束休息后，您可以点击 结束休息 按钮 继续</p>
                      <p>建议休息时间还剩余<span id=""iii"">60</span>秒</p>","0","","","","","","","","","","","","","","","","","","","","","","",""
"","","","","","psychophysics","281","480571","0.0-13.0-0.0-1.0-0.1-0.60","885","","j","","","","","","","","","","","","","key","j","17.23005128205101","960","536","j","true","img/T_ambi40.png","常人","image_first",""
"","","","","","html-keyboard-response","282","480876","0.0-13.0-0.0-1.0-0.1-1.60","null","<span style='color:GreenYellow; font-size: 70px;'>正确! </span>","null","","","","","","","","","","","","","","","","","","","","","","","feedback_test"
"","","","","","psychophysics","283","482739","0.0-13.0-0.0-1.0-0.1-0.61","709","","f","","","","","","","","","","","","","key","f","16.660581818181726","960","536","f","true","img/S_ambi40.png","常人","image_first",""
"","","","","","html-keyboard-response","284","483045","0.0-13.0-0.0-1.0-0.1-1.61","null","<span style='color:GreenYellow; font-size: 70px;'>正确! </span>","null","","","","","","","","","","","","","","","","","","","","","","","feedback_test"
"","","","","","psychophysics","285","484944","0.0-13.0-0.0-1.0-0.1-0.62","738","","f","","","","","","","","","","","","","key","f","16.66038053097364","960","536","f","true","img/T_ambi40.png","坏人","image_first",""
"","","","","","html-keyboard-response","286","485246","0.0-13.0-0.0-1.0-0.1-1.62","null","<span style='color:GreenYellow; font-size: 70px;'>正确! </span>","null","","","","","","","","","","","","","","","","","","","","","","","feedback_test"
"","","","","","psychophysics","287","487126","0.0-13.0-0.0-1.0-0.1-0.63","720","","j","","","","","","","","","","","","","key","j","16.660714285714285","960","536","f","false","img/C_ambi40.png","坏人","image_first",""
"","","","","","html-keyboard-response","288","487436","0.0-13.0-0.0-1.0-0.1-1.63","null","<span style='color:red; font-size: 70px;'>错误! </span>","null","","","","","","","","","","","","","","","","","","","","","","","feedback_test"
"","","","","","psychophysics","289","489375","0.0-13.0-0.0-1.0-0.1-0.64","787","","f","","","","","","","","","","","","","key","f","16.660008620690043","960","536","j","false","img/S_ambi40.png","坏人","image_first",""
"","","","","","html-keyboard-response","290","489676","0.0-13.0-0.0-1.0-0.1-1.64","null","<span style='color:red; font-size: 70px;'>错误! </span>","null","","","","","","","","","","","","","","","","","","","","","","","feedback_test"
"","","","","","psychophysics","291","491617","0.0-13.0-0.0-1.0-0.1-0.65","781","","f","","","","","","","","","","","","","key","f","16.95261946902662","960","536","f","true","img/C_ambi40.png","常人","image_first",""
"","","","","","html-keyboard-response","292","491926","0.0-13.0-0.0-1.0-0.1-1.65","null","<span style='color:GreenYellow; font-size: 70px;'>正确! </span>","null","","","","","","","","","","","","","","","","","","","","","","","feedback_test"
"","","","","","psychophysics","293","493812","0.0-13.0-0.0-1.0-0.1-0.66","727","","f","","","","","","","","","","","","","key","f","16.657071428570948","960","536","f","true","img/S_ambi40.png","好人","image_first",""
"","","","","","html-keyboard-response","294","494116","0.0-13.0-0.0-1.0-0.1-1.66","null","<span style='color:GreenYellow; font-size: 70px;'>正确! </span>","null","","","","","","","","","","","","","","","","","","","","","","","feedback_test"
"","","","","","psychophysics","295","496139","0.0-13.0-0.0-1.0-0.1-0.67","871","","j","","","","","","","","","","","","","key","j","16.660396694215322","960","536","j","true","img/S_ambi40.png","坏人","image_first",""
"","","","","","html-keyboard-response","296","496446","0.0-13.0-0.0-1.0-0.1-1.67","null","<span style='color:GreenYellow; font-size: 70px;'>正确! </span>","null","","","","","","","","","","","","","","","","","","","","","","","feedback_test"
"","","","","","psychophysics","297","498520","0.0-13.0-0.0-1.0-0.1-0.68","920","","f","","","","","","","","","","","","","key","f","16.6601048387097","960","536","f","true","img/T_ambi40.png","好人","image_first",""
"","","","","","html-keyboard-response","298","498826","0.0-13.0-0.0-1.0-0.1-1.68","null","<span style='color:GreenYellow; font-size: 70px;'>正确! </span>","null","","","","","","","","","","","","","","","","","","","","","","","feedback_test"
"","","","","","psychophysics","299","500762","0.0-13.0-0.0-1.0-0.1-0.69","780","","j","","","","","","","","","","","","","key","j","16.95212389380502","960","536","j","true","img/T_ambi40.png","常人","image_first",""
"","","","","","html-keyboard-response","300","501071","0.0-13.0-0.0-1.0-0.1-1.69","null","<span style='color:GreenYellow; font-size: 70px;'>正确! </span>","null","","","","","","","","","","","","","","","","","","","","","","","feedback_test"
"","","","","","psychophysics","301","502971","0.0-13.0-0.0-1.0-0.1-0.70","742","","j","","","","","","","","","","","","","key","j","16.660876106194724","960","536","j","true","img/C_ambi40.png","好人","image_first",""
"","","","","","html-keyboard-response","302","503286","0.0-13.0-0.0-1.0-0.1-1.70","null","<span style='color:GreenYellow; font-size: 70px;'>正确! </span>","null","","","","","","","","","","","","","","","","","","","","","","","feedback_test"
"","","","","","psychophysics","303","504950","0.0-13.0-0.0-1.0-0.1-0.71","504","","j","","","","","","","","","","","","","key","j","16.65971717171752","960","536","j","true","img/C_ambi40.png","好人","image_first",""
"","","","","","html-keyboard-response","304","505256","0.0-13.0-0.0-1.0-0.1-1.71","null","<span style='color:GreenYellow; font-size: 70px;'>正确! </span>","null","","","","","","","","","","","","","","","","","","","","","","","feedback_test"
"","","","","","psychophysics","305","507141","0.0-13.0-0.0-1.0-0.1-0.72","729","","f","","","","","","","","","","","","","key","f","16.65758035714368","960","536","f","true","img/T_ambi40.png","好人","image_first",""
"","","","","","html-keyboard-response","306","507446","0.0-13.0-0.0-1.0-0.1-1.72","null","<span style='color:GreenYellow; font-size: 70px;'>正确! </span>","null","","","","","","","","","","","","","","","","","","","","","","","feedback_test"
"","","","","","psychophysics","307","509503","0.0-13.0-0.0-1.0-0.1-0.73","897","","j","","","","","","","","","","","","","key","j","17.36633333333362","960","536","j","true","img/C_ambi40.png","好人","image_first",""
"","","","","","html-keyboard-response","308","509806","0.0-13.0-0.0-1.0-0.1-1.73","null","<span style='color:GreenYellow; font-size: 70px;'>正确! </span>","null","","","","","","","","","","","","","","","","","","","","","","","feedback_test"
"","","","","","psychophysics","309","511533","0.0-13.0-0.0-1.0-0.1-0.74","575","","f","","","","","","","","","","","","","key","f","16.65652884615366","960","536","f","true","img/C_ambi40.png","坏人","image_first",""
"","","","","","html-keyboard-response","310","511846","0.0-13.0-0.0-1.0-0.1-1.74","null","<span style='color:GreenYellow; font-size: 70px;'>正确! </span>","null","","","","","","","","","","","","","","","","","","","","","","","feedback_test"
"","","","","","psychophysics","311","513710","0.0-13.0-0.0-1.0-0.1-0.75","704","","f","","","","","","","","","","","","","key","f","16.65810810810853","960","536","f","true","img/T_ambi40.png","坏人","image_first",""
"","","","","","html-keyboard-response","312","514016","0.0-13.0-0.0-1.0-0.1-1.75","null","<span style='color:GreenYellow; font-size: 70px;'>正确! </span>","null","","","","","","","","","","","","","","","","","","","","","","","feedback_test"
"","","","","","psychophysics","313","515915","0.0-13.0-0.0-1.0-0.1-0.76","741","","f","","","","","","","","","","","","","key","f","16.66026548672554","960","536","j","false","img/S_ambi40.png","坏人","image_first",""
"","","","","","html-keyboard-response","314","516226","0.0-13.0-0.0-1.0-0.1-1.76","null","<span style='color:red; font-size: 70px;'>错误! </span>","null","","","","","","","","","","","","","","","","","","","","","","","feedback_test"
"","","","","","psychophysics","315","518258","0.0-13.0-0.0-1.0-0.1-0.77","872","","j","","","","","","","","","","","","","key","j","16.660909090909822","960","536","j","true","img/T_ambi40.png","常人","image_first",""
"","","","","","html-keyboard-response","316","518566","0.0-13.0-0.0-1.0-0.1-1.77","null","<span style='color:GreenYellow; font-size: 70px;'>正确! </span>","null","","","","","","","","","","","","","","","","","","","","","","","feedback_test"
"","","","","","psychophysics","317","520399","0.0-13.0-0.0-1.0-0.1-0.78","678","","j","","","","","","","","","","","","","key","j","16.657963302752233","960","536","j","true","img/T_ambi40.png","常人","image_first",""
"","","","","","html-keyboard-response","318","520706","0.0-13.0-0.0-1.0-0.1-1.78","null","<span style='color:GreenYellow; font-size: 70px;'>正确! </span>","null","","","","","","","","","","","","","","","","","","","","","","","feedback_test"
"","","","","","psychophysics","319","522396","0.0-13.0-0.0-1.0-0.1-0.79","529","","j","","","","","","","","","","","","","key","j","16.65773999999976","960","536","j","true","img/C_ambi40.png","好人","image_first",""
"","","","","","html-keyboard-response","320","522706","0.0-13.0-0.0-1.0-0.1-1.79","null","<span style='color:GreenYellow; font-size: 70px;'>正确! </span>","null","","","","","","","","","","","","","","","","","","","","","","","feedback_test"
"","","","","","psychophysics","321","524401","0.0-13.0-0.0-1.0-0.1-0.80","535","","j","","","","","","","","","","","","","key","j","17.91631182795641","960","536","f","false","img/S_ambi40.png","好人","image_first",""
"","","","","","html-keyboard-response","322","524706","0.0-13.0-0.0-1.0-0.1-1.80","null","<span style='color:red; font-size: 70px;'>错误! </span>","null","","","","","","","","","","","","","","","","","","","","","","","feedback_test"
"","","","","","psychophysics","323","526571","0.0-13.0-0.0-1.0-0.1-0.81","706","","f","","","","","","","","","","","","","key","f","16.65765765765766","960","536","f","true","img/S_ambi40.png","常人","image_first",""
"","","","","","html-keyboard-response","324","526876","0.0-13.0-0.0-1.0-0.1-1.81","null","<span style='color:GreenYellow; font-size: 70px;'>正确! </span>","null","","","","","","","","","","","","","","","","","","","","","","","feedback_test"
"","","","","","psychophysics","325","528703","0.0-13.0-0.0-1.0-0.1-0.82","670","","f","","","","","","","","","","","","","key","f","16.65714678899043","960","536","j","false","img/S_ambi40.png","坏人","image_first",""
"","","","","","html-keyboard-response","326","529006","0.0-13.0-0.0-1.0-0.1-1.82","null","<span style='color:red; font-size: 70px;'>错误! </span>","null","","","","","","","","","","","","","","","","","","","","","","","feedback_test"
"","","","","","psychophysics","327","531000","0.0-13.0-0.0-1.0-0.1-0.83","835","","f","","","","","","","","","","","","","key","f","16.656605042016306","960","536","f","true","img/C_ambi40.png","常人","image_first",""
"","","","","","html-keyboard-response","328","531306","0.0-13.0-0.0-1.0-0.1-1.83","null","<span style='color:GreenYellow; font-size: 70px;'>正确! </span>","null","","","","","","","","","","","","","","","","","","","","","","","feedback_test"
"","","","","","psychophysics","329","533304","0.0-13.0-0.0-1.0-0.1-0.84","840","","j","","","","","","","","","","","","","key","j","16.658243697479037","960","536","f","false","img/S_ambi40.png","常人","image_first",""
"","","","","","html-keyboard-response","330","533606","0.0-13.0-0.0-1.0-0.1-1.84","null","<span style='color:red; font-size: 70px;'>错误! </span>","null","","","","","","","","","","","","","","","","","","","","","","","feedback_test"
"","","","","","psychophysics","331","535523","0.0-13.0-0.0-1.0-0.1-0.85","760","","j","","","","","","","","","","","","","key","j","16.807407079646733","960","536","j","true","img/C_ambi40.png","好人","image_first",""
"","","","","","html-keyboard-response","332","535826","0.0-13.0-0.0-1.0-0.1-1.85","null","<span style='color:GreenYellow; font-size: 70px;'>正确! </span>","null","","","","","","","","","","","","","","","","","","","","","","","feedback_test"
"","","","","","psychophysics","333","537598","0.0-13.0-0.0-1.0-0.1-0.86","620","","j","","","","","","","","","","","","","key","j","16.661150943396727","960","536","f","false","img/C_ambi40.png","常人","image_first",""
"","","","","","html-keyboard-response","334","537906","0.0-13.0-0.0-1.0-0.1-1.86","null","<span style='color:red; font-size: 70px;'>错误! </span>","null","","","","","","","","","","","","","","","","","","","","","","","feedback_test"
"","","","","","psychophysics","335","540005","0.0-13.0-0.0-1.0-0.1-0.87","946","","j","","","","","","","","","","","","","key","j","16.65772799999919","960","536","j","true","img/S_ambi40.png","坏人","image_first",""
"","","","","","html-keyboard-response","336","540306","0.0-13.0-0.0-1.0-0.1-1.87","null","<span style='color:GreenYellow; font-size: 70px;'>正确! </span>","null","","","","","","","","","","","","","","","","","","","","","","","feedback_test"
"","","","","","psychophysics","337","542263","0.0-13.0-0.0-1.0-0.1-0.88","805","","j","","","","","","","","","","","","","key","j","16.801068965517235","960","536","j","true","img/S_ambi40.png","坏人","image_first",""
"","","","","","html-keyboard-response","338","542566","0.0-13.0-0.0-1.0-0.1-1.88","null","<span style='color:GreenYellow; font-size: 70px;'>正确! </span>","null","","","","","","","","","","","","","","","","","","","","","","","feedback_test"
"","","","","","psychophysics","339","544730","0.0-13.0-0.0-1.0-0.1-0.89","1006","","f","","","","","","","","","","","","","key","f","17.33058064516198","960","536","f","true","img/C_ambi40.png","坏人","image_first",""
"","","","","","html-keyboard-response","340","545036","0.0-13.0-0.0-1.0-0.1-1.89","null","<span style='color:GreenYellow; font-size: 70px;'>正确! </span>","null","","","","","","","","","","","","","","","","","","","","","","","feedback_test"
"","","","","","psychophysics","341","547002","0.0-13.0-0.0-1.0-0.1-0.90","813","","f","","","","","","","","","","","","","key","f","16.657478632478036","960","536","f","true","img/T_ambi40.png","坏人","image_first",""
"","","","","","html-keyboard-response","342","547306","0.0-13.0-0.0-1.0-0.1-1.90","null","<span style='color:GreenYellow; font-size: 70px;'>正确! </span>","null","","","","","","","","","","","","","","","","","","","","","","","feedback_test"
"","","","","","psychophysics","343","549516","0.0-13.0-0.0-1.0-0.1-0.91","1059","","f","","","","","","","","","","","","","key","f","16.658061068701443","960","536","f","true","img/S_ambi40.png","好人","image_first",""
"","","","","","html-keyboard-response","344","549826","0.0-13.0-0.0-1.0-0.1-1.91","null","<span style='color:GreenYellow; font-size: 70px;'>正确! </span>","null","","","","","","","","","","","","","","","","","","","","","","","feedback_test"
"","","","","","psychophysics","345","551643","0.0-13.0-0.0-1.0-0.1-0.92","657","","j","","","","","","","","","","","","","key","j","16.813439252336998","960","536","j","true","img/C_ambi40.png","好人","image_first",""
"","","","","","html-keyboard-response","346","551946","0.0-13.0-0.0-1.0-0.1-1.92","null","<span style='color:GreenYellow; font-size: 70px;'>正确! </span>","null","","","","","","","","","","","","","","","","","","","","","","","feedback_test"
"","","","","","psychophysics","347","553925","0.0-13.0-0.0-1.0-0.1-0.93","823","","f","","","","","","","","","","","","","key","f","17.09352631578957","960","536","f","true","img/T_ambi40.png","好人","image_first",""
"","","","","","html-keyboard-response","348","554236","0.0-13.0-0.0-1.0-0.1-1.93","null","<span style='color:GreenYellow; font-size: 70px;'>正确! </span>","null","","","","","","","","","","","","","","","","","","","","","","","feedback_test"
"","","","","","psychophysics","349","556248","0.0-13.0-0.0-1.0-0.1-0.94","862","","f","","","","","","","","","","","","","key","f","16.65404201680677","960","536","j","false","img/T_ambi40.png","常人","image_first",""
"","","","","","html-keyboard-response","350","556555","0.0-13.0-0.0-1.0-0.1-1.94","null","<span style='color:red; font-size: 70px;'>错误! </span>","null","","","","","","","","","","","","","","","","","","","","","","","feedback_test"
"","","","","","psychophysics","351","558296","0.0-13.0-0.0-1.0-0.1-0.95","581","","j","","","","","","","","","","","","","key","j","16.661776699028565","960","536","j","true","img/T_ambi40.png","常人","image_first",""
"","","","","","html-keyboard-response","352","558606","0.0-13.0-0.0-1.0-0.1-1.95","null","<span style='color:GreenYellow; font-size: 70px;'>正确! </span>","null","","","","","","","","","","","","","","","","","","","","","","","feedback_test"
"","","","","","psychophysics","353","560378","0.0-13.0-0.0-1.0-0.1-0.96","612","","j","","","","","","","","","","","","","key","j","16.655171428570924","960","536","j","true","img/C_ambi40.png","好人","image_first",""
"","","","","","html-keyboard-response","354","560686","0.0-13.0-0.0-1.0-0.1-1.96","null","<span style='color:GreenYellow; font-size: 70px;'>正确! </span>","null","","","","","","","","","","","","","","","","","","","","","","","feedback_test"
"","","","","","psychophysics","355","562706","0.0-13.0-0.0-1.0-0.1-0.97","860","","j","","","","","","","","","","","","","key","j","16.661258333332565","960","536","j","true","img/S_ambi40.png","坏人","image_first",""
"","","","","","html-keyboard-response","356","563016","0.0-13.0-0.0-1.0-0.1-1.97","null","<span style='color:GreenYellow; font-size: 70px;'>正确! </span>","null","","","","","","","","","","","","","","","","","","","","","","","feedback_test"
"","","","","","psychophysics","357","564787","0.0-13.0-0.0-1.0-0.1-0.98","611","","j","","","","","","","","","","","","","key","j","16.656666666666222","960","536","j","true","img/C_ambi40.png","好人","image_first",""
"","","","","","html-keyboard-response","358","565095","0.0-13.0-0.0-1.0-0.1-1.98","null","<span style='color:GreenYellow; font-size: 70px;'>正确! </span>","null","","","","","","","","","","","","","","","","","","","","","","","feedback_test"
"","","","","","psychophysics","359","567337","0.0-13.0-0.0-1.0-0.1-0.99","1091","","j","","","","","","","","","","","","","key","j","16.655744360902528","960","536","j","true","img/S_ambi40.png","坏人","image_first",""
"","","","","","html-keyboard-response","360","567645","0.0-13.0-0.0-1.0-0.1-1.99","null","<span style='color:GreenYellow; font-size: 70px;'>正确! </span>","null","","","","","","","","","","","","","","","","","","","","","","","feedback_test"
"","","","","","psychophysics","361","569520","0.0-13.0-0.0-1.0-0.1-0.100","714","","f","","","","","","","","","","","","","key","f","16.654648648649413","960","536","f","true","img/C_ambi40.png","常人","image_first",""
"","","","","","html-keyboard-response","362","569825","0.0-13.0-0.0-1.0-0.1-1.100","null","<span style='color:GreenYellow; font-size: 70px;'>正确! </span>","null","","","","","","","","","","","","","","","","","","","","","","","feedback_test"
"","","","","","psychophysics","363","572229","0.0-13.0-0.0-1.0-0.1-0.101","1252","","f","","","","","","","","","","","","","key","f","18.756354330708895","960","536","f","true","img/S_ambi40.png","常人","image_first",""
"","","","","","html-keyboard-response","364","572536","0.0-13.0-0.0-1.0-0.1-1.101","null","<span style='color:GreenYellow; font-size: 70px;'>正确! </span>","null","","","","","","","","","","","","","","","","","","","","","","","feedback_test"
"","","","","","psychophysics","365","574555","0.0-13.0-0.0-1.0-0.1-0.102","864","","f","","","","","","","","","","","","","key","f","16.660341666666014","960","536","j","false","img/T_ambi40.png","常人","image_first",""
"","","","","","html-keyboard-response","366","574856","0.0-13.0-0.0-1.0-0.1-1.102","null","<span style='color:red; font-size: 70px;'>错误! </span>","null","","","","","","","","","","","","","","","","","","","","","","","feedback_test"
"","","","","","psychophysics","367","576802","0.0-13.0-0.0-1.0-0.1-0.103","794","","f","","","","","","","","","","","","","key","f","16.654304347826045","960","536","f","true","img/T_ambi40.png","好人","image_first",""
"","","","","","html-keyboard-response","368","577116","0.0-13.0-0.0-1.0-0.1-1.103","null","<span style='color:GreenYellow; font-size: 70px;'>正确! </span>","null","","","","","","","","","","","","","","","","","","","","","","","feedback_test"
"","","","","","psychophysics","369","579282","0.0-13.0-0.0-1.0-0.1-0.104","1010","","f","","","","","","","","","","","","","key","f","16.65817829457296","960","536","f","true","img/C_ambi40.png","坏人","image_first",""
"","","","","","html-keyboard-response","370","579586","0.0-13.0-0.0-1.0-0.1-1.104","null","<span style='color:GreenYellow; font-size: 70px;'>正确! </span>","null","","","","","","","","","","","","","","","","","","","","","","","feedback_test"
"","","","","","psychophysics","371","581667","0.0-13.0-0.0-1.0-0.1-0.105","931","","f","","","","","","","","","","","","","key","f","17.348694915253812","960","536","f","true","img/T_ambi40.png","坏人","image_first",""
"","","","","","html-keyboard-response","372","581976","0.0-13.0-0.0-1.0-0.1-1.105","null","<span style='color:GreenYellow; font-size: 70px;'>正确! </span>","null","","","","","","","","","","","","","","","","","","","","","","","feedback_test"
"","","","","","psychophysics","373","583874","0.0-13.0-0.0-1.0-0.1-0.106","739","","f","","","","","","","","","","","","","key","f","16.658761061946407","960","536","f","true","img/S_ambi40.png","好人","image_first",""
"","","","","","html-keyboard-response","374","584175","0.0-13.0-0.0-1.0-0.1-1.106","null","<span style='color:GreenYellow; font-size: 70px;'>正确! </span>","null","","","","","","","","","","","","","","","","","","","","","","","feedback_test"
"","","","","","psychophysics","375","586142","0.0-13.0-0.0-1.0-0.1-0.107","808","","f","","","","","","","","","","","","","key","f","16.66082051282044","960","536","j","false","img/T_ambi40.png","常人","image_first",""
"","","","","","html-keyboard-response","376","586446","0.0-13.0-0.0-1.0-0.1-1.107","null","<span style='color:red; font-size: 70px;'>错误! </span>","null","","","","","","","","","","","","","","","","","","","","","","","feedback_test"
"","","","","","psychophysics","377","588645","0.0-13.0-0.0-1.0-0.1-0.108","1046","","j","","","","","","","","","","","","","key","j","16.660374045802126","960","536","j","true","img/S_ambi40.png","坏人","image_first",""
"","","","","","html-keyboard-response","378","588956","0.0-13.0-0.0-1.0-0.1-1.108","null","<span style='color:GreenYellow; font-size: 70px;'>正确! </span>","null","","","","","","","","","","","","","","","","","","","","","","","feedback_test"
"","","","","","psychophysics","379","590634","0.0-13.0-0.0-1.0-0.1-0.109","519","","j","","","","","","","","","","","","","key","j","16.660999999999767","960","536","j","true","img/C_ambi40.png","好人","image_first",""
"","","","","","html-keyboard-response","380","590936","0.0-13.0-0.0-1.0-0.1-1.109","null","<span style='color:GreenYellow; font-size: 70px;'>正确! </span>","null","","","","","","","","","","","","","","","","","","","","","","","feedback_test"
"","","","","","psychophysics","381","592954","0.0-13.0-0.0-1.0-0.1-0.110","858","","f","","","","","","","","","","","","","key","f","16.66074166666658","960","536","f","true","img/T_ambi40.png","好人","image_first",""
"","","","","","html-keyboard-response","382","593256","0.0-13.0-0.0-1.0-0.1-1.110","null","<span style='color:GreenYellow; font-size: 70px;'>正确! </span>","null","","","","","","","","","","","","","","","","","","","","","","","feedback_test"
"","","","","","psychophysics","383","595151","0.0-13.0-0.0-1.0-0.1-0.111","738","","f","","","","","","","","","","","","","key","f","16.806303571429453","960","536","f","true","img/S_ambi40.png","好人","image_first",""
"","","","","","html-keyboard-response","384","595456","0.0-13.0-0.0-1.0-0.1-1.111","null","<span style='color:GreenYellow; font-size: 70px;'>正确! </span>","null","","","","","","","","","","","","","","","","","","","","","","","feedback_test"
"","","","","","psychophysics","385","597821","0.0-13.0-0.0-1.0-0.1-0.112","1209","","f","","","","","","","","","","","","","key","f","16.657702127659814","960","536","f","true","img/S_ambi40.png","常人","image_first",""
"","","","","","html-keyboard-response","386","598126","0.0-13.0-0.0-1.0-0.1-1.112","null","<span style='color:GreenYellow; font-size: 70px;'>正确! </span>","null","","","","","","","","","","","","","","","","","","","","","","","feedback_test"
"","","","","","psychophysics","387","600002","0.0-13.0-0.0-1.0-0.1-0.113","725","","j","","","","","","","","","","","","","key","j","16.65990990990991","960","536","j","true","img/S_ambi40.png","坏人","image_first",""
"","","","","","html-keyboard-response","388","600305","0.0-13.0-0.0-1.0-0.1-1.113","null","<span style='color:GreenYellow; font-size: 70px;'>正确! </span>","null","","","","","","","","","","","","","","","","","","","","","","","feedback_test"
"","","","","","psychophysics","389","602171","0.0-13.0-0.0-1.0-0.1-0.114","713","","f","","","","","","","","","","","","","key","f","16.657100000000685","960","536","f","true","img/C_ambi40.png","坏人","image_first",""
"","","","","","html-keyboard-response","390","602486","0.0-13.0-0.0-1.0-0.1-1.114","null","<span style='color:GreenYellow; font-size: 70px;'>正确! </span>","null","","","","","","","","","","","","","","","","","","","","","","","feedback_test"
"","","","","","psychophysics","391","604229","0.0-13.0-0.0-1.0-0.1-0.115","588","","j","","","","","","","","","","","","","key","j","16.661192307691984","960","536","f","false","img/C_ambi40.png","常人","image_first",""
"","","","","","html-keyboard-response","392","604531","0.0-13.0-0.0-1.0-0.1-1.115","null","<span style='color:red; font-size: 70px;'>错误! </span>","null","","","","","","","","","","","","","","","","","","","","","","","feedback_test"
"","","","","","psychophysics","393","606179","0.0-13.0-0.0-1.0-0.1-0.116","491","","j","","","","","","","","","","","","","key","j","16.656530612244566","960","536","j","true","img/C_ambi40.png","好人","image_first",""
"","","","","","html-keyboard-response","394","606486","0.0-13.0-0.0-1.0-0.1-1.116","null","<span style='color:GreenYellow; font-size: 70px;'>正确! </span>","null","","","","","","","","","","","","","","","","","","","","","","","feedback_test"
"","","","","","psychophysics","395","608358","0.0-13.0-0.0-1.0-0.1-0.117","719","","j","","","","","","","","","","","","","key","j","16.66162500000064","960","536","j","true","img/T_ambi40.png","常人","image_first",""
"","","","","","html-keyboard-response","396","608666","0.0-13.0-0.0-1.0-0.1-1.117","null","<span style='color:GreenYellow; font-size: 70px;'>正确! </span>","null","","","","","","","","","","","","","","","","","","","","","","","feedback_test"
"","","","","","psychophysics","397","610516","0.0-13.0-0.0-1.0-0.1-0.118","696","","f","","","","","","","","","","","","","key","f","16.658091743119968","960","536","f","true","img/T_ambi40.png","坏人","image_first",""
"","","","","","html-keyboard-response","398","610826","0.0-13.0-0.0-1.0-0.1-1.118","null","<span style='color:GreenYellow; font-size: 70px;'>正确! </span>","null","","","","","","","","","","","","","","","","","","","","","","","feedback_test"
"","","","","","psychophysics","399","612858","0.0-13.0-0.0-1.0-0.1-0.119","871","","j","","","","","","","","","","","","","key","j","16.658454545455108","960","536","j","true","img/T_ambi40.png","常人","image_first",""
"","","","","","html-keyboard-response","400","613166","0.0-13.0-0.0-1.0-0.1-1.119","null","<span style='color:GreenYellow; font-size: 70px;'>正确! </span>","null","","","","","","","","","","","","","","","","","","","","","","","feedback_test"
"","","","","","html-keyboard-response","401","614883","0.0-13.0-0.0-1.0-1.1","1715","<style>.context{color:white; font-size: 35px; line-height:40px}</style>                              <div><p class='context'>您正确回答了82% 的试次。</p><p class='context'>您的平均反应时为792毫秒。</p><p class='context'>请按任意键进入休息</p></div>"," ","","","","","","","","","","","","","","","","","","","","","","",""
"","","","","","html-button-response","402","654219","0.0-13.0-0.0-1.0-2.1","39332","
                      <p>您当前还剩余2组实验</p>
                      <p>现在是休息时间，当您结束休息后，您可以点击 结束休息 按钮 继续</p>
                      <p>建议休息时间还剩余<span id=""iii"">60</span>秒</p>","0","","","","","","","","","","","","","","","","","","","","","","",""
"","","","","","psychophysics","403","656189","0.0-13.0-0.0-1.0-0.2-0.120","818","","j","","","","","","","","","","","","","key","j","16.657752136752592","960","536","f","false","img/T_ambi40.png","坏人","image_first",""
"","","","","","html-keyboard-response","404","656495","0.0-13.0-0.0-1.0-0.2-1.120","null","<span style='color:red; font-size: 70px;'>错误! </span>","null","","","","","","","","","","","","","","","","","","","","","","","feedback_test"
"","","","","","psychophysics","405","658247","0.0-13.0-0.0-1.0-0.2-0.121","592","","f","","","","","","","","","","","","","key","f","16.657586538461217","960","536","f","true","img/S_ambi40.png","好人","image_first",""
"","","","","","html-keyboard-response","406","658556","0.0-13.0-0.0-1.0-0.2-1.121","null","<span style='color:GreenYellow; font-size: 70px;'>正确! </span>","null","","","","","","","","","","","","","","","","","","","","","","","feedback_test"
"","","","","","psychophysics","407","660494","0.0-13.0-0.0-1.0-0.2-0.122","786","","j","","","","","","","","","","","","","key","j","17.41209909909925","960","536","j","true","img/T_ambi40.png","常人","image_first",""
"","","","","","html-keyboard-response","408","660796","0.0-13.0-0.0-1.0-0.2-1.122","null","<span style='color:GreenYellow; font-size: 70px;'>正确! </span>","null","","","","","","","","","","","","","","","","","","","","","","","feedback_test"
"","","","","","psychophysics","409","662749","0.0-13.0-0.0-1.0-0.2-0.123","794","","j","","","","","","","","","","","","","key","j","16.658603448276246","960","536","j","true","img/S_ambi40.png","坏人","image_first",""
"","","","","","html-keyboard-response","410","663056","0.0-13.0-0.0-1.0-0.2-1.123","null","<span style='color:GreenYellow; font-size: 70px;'>正确! </span>","null","","","","","","","","","","","","","","","","","","","","","","","feedback_test"
"","","","","","psychophysics","411","664820","0.0-13.0-0.0-1.0-0.2-0.124","618","","j","","","","","","","","","","","","","key","j","16.659419047619615","960","536","j","true","img/C_ambi40.png","好人","image_first",""
"","","","","","html-keyboard-response","412","665130","0.0-13.0-0.0-1.0-0.2-1.124","null","<span style='color:GreenYellow; font-size: 70px;'>正确! </span>","null","","","","","","","","","","","","","","","","","","","","","","","feedback_test"
"","","","","","psychophysics","413","666998","0.0-13.0-0.0-1.0-0.2-0.125","713","","j","","","","","","","","","","","","","key","j","16.660414414415303","960","536","j","true","img/T_ambi40.png","常人","image_first",""
"","","","","","html-keyboard-response","414","667311","0.0-13.0-0.0-1.0-0.2-1.125","null","<span style='color:GreenYellow; font-size: 70px;'>正确! </span>","null","","","","","","","","","","","","","","","","","","","","","","","feedback_test"
"","","","","","psychophysics","415","669217","0.0-13.0-0.0-1.0-0.2-0.126","751","","j","","","","","","","","","","","","","key","j","16.80646017699119","960","536","j","true","img/S_ambi40.png","坏人","image_first",""
"","","","","","html-keyboard-response","416","669521","0.0-13.0-0.0-1.0-0.2-1.126","null","<span style='color:GreenYellow; font-size: 70px;'>正确! </span>","null","","","","","","","","","","","","","","","","","","","","","","","feedback_test"
"","","","","","psychophysics","417","671526","0.0-13.0-0.0-1.0-0.2-0.127","846","","f","","","","","","","","","","","","","key","f","17.857351351351067","960","536","f","true","img/T_ambi40.png","好人","image_first",""
"","","","","","html-keyboard-response","418","671831","0.0-13.0-0.0-1.0-0.2-1.127","null","<span style='color:GreenYellow; font-size: 70px;'>正确! </span>","null","","","","","","","","","","","","","","","","","","","","","","","feedback_test"
"","","","","","psychophysics","419","673893","0.0-13.0-0.0-1.0-0.2-0.128","911","","f","","","","","","","","","","","","","key","f","16.657565573770476","960","536","f","true","img/C_ambi40.png","常人","image_first",""
"","","","","","html-keyboard-response","420","674200","0.0-13.0-0.0-1.0-0.2-1.128","null","<span style='color:GreenYellow; font-size: 70px;'>正确! </span>","null","","","","","","","","","","","","","","","","","","","","","","","feedback_test"
"","","","","","psychophysics","421","676324","0.0-13.0-0.0-1.0-0.2-0.129","964","","f","","","","","","","","","","","","","key","f","16.79381599999964","960","536","f","true","img/C_ambi40.png","坏人","image_first",""
"","","","","","html-keyboard-response","422","676630","0.0-13.0-0.0-1.0-0.2-1.129","null","<span style='color:GreenYellow; font-size: 70px;'>正确! </span>","null","","","","","","","","","","","","","","","","","","","","","","","feedback_test"
"","","","","","psychophysics","423","678629","0.0-13.0-0.0-1.0-0.2-0.130","838","","f","","","","","","","","","","","","","key","f","16.660478991597202","960","536","f","true","img/S_ambi40.png","常人","image_first",""
"","","","","","html-keyboard-response","424","678930","0.0-13.0-0.0-1.0-0.2-1.130","null","<span style='color:GreenYellow; font-size: 70px;'>正确! </span>","null","","","","","","","","","","","","","","","","","","","","","","","feedback_test"
"","","","","","psychophysics","425","680945","0.0-13.0-0.0-1.0-0.2-0.131","854","","j","","","","","","","","","","","","","key","j","16.657124999999844","960","536","j","true","img/C_ambi40.png","好人","image_first",""
"","","","","","html-keyboard-response","426","681251","0.0-13.0-0.0-1.0-0.2-1.131","null","<span style='color:GreenYellow; font-size: 70px;'>正确! </span>","null","","","","","","","","","","","","","","","","","","","","","","","feedback_test"
"","","","","","psychophysics","427","683100","0.0-13.0-0.0-1.0-0.2-0.132","694","","f","","","","","","","","","","","","","key","f","16.661836363636592","960","536","f","true","img/C_ambi40.png","坏人","image_first",""
"","","","","","html-keyboard-response","428","683411","0.0-13.0-0.0-1.0-0.2-1.132","null","<span style='color:GreenYellow; font-size: 70px;'>正确! </span>","null","","","","","","","","","","","","","","","","","","","","","","","feedback_test"
"","","","","","psychophysics","429","685244","0.0-13.0-0.0-1.0-0.2-0.133","674","","j","","","","","","","","","","","","","key","j","16.6614862385317","960","536","j","true","img/T_ambi40.png","常人","image_first",""
"","","","","","html-keyboard-response","430","685551","0.0-13.0-0.0-1.0-0.2-1.133","null","<span style='color:GreenYellow; font-size: 70px;'>正确! </span>","null","","","","","","","","","","","","","","","","","","","","","","","feedback_test"
"","","","","","psychophysics","431","687390","0.0-13.0-0.0-1.0-0.2-0.134","685","","f","","","","","","","","","","","","","key","f","16.661536363636102","960","536","f","true","img/S_ambi40.png","好人","image_first",""
"","","","","","html-keyboard-response","432","687701","0.0-13.0-0.0-1.0-0.2-1.134","null","<span style='color:GreenYellow; font-size: 70px;'>正确! </span>","null","","","","","","","","","","","","","","","","","","","","","","","feedback_test"
