"success","timeout","failed_images","failed_audio","failed_video","trial_type","trial_index","time_elapsed","internal_node_id","rt","stimulus","response","value","item_width_mm","item_height_mm","item_width_px","px2mm","view_dist_mm","item_width_deg","px2deg","scale_factor","win_width_deg","win_height_deg","view_history","response_type","key_press","avg_frame_time","center_x","center_y","correct_response","correct","Image","word","condition","screen_id"
"true","false","[]","[]","[]","preload","0","6","0.0-0.0","","","","","","","","","","","","","","","","","","","","","","","","","",""
"","","","","","html-keyboard-response","1","7116","0.0-1.0","7109","
     <p>您好，欢迎参加本次实验。</p>
     <p>为充分保障您的权利，请确保您已经知晓并同意《参与实验同意书》以及《数据公开知情同意书》。</p>
     <p>如果您未见过上述内容，请咨询实验员。</p>
     <p>如果您选择继续实验，则表示您已经清楚两份知情同意书的内容并同意。</p>
     <p> <div style = ""color: green""><按任意键至下页></div> </p>
     "," ","","","","","","","","","","","","","","","","","","","","","","",""
"","","","","","html-keyboard-response","2","8388","0.0-2.0","1270","
     <p>本实验首先需要您填写一些基本个人信息。</p>
     <p> <div style = ""color: green""><按任意键至下页></div></p>
     "," ","","","","","","","","","","","","","","","","","","","","","","",""
"","","","","","call-function","3","8392","0.0-3.0-0.0","","","","","","","","","","","","","","","","","","","","","","","","","",""
"","","","","","survey-html-form","4","15218","0.0-3.0-1.0","6822","","{""Q0"":""31""}","","","","","","","","","","","","","","","","","","","","","","",""
"","","","","","html-button-response","5","16936","0.0-3.0-2.0","1714","<p style = 'color : white'>您的性别</p>","1","","","","","","","","","","","","","","","","","","","","","","",""
"","","","","","survey-html-form","6","26216","0.0-3.0-3.0","9278","","{""Q0"":""1999""}","","","","","","","","","","","","","","","","","","","","","","",""
"","","","","","survey-html-form","7","28698","0.0-3.0-4.0","2479","","{""Q0"":""5""}","","","","","","","","","","","","","","","","","","","","","","",""
"","","","","","virtual-chinrest","8","81782","0.0-4.0","53077","","","","85.6","53.98","590.7322543127057","6.8962135415359915","413.65","11.814645086254114","50","0.768537686380798","29.14","17.84","","","","","","","","","","","",""
"true","","","","","fullscreen","9","87713","0.0-5.0","","","","","","","","","","","","","","","","","","","","","","","","","",""
"","","","","","instructions","10","102078","0.0-6.0","14363","","","","","","","","","","","","","","[{""page_index"":0,""viewing_time"":2748},{""page_index"":1,""viewing_time"":7704},{""page_index"":2,""viewing_time"":2020},{""page_index"":3,""viewing_time"":1890}]","","","","","","","","","","",""
"","","","","","psychophysics","11","103788","0.0-7.0-0.0-0.0","548","","f","","","","","","","","","","","","","key","f","16.66654455445541","752","497.3333333333333","j","false","img/T_ambi40.png","常人","prac_image_first",""
"","","","","","html-keyboard-response","12","104096","0.0-7.0-0.0-1.0","null","<span style='color:red; font-size: 70px;'>错误! </span>","null","","","","","","","","","","","","","","","","","","","","","","","feedback_test"
"","","","","","psychophysics","13","105993","0.0-7.0-0.0-0.1","739","","f","","","","","","","","","","","","","key","f","16.66583035714289","752","497.3333333333333","f","true","img/T_ambi40.png","好人","prac_image_first",""
"","","","","","html-keyboard-response","14","106302","0.0-7.0-0.0-1.1","null","<span style='color:GreenYellow; font-size: 70px;'>正确! </span>","null","","","","","","","","","","","","","","","","","","","","","","","feedback_test"
"","","","","","psychophysics","15","107884","0.0-7.0-0.0-0.2","429","","j","","","","","","","","","","","","","key","j","16.66663440860218","752","497.3333333333333","f","false","img/C_ambi40.png","常人","prac_image_first",""
"","","","","","html-keyboard-response","16","108200","0.0-7.0-0.0-1.2","null","<span style='color:red; font-size: 70px;'>错误! </span>","null","","","","","","","","","","","","","","","","","","","","","","","feedback_test"
"","","","","","psychophysics","17","109996","0.0-7.0-0.0-0.3","641","","j","","","","","","","","","","","","","key","j","16.54966037735845","752","497.3333333333333","j","true","img/C_ambi40.png","好人","prac_image_first",""
"","","","","","html-keyboard-response","18","110305","0.0-7.0-0.0-1.3","null","<span style='color:GreenYellow; font-size: 70px;'>正确! </span>","null","","","","","","","","","","","","","","","","","","","","","","","feedback_test"
"","","","","","psychophysics","19","112070","0.0-7.0-0.0-0.4","604","","f","","","","","","","","","","","","","key","f","16.665961538461627","752","497.3333333333333","j","false","img/S_ambi40.png","坏人","prac_image_first",""
"","","","","","html-keyboard-response","20","112383","0.0-7.0-0.0-1.4","null","<span style='color:red; font-size: 70px;'>错误! </span>","null","","","","","","","","","","","","","","","","","","","","","","","feedback_test"
"","","","","","psychophysics","21","114820","0.0-7.0-0.0-0.5","1281","","f","","","","","","","","","","","","","key","f","16.666862068965564","752","497.3333333333333","j","false","img/S_ambi40.png","坏人","prac_image_first",""
"","","","","","html-keyboard-response","22","115131","0.0-7.0-0.0-1.5","null","<span style='color:red; font-size: 70px;'>错误! </span>","null","","","","","","","","","","","","","","","","","","","","","","","feedback_test"
"","","","","","psychophysics","23","117210","0.0-7.0-0.0-0.6","923","","f","","","","","","","","","","","","","key","f","16.66600806451618","752","497.3333333333333","f","true","img/C_ambi40.png","坏人","prac_image_first",""
"","","","","","html-keyboard-response","24","117521","0.0-7.0-0.0-1.6","null","<span style='color:GreenYellow; font-size: 70px;'>正确! </span>","null","","","","","","","","","","","","","","","","","","","","","","","feedback_test"
"","","","","","psychophysics","25","119359","0.0-7.0-0.0-0.7","683","","f","","","","","","","","","","","","","key","f","16.667229357798192","752","497.3333333333333","f","true","img/T_ambi40.png","坏人","prac_image_first",""
"","","","","","html-keyboard-response","26","119670","0.0-7.0-0.0-1.7","null","<span style='color:GreenYellow; font-size: 70px;'>正确! </span>","null","","","","","","","","","","","","","","","","","","","","","","","feedback_test"
"","","","","","psychophysics","27","121917","0.0-7.0-0.0-0.8","1094","","j","","","","","","","","","","","","","key","j","16.667353383458657","752","497.3333333333333","f","false","img/S_ambi40.png","常人","prac_image_first",""
"","","","","","html-keyboard-response","28","122234","0.0-7.0-0.0-1.8","null","<span style='color:red; font-size: 70px;'>错误! </span>","null","","","","","","","","","","","","","","","","","","","","","","","feedback_test"
"","","","","","psychophysics","29","124445","0.0-7.0-0.0-0.9","1057","","f","","","","","","","","","","","","","key","f","16.667348484848567","752","497.3333333333333","j","false","img/T_ambi40.png","常人","prac_image_first",""
"","","","","","html-keyboard-response","30","124753","0.0-7.0-0.0-1.9","null","<span style='color:red; font-size: 70px;'>错误! </span>","null","","","","","","","","","","","","","","","","","","","","","","","feedback_test"
"","","","","","psychophysics","31","126992","0.0-7.0-0.0-0.10","1087","","f","","","","","","","","","","","","","key","f","16.667353383458657","752","497.3333333333333","f","true","img/S_ambi40.png","好人","prac_image_first",""
"","","","","","html-keyboard-response","32","127304","0.0-7.0-0.0-1.10","null","<span style='color:GreenYellow; font-size: 70px;'>正确! </span>","null","","","","","","","","","","","","","","","","","","","","","","","feedback_test"
"","","","","","psychophysics","33","128942","0.0-7.0-0.0-0.11","486","","j","","","","","","","","","","","","","key","j","16.666536082474174","752","497.3333333333333","j","true","img/C_ambi40.png","好人","prac_image_first",""
"","","","","","html-keyboard-response","34","129251","0.0-7.0-0.0-1.11","null","<span style='color:GreenYellow; font-size: 70px;'>正确! </span>","null","","","","","","","","","","","","","","","","","","","","","","","feedback_test"
"","","","","","psychophysics","35","130995","0.0-7.0-0.0-0.12","588","","f","","","","","","","","","","","","","key","f","16.665669902912608","752","497.3333333333333","j","false","img/C_ambi40.png","好人","prac_image_first",""
"","","","","","html-keyboard-response","36","131310","0.0-7.0-0.0-1.12","null","<span style='color:red; font-size: 70px;'>错误! </span>","null","","","","","","","","","","","","","","","","","","","","","","","feedback_test"
"","","","","","psychophysics","37","133990","0.0-7.0-0.0-0.13","null","","null","","","","","","","","","","","","","key","null","16.66696855345918","752","497.3333333333333","f","false","img/T_ambi40.png","坏人","prac_image_first",""
"","","","","","html-keyboard-response","38","134304","0.0-7.0-0.0-1.13","null","<span class='add_' style='color:yellow; font-size: 70px;'> 太慢! </span>","null","","","","","","","","","","","","","","","","","","","","","","","feedback_test"
"","","","","","psychophysics","39","136403","0.0-7.0-0.0-0.14","946","","f","","","","","","","","","","","","","key","f","16.666064516129065","752","497.3333333333333","f","true","img/S_ambi40.png","好人","prac_image_first",""
"","","","","","html-keyboard-response","40","136716","0.0-7.0-0.0-1.14","null","<span style='color:GreenYellow; font-size: 70px;'>正确! </span>","null","","","","","","","","","","","","","","","","","","","","","","","feedback_test"
"","","","","","psychophysics","41","138656","0.0-7.0-0.0-0.15","785","","f","","","","","","","","","","","","","key","f","16.666370689655164","752","497.3333333333333","j","false","img/S_ambi40.png","坏人","prac_image_first",""
"","","","","","html-keyboard-response","42","138967","0.0-7.0-0.0-1.15","null","<span style='color:red; font-size: 70px;'>错误! </span>","null","","","","","","","","","","","","","","","","","","","","","","","feedback_test"
"","","","","","psychophysics","43","141145","0.0-7.0-0.0-0.16","1023","","f","","","","","","","","","","","","","key","f","16.66660769230758","752","497.3333333333333","f","true","img/T_ambi40.png","好人","prac_image_first",""
"","","","","","html-keyboard-response","44","141450","0.0-7.0-0.0-1.16","null","<span style='color:GreenYellow; font-size: 70px;'>正确! </span>","null","","","","","","","","","","","","","","","","","","","","","","","feedback_test"
"","","","","","psychophysics","45","143618","0.0-7.0-0.0-0.17","1014","","f","","","","","","","","","","","","","key","f","16.577765624999984","752","497.3333333333333","j","false","img/T_ambi40.png","常人","prac_image_first",""
"","","","","","html-keyboard-response","46","143925","0.0-7.0-0.0-1.17","null","<span style='color:red; font-size: 70px;'>错误! </span>","null","","","","","","","","","","","","","","","","","","","","","","","feedback_test"
"","","","","","psychophysics","47","146075","0.0-7.0-0.0-0.18","995","","f","","","","","","","","","","","","","key","f","16.666054687500036","752","497.3333333333333","j","false","img/T_ambi40.png","常人","prac_image_first",""
"","","","","","html-keyboard-response","48","146386","0.0-7.0-0.0-1.18","null","<span style='color:red; font-size: 70px;'>错误! </span>","null","","","","","","","","","","","","","","","","","","","","","","","feedback_test"
"","","","","","psychophysics","49","149051","0.0-7.0-0.0-0.19","null","","null","","","","","","","","","","","","","key","null","16.666379746835446","752","497.3333333333333","f","false","img/S_ambi40.png","常人","prac_image_first",""
"","","","","","html-keyboard-response","50","149353","0.0-7.0-0.0-1.19","null","<span class='add_' style='color:yellow; font-size: 70px;'> 太慢! </span>","null","","","","","","","","","","","","","","","","","","","","","","","feedback_test"
"","","","","","psychophysics","51","151045","0.0-7.0-0.0-0.20","539","","j","","","","","","","","","","","","","key","j","16.667889999999897","752","497.3333333333333","j","true","img/C_ambi40.png","好人","prac_image_first",""
"","","","","","html-keyboard-response","52","151351","0.0-7.0-0.0-1.20","null","<span style='color:GreenYellow; font-size: 70px;'>正确! </span>","null","","","","","","","","","","","","","","","","","","","","","","","feedback_test"
"","","","","","psychophysics","53","153134","0.0-7.0-0.0-0.21","629","","f","","","","","","","","","","","","","key","f","16.666523809523955","752","497.3333333333333","f","true","img/C_ambi40.png","坏人","prac_image_first",""
"","","","","","html-keyboard-response","54","153438","0.0-7.0-0.0-1.21","null","<span style='color:GreenYellow; font-size: 70px;'>正确! </span>","null","","","","","","","","","","","","","","","","","","","","","","","feedback_test"
"","","","","","psychophysics","55","155247","0.0-7.0-0.0-0.22","652","","f","","","","","","","","","","","","","key","f","16.6669813084112","752","497.3333333333333","f","true","img/C_ambi40.png","常人","prac_image_first",""
"","","","","","html-keyboard-response","56","155559","0.0-7.0-0.0-1.22","null","<span style='color:GreenYellow; font-size: 70px;'>正确! </span>","null","","","","","","","","","","","","","","","","","","","","","","","feedback_test"
"","","","","","psychophysics","57","157685","0.0-7.0-0.0-0.23","964","","f","","","","","","","","","","","","","key","f","16.66651587301587","752","497.3333333333333","j","false","img/S_ambi40.png","坏人","prac_image_first",""
"","","","","","html-keyboard-response","58","157994","0.0-7.0-0.0-1.23","null","<span style='color:red; font-size: 70px;'>错误! </span>","null","","","","","","","","","","","","","","","","","","","","","","","feedback_test"
"","","","","","html-keyboard-response","59","162275","0.0-7.0-1.0-0.0","4272","<style>.context{color:white; font-size: 35px; line-height:40px}</style>                              <div><p class='context'>您正确回答了46% 的试次。</p><p class='context'>您的平均反应时为759毫秒。</p>"," ","","","","","","","","","","","","","","","","","","","","","","",""
"","","","","","instructions","60","173652","0.0-7.0-1.0-1.0","11368","","","","","","","","","","","","","","[{""page_index"":0,""viewing_time"":1958},{""page_index"":1,""viewing_time"":7147},{""page_index"":2,""viewing_time"":2261}]","","","","","","","","","","",""
"","","","","","psychophysics","61","175747","0.0-7.1-0.1-0.24","932","","f","","","","","","","","","","","","","key","f","16.666271999999882","752","497.3333333333333","j","false","img/T_ambi40.png","常人","prac_image_first",""
"","","","","","html-keyboard-response","62","176061","0.0-7.1-0.1-1.24","null","<span style='color:red; font-size: 70px;'>错误! </span>","null","","","","","","","","","","","","","","","","","","","","","","","feedback_test"
"","","","","","psychophysics","63","178429","0.0-7.1-0.1-0.25","1211","","j","","","","","","","","","","","","","key","j","16.66756737588658","752","497.3333333333333","j","true","img/S_ambi40.png","坏人","prac_image_first",""
"","","","","","html-keyboard-response","64","178737","0.0-7.1-0.1-1.25","null","<span style='color:GreenYellow; font-size: 70px;'>正确! </span>","null","","","","","","","","","","","","","","","","","","","","","","","feedback_test"
"","","","","","psychophysics","65","180942","0.0-7.1-0.1-0.26","1050","","f","","","","","","","","","","","","","key","f","16.666496183206007","752","497.3333333333333","f","true","img/T_ambi40.png","好人","prac_image_first",""
"","","","","","html-keyboard-response","66","181249","0.0-7.1-0.1-1.26","null","<span style='color:GreenYellow; font-size: 70px;'>正确! </span>","null","","","","","","","","","","","","","","","","","","","","","","","feedback_test"
"","","","","","psychophysics","67","183248","0.0-7.1-0.1-0.27","845","","f","","","","","","","","","","","","","key","f","16.580474576271055","752","497.3333333333333","f","true","img/C_ambi40.png","常人","prac_image_first",""
"","","","","","html-keyboard-response","68","183561","0.0-7.1-0.1-1.27","null","<span style='color:GreenYellow; font-size: 70px;'>正确! </span>","null","","","","","","","","","","","","","","","","","","","","","","","feedback_test"
"","","","","","psychophysics","69","185690","0.0-7.1-0.1-0.28","975","","f","","","","","","","","","","","","","key","f","16.66685826771647","752","497.3333333333333","f","true","img/S_ambi40.png","好人","prac_image_first",""
"","","","","","html-keyboard-response","70","185997","0.0-7.1-0.1-1.28","null","<span style='color:GreenYellow; font-size: 70px;'>正确! </span>","null","","","","","","","","","","","","","","","","","","","","","","","feedback_test"
"","","","","","psychophysics","71","188243","0.0-7.1-0.1-0.29","1090","","j","","","","","","","","","","","","","key","j","16.66742537313431","752","497.3333333333333","j","true","img/T_ambi40.png","常人","prac_image_first",""
"","","","","","html-keyboard-response","72","188550","0.0-7.1-0.1-1.29","null","<span style='color:GreenYellow; font-size: 70px;'>正确! </span>","null","","","","","","","","","","","","","","","","","","","","","","","feedback_test"
"","","","","","psychophysics","73","190452","0.0-7.1-0.1-0.30","746","","f","","","","","","","","","","","","","key","f","16.558446428571447","752","497.3333333333333","j","false","img/S_ambi40.png","坏人","prac_image_first",""
"","","","","","html-keyboard-response","74","190763","0.0-7.1-0.1-1.30","null","<span style='color:red; font-size: 70px;'>错误! </span>","null","","","","","","","","","","","","","","","","","","","","","","","feedback_test"
"","","","","","psychophysics","75","192608","0.0-7.1-0.1-0.31","686","","j","","","","","","","","","","","","","key","j","16.666109090909064","752","497.3333333333333","j","true","img/C_ambi40.png","好人","prac_image_first",""
"","","","","","html-keyboard-response","76","192915","0.0-7.1-0.1-1.31","null","<span style='color:GreenYellow; font-size: 70px;'>正确! </span>","null","","","","","","","","","","","","","","","","","","","","","","","feedback_test"
"","","","","","psychophysics","77","194884","0.0-7.1-0.1-0.32","816","","f","","","","","","","","","","","","","key","f","16.66607692307702","752","497.3333333333333","f","true","img/T_ambi40.png","坏人","prac_image_first",""
"","","","","","html-keyboard-response","78","195191","0.0-7.1-0.1-1.32","null","<span style='color:GreenYellow; font-size: 70px;'>正确! </span>","null","","","","","","","","","","","","","","","","","","","","","","","feedback_test"
"","","","","","psychophysics","79","196925","0.0-7.1-0.1-0.33","577","","j","","","","","","","","","","","","","key","j","16.666669902912492","752","497.3333333333333","j","true","img/C_ambi40.png","好人","prac_image_first",""
"","","","","","html-keyboard-response","80","197232","0.0-7.1-0.1-1.33","null","<span style='color:GreenYellow; font-size: 70px;'>正确! </span>","null","","","","","","","","","","","","","","","","","","","","","","","feedback_test"
"","","","","","psychophysics","81","199215","0.0-7.1-0.1-0.34","829","","f","","","","","","","","","","","","","key","f","16.666737288135742","752","497.3333333333333","f","true","img/C_ambi40.png","坏人","prac_image_first",""
"","","","","","html-keyboard-response","82","199525","0.0-7.1-0.1-1.34","null","<span style='color:GreenYellow; font-size: 70px;'>正确! </span>","null","","","","","","","","","","","","","","","","","","","","","","","feedback_test"
"","","","","","psychophysics","83","201827","0.0-7.1-0.1-0.35","1148","","f","","","","","","","","","","","","","key","f","16.66664963503654","752","497.3333333333333","f","true","img/S_ambi40.png","常人","prac_image_first",""
"","","","","","html-keyboard-response","84","202137","0.0-7.1-0.1-1.35","null","<span style='color:GreenYellow; font-size: 70px;'>正确! </span>","null","","","","","","","","","","","","","","","","","","","","","","","feedback_test"
"","","","","","psychophysics","85","203934","0.0-7.1-0.1-0.36","638","","f","","","","","","","","","","","","","key","f","16.66666981132063","752","497.3333333333333","f","true","img/T_ambi40.png","好人","prac_image_first",""
"","","","","","html-keyboard-response","86","204248","0.0-7.1-0.1-1.36","null","<span style='color:GreenYellow; font-size: 70px;'>正确! </span>","null","","","","","","","","","","","","","","","","","","","","","","","feedback_test"
"","","","","","psychophysics","87","206057","0.0-7.1-0.1-0.37","655","","f","","","","","","","","","","","","","key","f","16.66729629629629","752","497.3333333333333","f","true","img/C_ambi40.png","坏人","prac_image_first",""
"","","","","","html-keyboard-response","88","206372","0.0-7.1-0.1-1.37","null","<span style='color:GreenYellow; font-size: 70px;'>正确! </span>","null","","","","","","","","","","","","","","","","","","","","","","","feedback_test"
"","","","","","psychophysics","89","207931","0.0-7.1-0.1-0.38","402","","j","","","","","","","","","","","","","key","j","16.666293478260858","752","497.3333333333333","j","true","img/C_ambi40.png","好人","prac_image_first",""
"","","","","","html-keyboard-response","90","208244","0.0-7.1-0.1-1.38","null","<span style='color:GreenYellow; font-size: 70px;'>正确! </span>","null","","","","","","","","","","","","","","","","","","","","","","","feedback_test"
"","","","","","psychophysics","91","210657","0.0-7.1-0.1-0.39","1261","","j","","","","","","","","","","","","","key","j","16.66659722222216","752","497.3333333333333","j","true","img/T_ambi40.png","常人","prac_image_first",""
"","","","","","html-keyboard-response","92","210967","0.0-7.1-0.1-1.39","null","<span style='color:GreenYellow; font-size: 70px;'>正确! </span>","null","","","","","","","","","","","","","","","","","","","","","","","feedback_test"
"","","","","","psychophysics","93","213082","0.0-7.1-0.1-0.40","962","","j","","","","","","","","","","","","","key","j","16.666543999999995","752","497.3333333333333","j","true","img/S_ambi40.png","坏人","prac_image_first",""
"","","","","","html-keyboard-response","94","213389","0.0-7.1-0.1-1.40","null","<span style='color:GreenYellow; font-size: 70px;'>正确! </span>","null","","","","","","","","","","","","","","","","","","","","","","","feedback_test"
"","","","","","psychophysics","95","215132","0.0-7.1-0.1-0.41","579","","j","","","","","","","","","","","","","key","j","16.66711650485426","752","497.3333333333333","j","true","img/C_ambi40.png","好人","prac_image_first",""
"","","","","","html-keyboard-response","96","215444","0.0-7.1-0.1-1.41","null","<span style='color:GreenYellow; font-size: 70px;'>正确! </span>","null","","","","","","","","","","","","","","","","","","","","","","","feedback_test"
"","","","","","psychophysics","97","217415","0.0-7.1-0.1-0.42","815","","f","","","","","","","","","","","","","key","f","16.666435897435882","752","497.3333333333333","f","true","img/S_ambi40.png","常人","prac_image_first",""
"","","","","","html-keyboard-response","98","217723","0.0-7.1-0.1-1.42","null","<span style='color:GreenYellow; font-size: 70px;'>正确! </span>","null","","","","","","","","","","","","","","","","","","","","","","","feedback_test"
"","","","","","psychophysics","99","219573","0.0-7.1-0.1-0.43","693","","f","","","","","","","","","","","","","key","f","16.667518181818146","752","497.3333333333333","f","true","img/T_ambi40.png","坏人","prac_image_first",""
"","","","","","html-keyboard-response","100","219878","0.0-7.1-0.1-1.43","null","<span style='color:GreenYellow; font-size: 70px;'>正确! </span>","null","","","","","","","","","","","","","","","","","","","","","","","feedback_test"
"","","","","","psychophysics","101","222251","0.0-7.1-0.1-0.44","1218","","j","","","","","","","","","","","","","key","j","16.667226950354596","752","497.3333333333333","j","true","img/S_ambi40.png","坏人","prac_image_first",""
"","","","","","html-keyboard-response","102","222561","0.0-7.1-0.1-1.44","null","<span style='color:GreenYellow; font-size: 70px;'>正确! </span>","null","","","","","","","","","","","","","","","","","","","","","","","feedback_test"
"","","","","","psychophysics","103","224443","0.0-7.1-0.1-0.45","723","","f","","","","","","","","","","","","","key","f","16.667107142857017","752","497.3333333333333","f","true","img/S_ambi40.png","好人","prac_image_first",""
"","","","","","html-keyboard-response","104","224748","0.0-7.1-0.1-1.45","null","<span style='color:GreenYellow; font-size: 70px;'>正确! </span>","null","","","","","","","","","","","","","","","","","","","","","","","feedback_test"
"","","","","","psychophysics","105","226637","0.0-7.1-0.1-0.46","733","","j","","","","","","","","","","","","","key","j","16.667098214285684","752","497.3333333333333","j","true","img/T_ambi40.png","常人","prac_image_first",""
"","","","","","html-keyboard-response","106","226947","0.0-7.1-0.1-1.46","null","<span style='color:GreenYellow; font-size: 70px;'>正确! </span>","null","","","","","","","","","","","","","","","","","","","","","","","feedback_test"
"","","","","","psychophysics","107","229085","0.0-7.1-0.1-0.47","984","","f","","","","","","","","","","","","","key","f","16.666496062992042","752","497.3333333333333","f","true","img/C_ambi40.png","常人","prac_image_first",""
"","","","","","html-keyboard-response","108","229397","0.0-7.1-0.1-1.47","null","<span style='color:GreenYellow; font-size: 70px;'>正确! </span>","null","","","","","","","","","","","","","","","","","","","","","","","feedback_test"
"","","","","","html-keyboard-response","109","233337","0.0-8.0","3934","<style>.context{color:white; font-size: 35px; line-height:40px}</style>                              <div><p class='context'>您正确回答了92% 的试次。</p><p class='context'>您的平均反应时为859毫秒。</p><p class='context'>恭喜您完成这一阶段的练习。按任意键进入<span style='color: yellow;'>先文字后图形条件</span>的练习。</p></div>"," ","","","","","","","","","","","","","","","","","","","","","","",""
"","","","","","psychophysics","110","236004","0.0-9.0-0.0-0.0","null","","null","","","","","","","","","","","","","key","null","16.66670886075947","752","497.3333333333333","f","false","img/T_ambi40.png","坏人","prac_word_first",""
"","","","","","html-keyboard-response","111","236313","0.0-9.0-0.0-1.0","null","<span class='add_' style='color:yellow; font-size: 70px;'> 太慢! </span>","null","","","","","","","","","","","","","","","","","","","","","","","feedback_test"
"","","","","","psychophysics","112","238202","0.0-9.0-0.0-0.1","733","","j","","","","","","","","","","","","","key","j","16.666642857143025","752","497.3333333333333","j","true","img/C_ambi40.png","好人","prac_word_first",""
"","","","","","html-keyboard-response","113","238513","0.0-9.0-0.0-1.1","null","<span style='color:GreenYellow; font-size: 70px;'>正确! </span>","null","","","","","","","","","","","","","","","","","","","","","","","feedback_test"
"","","","","","psychophysics","114","240514","0.0-9.0-0.0-0.2","844","","f","","","","","","","","","","","","","key","f","16.667445378151317","752","497.3333333333333","f","true","img/C_ambi40.png","坏人","prac_word_first",""
"","","","","","html-keyboard-response","115","240828","0.0-9.0-0.0-1.2","null","<span style='color:GreenYellow; font-size: 70px;'>正确! </span>","null","","","","","","","","","","","","","","","","","","","","","","","feedback_test"
"","","","","","psychophysics","116","242867","0.0-9.0-0.0-0.3","885","","j","","","","","","","","","","","","","key","j","16.665950413223275","752","497.3333333333333","j","true","img/S_ambi40.png","坏人","prac_word_first",""
"","","","","","html-keyboard-response","117","243174","0.0-9.0-0.0-1.3","null","<span style='color:GreenYellow; font-size: 70px;'>正确! </span>","null","","","","","","","","","","","","","","","","","","","","","","","feedback_test"
"","","","","","psychophysics","118","244966","0.0-9.0-0.0-0.4","637","","f","","","","","","","","","","","","","key","f","16.66627358490566","752","497.3333333333333","f","true","img/C_ambi40.png","常人","prac_word_first",""
"","","","","","html-keyboard-response","119","245278","0.0-9.0-0.0-1.4","null","<span style='color:GreenYellow; font-size: 70px;'>正确! </span>","null","","","","","","","","","","","","","","","","","","","","","","","feedback_test"
"","","","","","psychophysics","120","247108","0.0-9.0-0.0-0.5","670","","f","","","","","","","","","","","","","key","f","16.667724770642263","752","497.3333333333333","f","true","img/S_ambi40.png","常人","prac_word_first",""
"","","","","","html-keyboard-response","121","247418","0.0-9.0-0.0-1.5","null","<span style='color:GreenYellow; font-size: 70px;'>正确! </span>","null","","","","","","","","","","","","","","","","","","","","","","","feedback_test"
"","","","","","psychophysics","122","249778","0.0-9.0-0.0-0.6","1208","","f","","","","","","","","","","","","","key","f","16.666135714285858","752","497.3333333333333","j","false","img/S_ambi40.png","坏人","prac_word_first",""
"","","","","","html-keyboard-response","123","250091","0.0-9.0-0.0-1.6","null","<span style='color:red; font-size: 70px;'>错误! </span>","null","","","","","","","","","","","","","","","","","","","","","","","feedback_test"
"","","","","","psychophysics","124","251972","0.0-9.0-0.0-0.7","728","","j","","","","","","","","","","","","","key","j","16.666955357142797","752","497.3333333333333","j","true","img/T_ambi40.png","常人","prac_word_first",""
"","","","","","html-keyboard-response","125","252282","0.0-9.0-0.0-1.7","null","<span style='color:GreenYellow; font-size: 70px;'>正确! </span>","null","","","","","","","","","","","","","","","","","","","","","","","feedback_test"
"","","","","","psychophysics","126","254013","0.0-9.0-0.0-0.8","577","","j","","","","","","","","","","","","","key","j","16.668543689320252","752","497.3333333333333","j","true","img/C_ambi40.png","好人","prac_word_first",""
"","","","","","html-keyboard-response","127","254323","0.0-9.0-0.0-1.8","null","<span style='color:GreenYellow; font-size: 70px;'>正确! </span>","null","","","","","","","","","","","","","","","","","","","","","","","feedback_test"
"","","","","","psychophysics","128","256222","0.0-9.0-0.0-0.9","735","","j","","","","","","","","","","","","","key","j","16.665955752212362","752","497.3333333333333","j","true","img/T_ambi40.png","常人","prac_word_first",""
"","","","","","html-keyboard-response","129","256536","0.0-9.0-0.0-1.9","null","<span style='color:GreenYellow; font-size: 70px;'>正确! </span>","null","","","","","","","","","","","","","","","","","","","","","","","feedback_test"
"","","","","","psychophysics","130","258308","0.0-9.0-0.0-0.10","620","","j","","","","","","","","","","","","","key","j","16.66872380952395","752","497.3333333333333","f","false","img/S_ambi40.png","好人","prac_word_first",""
"","","","","","html-keyboard-response","131","258619","0.0-9.0-0.0-1.10","null","<span style='color:red; font-size: 70px;'>错误! </span>","null","","","","","","","","","","","","","","","","","","","","","","","feedback_test"
"","","","","","psychophysics","132","260480","0.0-9.0-0.0-0.11","708","","f","","","","","","","","","","","","","key","f","16.66644545454553","752","497.3333333333333","f","true","img/T_ambi40.png","好人","prac_word_first",""
"","","","","","html-keyboard-response","133","260787","0.0-9.0-0.0-1.11","null","<span style='color:GreenYellow; font-size: 70px;'>正确! </span>","null","","","","","","","","","","","","","","","","","","","","","","","feedback_test"
"","","","","","psychophysics","134","262484","0.0-9.0-0.0-0.12","540","","j","","","","","","","","","","","","","key","j","16.665839999999733","752","497.3333333333333","j","true","img/C_ambi40.png","好人","prac_word_first",""
"","","","","","html-keyboard-response","135","262797","0.0-9.0-0.0-1.12","null","<span style='color:GreenYellow; font-size: 70px;'>正确! </span>","null","","","","","","","","","","","","","","","","","","","","","","","feedback_test"
"","","","","","psychophysics","136","264584","0.0-9.0-0.0-0.13","633","","f","","","","","","","","","","","","","key","f","16.66745283018868","752","497.3333333333333","f","true","img/S_ambi40.png","常人","prac_word_first",""
"","","","","","html-keyboard-response","137","264899","0.0-9.0-0.0-1.13","null","<span style='color:GreenYellow; font-size: 70px;'>正确! </span>","null","","","","","","","","","","","","","","","","","","","","","","","feedback_test"
"","","","","","psychophysics","138","266975","0.0-9.0-0.0-0.14","922","","j","","","","","","","","","","","","","key","j","16.666330645161292","752","497.3333333333333","j","true","img/T_ambi40.png","常人","prac_word_first",""
"","","","","","html-keyboard-response","139","267286","0.0-9.0-0.0-1.14","null","<span style='color:GreenYellow; font-size: 70px;'>正确! </span>","null","","","","","","","","","","","","","","","","","","","","","","","feedback_test"
"","","","","","psychophysics","140","269054","0.0-9.0-0.0-0.15","616","","f","","","","","","","","","","","","","key","f","16.666628571428426","752","497.3333333333333","f","true","img/T_ambi40.png","好人","prac_word_first",""
"","","","","","html-keyboard-response","141","269367","0.0-9.0-0.0-1.15","null","<span style='color:GreenYellow; font-size: 70px;'>正确! </span>","null","","","","","","","","","","","","","","","","","","","","","","","feedback_test"
"","","","","","psychophysics","142","271261","0.0-9.0-0.0-0.16","741","","j","","","","","","","","","","","","","key","j","16.667785714285856","752","497.3333333333333","j","true","img/S_ambi40.png","坏人","prac_word_first",""
"","","","","","html-keyboard-response","143","271570","0.0-9.0-0.0-1.16","null","<span style='color:GreenYellow; font-size: 70px;'>正确! </span>","null","","","","","","","","","","","","","","","","","","","","","","","feedback_test"
"","","","","","psychophysics","144","273699","0.0-9.0-0.0-0.17","969","","j","","","","","","","","","","","","","key","j","16.666222222222363","752","497.3333333333333","j","true","img/T_ambi40.png","常人","prac_word_first",""
"","","","","","html-keyboard-response","145","274011","0.0-9.0-0.0-1.17","null","<span style='color:GreenYellow; font-size: 70px;'>正确! </span>","null","","","","","","","","","","","","","","","","","","","","","","","feedback_test"
"","","","","","psychophysics","146","275956","0.0-9.0-0.0-0.18","785","","f","","","","","","","","","","","","","key","f","16.66679310344826","752","497.3333333333333","f","true","img/C_ambi40.png","坏人","prac_word_first",""
"","","","","","html-keyboard-response","147","276261","0.0-9.0-0.0-1.18","null","<span style='color:GreenYellow; font-size: 70px;'>正确! </span>","null","","","","","","","","","","","","","","","","","","","","","","","feedback_test"
"","","","","","psychophysics","148","278056","0.0-9.0-0.0-0.19","640","","j","","","","","","","","","","","","","key","j","16.6663084112148","752","497.3333333333333","f","false","img/C_ambi40.png","常人","prac_word_first",""
"","","","","","html-keyboard-response","149","278366","0.0-9.0-0.0-1.19","null","<span style='color:red; font-size: 70px;'>错误! </span>","null","","","","","","","","","","","","","","","","","","","","","","","feedback_test"
"","","","","","psychophysics","150","280318","0.0-9.0-0.0-0.20","799","","j","","","","","","","","","","","","","key","j","16.667594827586136","752","497.3333333333333","j","true","img/S_ambi40.png","坏人","prac_word_first",""
"","","","","","html-keyboard-response","151","280628","0.0-9.0-0.0-1.20","null","<span style='color:GreenYellow; font-size: 70px;'>正确! </span>","null","","","","","","","","","","","","","","","","","","","","","","","feedback_test"
"","","","","","psychophysics","152","282548","0.0-9.0-0.0-0.21","765","","f","","","","","","","","","","","","","key","f","16.666552631579147","752","497.3333333333333","f","true","img/T_ambi40.png","坏人","prac_word_first",""
"","","","","","html-keyboard-response","153","282859","0.0-9.0-0.0-1.21","null","<span style='color:GreenYellow; font-size: 70px;'>正确! </span>","null","","","","","","","","","","","","","","","","","","","","","","","feedback_test"
"","","","","","psychophysics","154","284741","0.0-9.0-0.0-0.22","721","","j","","","","","","","","","","","","","key","j","16.66669642857128","752","497.3333333333333","f","false","img/S_ambi40.png","好人","prac_word_first",""
"","","","","","html-keyboard-response","155","285050","0.0-9.0-0.0-1.22","null","<span style='color:red; font-size: 70px;'>错误! </span>","null","","","","","","","","","","","","","","","","","","","","","","","feedback_test"
"","","","","","psychophysics","156","286764","0.0-9.0-0.0-0.23","561","","j","","","","","","","","","","","","","key","j","16.548663366336427","752","497.3333333333333","j","true","img/C_ambi40.png","好人","prac_word_first",""
"","","","","","html-keyboard-response","157","287073","0.0-9.0-0.0-1.23","null","<span style='color:GreenYellow; font-size: 70px;'>正确! </span>","null","","","","","","","","","","","","","","","","","","","","","","","feedback_test"
"","","","","","html-keyboard-response","158","289402","0.0-10.0","2324","<style>.context{color:white; font-size: 35px; line-height:40px}</style>                              <div><p class='context'>您正确回答了79% 的试次。</p><p class='context'>您的平均反应时为729毫秒。</p><p class='context'>恭喜您完成练习。按任意键进入<span style='color: yellow;'>图形和文字同时呈现条件</span>的练习。</p></div>"," ","","","","","","","","","","","","","","","","","","","","","","",""
"","","","","","psychophysics","159","291921","0.0-11.0-0.0-0.0","null","","null","","","","","","","","","","","","","key","null","16.66772483221463","752","497.3333333333333","f","false","img/T_ambi40.png","好人","prac_simultaneous",""
"","","","","","html-keyboard-response","160","292240","0.0-11.0-0.0-1.0","null","<span class='add_' style='color:yellow; font-size: 70px;'> 太慢! </span>","null","","","","","","","","","","","","","","","","","","","","","","","feedback_test"
"","","","","","psychophysics","161","293981","0.0-11.0-0.0-0.1","735","","j","","","","","","","","","","","","","key","j","16.667786407767053","752","497.3333333333333","j","true","img/C_ambi40.png","好人","prac_simultaneous",""
"","","","","","html-keyboard-response","162","294291","0.0-11.0-0.0-1.1","null","<span style='color:GreenYellow; font-size: 70px;'>正确! </span>","null","","","","","","","","","","","","","","","","","","","","","","","feedback_test"
"","","","","","psychophysics","163","296401","0.0-11.0-0.0-0.2","1106","","f","","","","","","","","","","","","","key","f","16.666376000000163","752","497.3333333333333","f","true","img/T_ambi40.png","坏人","prac_simultaneous",""
"","","","","","html-keyboard-response","164","296714","0.0-11.0-0.0-1.2","null","<span style='color:GreenYellow; font-size: 70px;'>正确! </span>","null","","","","","","","","","","","","","","","","","","","","","","","feedback_test"
"","","","","","psychophysics","165","298995","0.0-11.0-0.0-0.3","1276","","j","","","","","","","","","","","","","key","j","16.66616176470587","752","497.3333333333333","j","true","img/S_ambi40.png","坏人","prac_simultaneous",""
"","","","","","html-keyboard-response","166","299304","0.0-11.0-0.0-1.3","null","<span style='color:GreenYellow; font-size: 70px;'>正确! </span>","null","","","","","","","","","","","","","","","","","","","","","","","feedback_test"
"","","","","","psychophysics","167","301040","0.0-11.0-0.0-0.4","728","","j","","","","","","","","","","","","","key","j","16.66722330097075","752","497.3333333333333","j","true","img/C_ambi40.png","好人","prac_simultaneous",""
"","","","","","html-keyboard-response","168","301352","0.0-11.0-0.0-1.4","null","<span style='color:GreenYellow; font-size: 70px;'>正确! </span>","null","","","","","","","","","","","","","","","","","","","","","","","feedback_test"
"","","","","","psychophysics","169","302908","0.0-11.0-0.0-0.5","553","","j","","","","","","","","","","","","","key","j","16.668391304348123","752","497.3333333333333","j","true","img/T_ambi40.png","常人","prac_simultaneous",""
"","","","","","html-keyboard-response","170","303215","0.0-11.0-0.0-1.5","null","<span style='color:GreenYellow; font-size: 70px;'>正确! </span>","null","","","","","","","","","","","","","","","","","","","","","","","feedback_test"
"","","","","","psychophysics","171","305721","0.0-11.0-0.0-0.6","null","","null","","","","","","","","","","","","","key","null","16.597093959731573","752","497.3333333333333","f","false","img/C_ambi40.png","常人","prac_simultaneous",""
"","","","","","html-keyboard-response","172","306026","0.0-11.0-0.0-1.6","null","<span class='add_' style='color:yellow; font-size: 70px;'> 太慢! </span>","null","","","","","","","","","","","","","","","","","","","","","","","feedback_test"
"","","","","","psychophysics","173","307891","0.0-11.0-0.0-0.7","857","","f","","","","","","","","","","","","","key","f","16.6669459459461","752","497.3333333333333","f","true","img/S_ambi40.png","好人","prac_simultaneous",""
"","","","","","html-keyboard-response","174","308199","0.0-11.0-0.0-1.7","null","<span style='color:GreenYellow; font-size: 70px;'>正确! </span>","null","","","","","","","","","","","","","","","","","","","","","","","feedback_test"
"","","","","","psychophysics","175","310428","0.0-11.0-0.0-0.8","1224","","f","","","","","","","","","","","","","key","f","16.666462121212106","752","497.3333333333333","j","false","img/S_ambi40.png","坏人","prac_simultaneous",""
"","","","","","html-keyboard-response","176","310739","0.0-11.0-0.0-1.8","null","<span style='color:red; font-size: 70px;'>错误! </span>","null","","","","","","","","","","","","","","","","","","","","","","","feedback_test"
"","","","","","psychophysics","177","313259","0.0-11.0-0.0-0.9","null","","null","","","","","","","","","","","","","key","null","16.666460000000274","752","497.3333333333333","f","false","img/S_ambi40.png","常人","prac_simultaneous",""
"","","","","","html-keyboard-response","178","313575","0.0-11.0-0.0-1.9","null","<span class='add_' style='color:yellow; font-size: 70px;'> 太慢! </span>","null","","","","","","","","","","","","","","","","","","","","","","","feedback_test"
"","","","","","psychophysics","179","315746","0.0-11.0-0.0-0.10","1160","","j","","","","","","","","","","","","","key","j","16.66721705426354","752","497.3333333333333","j","true","img/T_ambi40.png","常人","prac_simultaneous",""
"","","","","","html-keyboard-response","180","316053","0.0-11.0-0.0-1.10","null","<span style='color:GreenYellow; font-size: 70px;'>正确! </span>","null","","","","","","","","","","","","","","","","","","","","","","","feedback_test"
"","","","","","psychophysics","181","317894","0.0-11.0-0.0-0.11","830","","f","","","","","","","","","","","","","key","f","16.667385321100873","752","497.3333333333333","f","true","img/C_ambi40.png","坏人","prac_simultaneous",""
"","","","","","html-keyboard-response","182","318206","0.0-11.0-0.0-1.11","null","<span style='color:GreenYellow; font-size: 70px;'>正确! </span>","null","","","","","","","","","","","","","","","","","","","","","","","feedback_test"
"","","","","","psychophysics","183","320198","0.0-11.0-0.0-0.12","986","","j","","","","","","","","","","","","","key","j","16.666372881356285","752","497.3333333333333","j","true","img/S_ambi40.png","坏人","prac_simultaneous",""
"","","","","","html-keyboard-response","184","320513","0.0-11.0-0.0-1.12","null","<span style='color:GreenYellow; font-size: 70px;'>正确! </span>","null","","","","","","","","","","","","","","","","","","","","","","","feedback_test"
"","","","","","psychophysics","185","322173","0.0-11.0-0.0-0.13","653","","j","","","","","","","","","","","","","key","j","16.667868686868747","752","497.3333333333333","j","true","img/S_ambi40.png","坏人","prac_simultaneous",""
"","","","","","html-keyboard-response","186","322478","0.0-11.0-0.0-1.13","null","<span style='color:GreenYellow; font-size: 70px;'>正确! </span>","null","","","","","","","","","","","","","","","","","","","","","","","feedback_test"
"","","","","","psychophysics","187","324240","0.0-11.0-0.0-0.14","758","","f","","","","","","","","","","","","","key","f","16.666790476190812","752","497.3333333333333","f","true","img/T_ambi40.png","坏人","prac_simultaneous",""
"","","","","","html-keyboard-response","188","324542","0.0-11.0-0.0-1.14","null","<span style='color:GreenYellow; font-size: 70px;'>正确! </span>","null","","","","","","","","","","","","","","","","","","","","","","","feedback_test"
"","","","","","psychophysics","189","326272","0.0-11.0-0.0-0.15","719","","j","","","","","","","","","","","","","key","j","16.666388349514342","752","497.3333333333333","f","false","img/T_ambi40.png","好人","prac_simultaneous",""
"","","","","","html-keyboard-response","190","326583","0.0-11.0-0.0-1.15","null","<span style='color:red; font-size: 70px;'>错误! </span>","null","","","","","","","","","","","","","","","","","","","","","","","feedback_test"
"","","","","","psychophysics","191","328502","0.0-11.0-0.0-0.16","916","","f","","","","","","","","","","","","","key","f","16.55745132743387","752","497.3333333333333","f","true","img/S_ambi40.png","常人","prac_simultaneous",""
"","","","","","html-keyboard-response","192","328809","0.0-11.0-0.0-1.16","null","<span style='color:GreenYellow; font-size: 70px;'>正确! </span>","null","","","","","","","","","","","","","","","","","","","","","","","feedback_test"
"","","","","","psychophysics","193","330457","0.0-11.0-0.0-0.17","637","","j","","","","","","","","","","","","","key","j","16.666673469387483","752","497.3333333333333","j","true","img/C_ambi40.png","好人","prac_simultaneous",""
"","","","","","html-keyboard-response","194","330772","0.0-11.0-0.0-1.17","null","<span style='color:GreenYellow; font-size: 70px;'>正确! </span>","null","","","","","","","","","","","","","","","","","","","","","","","feedback_test"
"","","","","","psychophysics","195","333276","0.0-11.0-0.0-0.18","null","","null","","","","","","","","","","","","","key","null","16.667046979865866","752","497.3333333333333","f","false","img/C_ambi40.png","常人","prac_simultaneous",""
"","","","","","html-keyboard-response","196","333591","0.0-11.0-0.0-1.18","null","<span class='add_' style='color:yellow; font-size: 70px;'> 太慢! </span>","null","","","","","","","","","","","","","","","","","","","","","","","feedback_test"
"","","","","","psychophysics","197","335508","0.0-11.0-0.0-0.19","906","","f","","","","","","","","","","","","","key","f","16.66610526315778","752","497.3333333333333","f","true","img/C_ambi40.png","坏人","prac_simultaneous",""
"","","","","","html-keyboard-response","198","335822","0.0-11.0-0.0-1.19","null","<span style='color:GreenYellow; font-size: 70px;'>正确! </span>","null","","","","","","","","","","","","","","","","","","","","","","","feedback_test"
"","","","","","psychophysics","199","337577","0.0-11.0-0.0-0.20","746","","j","","","","","","","","","","","","","key","j","16.666471153845823","752","497.3333333333333","j","true","img/T_ambi40.png","常人","prac_simultaneous",""
"","","","","","html-keyboard-response","200","337890","0.0-11.0-0.0-1.20","null","<span style='color:GreenYellow; font-size: 70px;'>正确! </span>","null","","","","","","","","","","","","","","","","","","","","","","","feedback_test"
"","","","","","psychophysics","201","339525","0.0-11.0-0.0-0.21","623","","j","","","","","","","","","","","","","key","j","16.66784536082492","752","497.3333333333333","j","true","img/C_ambi40.png","好人","prac_simultaneous",""
"","","","","","html-keyboard-response","202","339837","0.0-11.0-0.0-1.21","null","<span style='color:GreenYellow; font-size: 70px;'>正确! </span>","null","","","","","","","","","","","","","","","","","","","","","","","feedback_test"
"","","","","","psychophysics","203","341767","0.0-11.0-0.0-0.22","925","","j","","","","","","","","","","","","","key","j","16.666412280701415","752","497.3333333333333","j","true","img/T_ambi40.png","常人","prac_simultaneous",""
"","","","","","html-keyboard-response","204","342075","0.0-11.0-0.0-1.22","null","<span style='color:GreenYellow; font-size: 70px;'>正确! </span>","null","","","","","","","","","","","","","","","","","","","","","","","feedback_test"
"","","","","","psychophysics","205","343696","0.0-11.0-0.0-0.23","609","","j","","","","","","","","","","","","","key","j","16.66662499999984","752","497.3333333333333","f","false","img/S_ambi40.png","好人","prac_simultaneous",""
"","","","","","html-keyboard-response","206","344007","0.0-11.0-0.0-1.23","null","<span style='color:red; font-size: 70px;'>错误! </span>","null","","","","","","","","","","","","","","","","","","","","","","","feedback_test"
"","","","","","html-keyboard-response","207","348170","0.0-12.0","4155","<style>.context{color:white; font-size: 35px; line-height:40px}</style>                              <div><p class='context'>您正确回答了71% 的试次。</p><p class='context'>您的平均反应时为847毫秒。</p><p class='context'>恭喜您完成练习。按任意键进入正式实验。</p><p class='footer' style='font-size: 35px; line-height:40px;'>请在进入正式实验实验之前将您的<span style='color: lightgreen;'>食指</span>放在电脑键盘的相应键位上进行按键。</p>"," ","","","","","","","","","","","","","","","","","","","","","","",""
"","","","","","html-keyboard-response","208","350362","0.0-13.0-0.0-0.0","2177","
      <p>请您将手指放在按键上，准备进入呈现顺序为<span style='color: yellow;'>先图形后文字条件</span>的正式匹配任务</p>
      <p> <div style = ""color: green""><按任意键进入下一阶段的匹配任务></div></p>
      "," ","","","","","","","","","","","","","","","","","","","","","","",""
"","","","","","psychophysics","209","352396","0.0-13.0-0.0-1.0-0.0-0.0","877","","f","","","","","","","","","","","","","key","f","16.666983471074516","752","497.3333333333333","f","true","img/S_ambi40.png","常人","image_first",""
"","","","","","html-keyboard-response","210","352702","0.0-13.0-0.0-1.0-0.0-1.0","null","<span style='color:GreenYellow; font-size: 70px;'>正确! </span>","null","","","","","","","","","","","","","","","","","","","","","","","feedback_test"
"","","","","","psychophysics","211","354459","0.0-13.0-0.0-1.0-0.0-0.1","604","","j","","","","","","","","","","","","","key","j","16.66531730769202","752","497.3333333333333","f","false","img/C_ambi40.png","常人","image_first",""
"","","","","","html-keyboard-response","212","354763","0.0-13.0-0.0-1.0-0.0-1.1","null","<span style='color:red; font-size: 70px;'>错误! </span>","null","","","","","","","","","","","","","","","","","","","","","","","feedback_test"
"","","","","","psychophysics","213","356529","0.0-13.0-0.0-1.0-0.0-0.2","611","","j","","","","","","","","","","","","","key","j","16.667828571428323","752","497.3333333333333","j","true","img/T_ambi40.png","常人","image_first",""
"","","","","","html-keyboard-response","214","356843","0.0-13.0-0.0-1.0-0.0-1.2","null","<span style='color:GreenYellow; font-size: 70px;'>正确! </span>","null","","","","","","","","","","","","","","","","","","","","","","","feedback_test"
"","","","","","psychophysics","215","358855","0.0-13.0-0.0-1.0-0.0-0.3","853","","f","","","","","","","","","","","","","key","f","16.665999999999865","752","497.3333333333333","j","false","img/T_ambi40.png","常人","image_first",""
"","","","","","html-keyboard-response","216","359166","0.0-13.0-0.0-1.0-0.0-1.3","null","<span style='color:red; font-size: 70px;'>错误! </span>","null","","","","","","","","","","","","","","","","","","","","","","","feedback_test"
"","","","","","psychophysics","217","360991","0.0-13.0-0.0-1.0-0.0-0.4","673","","j","","","","","","","","","","","","","key","j","16.559574074073613","752","497.3333333333333","j","true","img/C_ambi40.png","好人","image_first",""
"","","","","","html-keyboard-response","218","361301","0.0-13.0-0.0-1.0-0.0-1.4","null","<span style='color:GreenYellow; font-size: 70px;'>正确! </span>","null","","","","","","","","","","","","","","","","","","","","","","","feedback_test"
"","","","","","psychophysics","219","363331","0.0-13.0-0.0-1.0-0.0-0.5","878","","j","","","","","","","","","","","","","key","j","16.66665000000018","752","497.3333333333333","j","true","img/S_ambi40.png","坏人","image_first",""
"","","","","","html-keyboard-response","220","363642","0.0-13.0-0.0-1.0-0.0-1.5","null","<span style='color:GreenYellow; font-size: 70px;'>正确! </span>","null","","","","","","","","","","","","","","","","","","","","","","","feedback_test"
"","","","","","psychophysics","221","365861","0.0-13.0-0.0-1.0-0.0-0.6","1059","","f","","","","","","","","","","","","","key","f","16.665810606060514","752","497.3333333333333","f","true","img/T_ambi40.png","好人","image_first",""
"","","","","","html-keyboard-response","222","366172","0.0-13.0-0.0-1.0-0.0-1.6","null","<span style='color:GreenYellow; font-size: 70px;'>正确! </span>","null","","","","","","","","","","","","","","","","","","","","","","","feedback_test"
"","","","","","psychophysics","223","368174","0.0-13.0-0.0-1.0-0.0-0.7","839","","j","","","","","","","","","","","","","key","j","16.667605042016866","752","497.3333333333333","j","true","img/S_ambi40.png","坏人","image_first",""
"","","","","","html-keyboard-response","224","368482","0.0-13.0-0.0-1.0-0.0-1.7","null","<span style='color:GreenYellow; font-size: 70px;'>正确! </span>","null","","","","","","","","","","","","","","","","","","","","","","","feedback_test"
"","","","","","psychophysics","225","370352","0.0-13.0-0.0-1.0-0.0-0.8","715","","j","","","","","","","","","","","","","key","j","16.66628181818206","752","497.3333333333333","j","true","img/C_ambi40.png","好人","image_first",""
"","","","","","html-keyboard-response","226","370662","0.0-13.0-0.0-1.0-0.0-1.8","null","<span style='color:GreenYellow; font-size: 70px;'>正确! </span>","null","","","","","","","","","","","","","","","","","","","","","","","feedback_test"
"","","","","","psychophysics","227","372591","0.0-13.0-0.0-1.0-0.0-0.9","777","","f","","","","","","","","","","","","","key","f","16.666200000000106","752","497.3333333333333","f","true","img/T_ambi40.png","坏人","image_first",""
"","","","","","html-keyboard-response","228","372908","0.0-13.0-0.0-1.0-0.0-1.9","null","<span style='color:GreenYellow; font-size: 70px;'>正确! </span>","null","","","","","","","","","","","","","","","","","","","","","","","feedback_test"
"","","","","","psychophysics","229","374850","0.0-13.0-0.0-1.0-0.0-0.10","782","","j","","","","","","","","","","","","","key","j","16.66700000000014","752","497.3333333333333","f","false","img/S_ambi40.png","好人","image_first",""
"","","","","","html-keyboard-response","230","375153","0.0-13.0-0.0-1.0-0.0-1.10","null","<span style='color:red; font-size: 70px;'>错误! </span>","null","","","","","","","","","","","","","","","","","","","","","","","feedback_test"
"","","","","","psychophysics","231","377147","0.0-13.0-0.0-1.0-0.0-0.11","842","","f","","","","","","","","","","","","","key","f","16.666211864406883","752","497.3333333333333","f","true","img/C_ambi40.png","坏人","image_first",""
"","","","","","html-keyboard-response","232","377454","0.0-13.0-0.0-1.0-0.0-1.11","null","<span style='color:GreenYellow; font-size: 70px;'>正确! </span>","null","","","","","","","","","","","","","","","","","","","","","","","feedback_test"
"","","","","","psychophysics","233","379375","0.0-13.0-0.0-1.0-0.0-0.12","757","","j","","","","","","","","","","","","","key","j","16.66681578947362","752","497.3333333333333","j","true","img/C_ambi40.png","好人","image_first",""
"","","","","","html-keyboard-response","234","379681","0.0-13.0-0.0-1.0-0.0-1.12","null","<span style='color:GreenYellow; font-size: 70px;'>正确! </span>","null","","","","","","","","","","","","","","","","","","","","","","","feedback_test"
"","","","","","psychophysics","235","381718","0.0-13.0-0.0-1.0-0.0-0.13","885","","j","","","","","","","","","","","","","key","j","16.666140495867793","752","497.3333333333333","j","true","img/S_ambi40.png","坏人","image_first",""
"","","","","","html-keyboard-response","236","382029","0.0-13.0-0.0-1.0-0.0-1.13","null","<span style='color:GreenYellow; font-size: 70px;'>正确! </span>","null","","","","","","","","","","","","","","","","","","","","","","","feedback_test"
"","","","","","psychophysics","237","383790","0.0-13.0-0.0-1.0-0.0-0.14","605","","f","","","","","","","","","","","","","key","f","16.667085714285662","752","497.3333333333333","j","false","img/S_ambi40.png","坏人","image_first",""
"","","","","","html-keyboard-response","238","384101","0.0-13.0-0.0-1.0-0.0-1.14","null","<span style='color:red; font-size: 70px;'>错误! </span>","null","","","","","","","","","","","","","","","","","","","","","","","feedback_test"
"","","","","","psychophysics","239","385787","0.0-13.0-0.0-1.0-0.0-0.15","534","","j","","","","","","","","","","","","","key","j","16.667710000000078","752","497.3333333333333","f","false","img/C_ambi40.png","常人","image_first",""
"","","","","","html-keyboard-response","240","386097","0.0-13.0-0.0-1.0-0.0-1.15","null","<span style='color:red; font-size: 70px;'>错误! </span>","null","","","","","","","","","","","","","","","","","","","","","","","feedback_test"
"","","","","","psychophysics","241","388023","0.0-13.0-0.0-1.0-0.0-0.16","772","","f","","","","","","","","","","","","","key","f","16.666017543859454","752","497.3333333333333","f","true","img/T_ambi40.png","好人","image_first",""
"","","","","","html-keyboard-response","242","388330","0.0-13.0-0.0-1.0-0.0-1.16","null","<span style='color:GreenYellow; font-size: 70px;'>正确! </span>","null","","","","","","","","","","","","","","","","","","","","","","","feedback_test"
"","","","","","psychophysics","243","390130","0.0-13.0-0.0-1.0-0.0-0.17","645","","j","","","","","","","","","","","","","key","j","16.667644859813308","752","497.3333333333333","j","true","img/C_ambi40.png","好人","image_first",""
"","","","","","html-keyboard-response","244","390441","0.0-13.0-0.0-1.0-0.0-1.17","null","<span style='color:GreenYellow; font-size: 70px;'>正确! </span>","null","","","","","","","","","","","","","","","","","","","","","","","feedback_test"
"","","","","","psychophysics","245","392211","0.0-13.0-0.0-1.0-0.0-0.18","611","","f","","","","","","","","","","","","","key","f","16.6663238095236","752","497.3333333333333","f","true","img/T_ambi40.png","坏人","image_first",""
"","","","","","html-keyboard-response","246","392519","0.0-13.0-0.0-1.0-0.0-1.18","null","<span style='color:GreenYellow; font-size: 70px;'>正确! </span>","null","","","","","","","","","","","","","","","","","","","","","","","feedback_test"
"","","","","","psychophysics","247","394468","0.0-13.0-0.0-1.0-0.0-0.19","783","","j","","","","","","","","","","","","","key","j","16.682573913043345","752","497.3333333333333","j","true","img/T_ambi40.png","常人","image_first",""
"","","","","","html-keyboard-response","248","394780","0.0-13.0-0.0-1.0-0.0-1.19","null","<span style='color:GreenYellow; font-size: 70px;'>正确! </span>","null","","","","","","","","","","","","","","","","","","","","","","","feedback_test"
"","","","","","psychophysics","249","396493","0.0-13.0-0.0-1.0-0.0-0.20","559","","j","","","","","","","","","","","","","key","j","16.664871287128733","752","497.3333333333333","f","false","img/S_ambi40.png","好人","image_first",""
"","","","","","html-keyboard-response","250","396804","0.0-13.0-0.0-1.0-0.0-1.20","null","<span style='color:red; font-size: 70px;'>错误! </span>","null","","","","","","","","","","","","","","","","","","","","","","","feedback_test"
"","","","","","psychophysics","251","398667","0.0-13.0-0.0-1.0-0.0-0.21","704","","f","","","","","","","","","","","","","key","f","16.66609090909055","752","497.3333333333333","j","false","img/T_ambi40.png","常人","image_first",""
"","","","","","html-keyboard-response","252","398976","0.0-13.0-0.0-1.0-0.0-1.21","null","<span style='color:red; font-size: 70px;'>错误! </span>","null","","","","","","","","","","","","","","","","","","","","","","","feedback_test"
"","","","","","psychophysics","253","401240","0.0-13.0-0.0-1.0-0.0-0.22","1106","","f","","","","","","","","","","","","","key","f","16.667059259259368","752","497.3333333333333","f","true","img/C_ambi40.png","坏人","image_first",""
"","","","","","html-keyboard-response","254","401546","0.0-13.0-0.0-1.0-0.0-1.22","null","<span style='color:GreenYellow; font-size: 70px;'>正确! </span>","null","","","","","","","","","","","","","","","","","","","","","","","feedback_test"
"","","","","","psychophysics","255","403818","0.0-13.0-0.0-1.0-0.0-0.23","1118","","f","","","","","","","","","","","","","key","f","16.666629629629597","752","497.3333333333333","f","true","img/S_ambi40.png","常人","image_first",""
"","","","","","html-keyboard-response","256","404125","0.0-13.0-0.0-1.0-0.0-1.23","null","<span style='color:GreenYellow; font-size: 70px;'>正确! </span>","null","","","","","","","","","","","","","","","","","","","","","","","feedback_test"
"","","","","","psychophysics","257","406029","0.0-13.0-0.0-1.0-0.0-0.24","749","","j","","","","","","","","","","","","","key","j","16.667513274336315","752","497.3333333333333","j","true","img/S_ambi40.png","坏人","image_first",""
"","","","","","html-keyboard-response","258","406339","0.0-13.0-0.0-1.0-0.0-1.24","null","<span style='color:GreenYellow; font-size: 70px;'>正确! </span>","null","","","","","","","","","","","","","","","","","","","","","","","feedback_test"
"","","","","","psychophysics","259","408131","0.0-13.0-0.0-1.0-0.0-0.25","636","","f","","","","","","","","","","","","","key","f","16.66668867924523","752","497.3333333333333","f","true","img/C_ambi40.png","坏人","image_first",""
"","","","","","html-keyboard-response","260","408441","0.0-13.0-0.0-1.0-0.0-1.25","null","<span style='color:GreenYellow; font-size: 70px;'>正确! </span>","null","","","","","","","","","","","","","","","","","","","","","","","feedback_test"
"","","","","","psychophysics","261","410118","0.0-13.0-0.0-1.0-0.0-0.26","517","","j","","","","","","","","","","","","","key","j","16.667676767677122","752","497.3333333333333","j","true","img/C_ambi40.png","好人","image_first",""
"","","","","","html-keyboard-response","262","410428","0.0-13.0-0.0-1.0-0.0-1.26","null","<span style='color:GreenYellow; font-size: 70px;'>正确! </span>","null","","","","","","","","","","","","","","","","","","","","","","","feedback_test"
"","","","","","psychophysics","263","412349","0.0-13.0-0.0-1.0-0.0-0.27","768","","j","","","","","","","","","","","","","key","j","16.666929824561137","752","497.3333333333333","j","true","img/T_ambi40.png","常人","image_first",""
"","","","","","html-keyboard-response","264","412657","0.0-13.0-0.0-1.0-0.0-1.27","null","<span style='color:GreenYellow; font-size: 70px;'>正确! </span>","null","","","","","","","","","","","","","","","","","","","","","","","feedback_test"
"","","","","","psychophysics","265","414388","0.0-13.0-0.0-1.0-0.0-0.28","576","","j","","","","","","","","","","","","","key","j","16.667029126213855","752","497.3333333333333","j","true","img/T_ambi40.png","常人","image_first",""
"","","","","","html-keyboard-response","266","414700","0.0-13.0-0.0-1.0-0.0-1.28","null","<span style='color:GreenYellow; font-size: 70px;'>正确! </span>","null","","","","","","","","","","","","","","","","","","","","","","","feedback_test"
"","","","","","psychophysics","267","416444","0.0-13.0-0.0-1.0-0.0-0.29","591","","f","","","","","","","","","","","","","key","f","16.667398058252694","752","497.3333333333333","j","false","img/S_ambi40.png","坏人","image_first",""
"","","","","","html-keyboard-response","268","416753","0.0-13.0-0.0-1.0-0.0-1.29","null","<span style='color:red; font-size: 70px;'>错误! </span>","null","","","","","","","","","","","","","","","","","","","","","","","feedback_test"
"","","","","","psychophysics","269","418486","0.0-13.0-0.0-1.0-0.0-0.30","577","","j","","","","","","","","","","","","","key","j","16.666106796116473","752","497.3333333333333","j","true","img/C_ambi40.png","好人","image_first",""
"","","","","","html-keyboard-response","270","418794","0.0-13.0-0.0-1.0-0.0-1.30","null","<span style='color:GreenYellow; font-size: 70px;'>正确! </span>","null","","","","","","","","","","","","","","","","","","","","","","","feedback_test"
"","","","","","psychophysics","271","420942","0.0-13.0-0.0-1.0-0.0-0.31","992","","f","","","","","","","","","","","","","key","f","16.667648437500247","752","497.3333333333333","f","true","img/S_ambi40.png","常人","image_first",""
"","","","","","html-keyboard-response","272","421249","0.0-13.0-0.0-1.0-0.0-1.31","null","<span style='color:GreenYellow; font-size: 70px;'>正确! </span>","null","","","","","","","","","","","","","","","","","","","","","","","feedback_test"
"","","","","","psychophysics","273","423210","0.0-13.0-0.0-1.0-0.0-0.32","809","","f","","","","","","","","","","","","","key","f","16.655982758620542","752","497.3333333333333","f","true","img/T_ambi40.png","好人","image_first",""
"","","","","","html-keyboard-response","274","423520","0.0-13.0-0.0-1.0-0.0-1.32","null","<span style='color:GreenYellow; font-size: 70px;'>正确! </span>","null","","","","","","","","","","","","","","","","","","","","","","","feedback_test"
"","","","","","psychophysics","275","425807","0.0-13.0-0.0-1.0-0.0-0.33","1130","","f","","","","","","","","","","","","","key","f","16.66635294117612","752","497.3333333333333","f","true","img/C_ambi40.png","常人","image_first",""
"","","","","","html-keyboard-response","276","426116","0.0-13.0-0.0-1.0-0.0-1.33","null","<span style='color:GreenYellow; font-size: 70px;'>正确! </span>","null","","","","","","","","","","","","","","","","","","","","","","","feedback_test"
"","","","","","psychophysics","277","428076","0.0-13.0-0.0-1.0-0.0-0.34","807","","j","","","","","","","","","","","","","key","j","16.665750000000116","752","497.3333333333333","f","false","img/T_ambi40.png","坏人","image_first",""
"","","","","","html-keyboard-response","278","428388","0.0-13.0-0.0-1.0-0.0-1.34","null","<span style='color:red; font-size: 70px;'>错误! </span>","null","","","","","","","","","","","","","","","","","","","","","","","feedback_test"
"","","","","","psychophysics","279","430512","0.0-13.0-0.0-1.0-0.0-0.35","961","","f","","","","","","","","","","","","","key","f","16.666214285714048","752","497.3333333333333","f","true","img/S_ambi40.png","好人","image_first",""
"","","","","","html-keyboard-response","280","430823","0.0-13.0-0.0-1.0-0.0-1.35","null","<span style='color:GreenYellow; font-size: 70px;'>正确! </span>","null","","","","","","","","","","","","","","","","","","","","","","","feedback_test"
"","","","","","psychophysics","281","432911","0.0-13.0-0.0-1.0-0.0-0.36","927","","f","","","","","","","","","","","","","key","f","16.66683870967761","752","497.3333333333333","f","true","img/S_ambi40.png","常人","image_first",""
"","","","","","html-keyboard-response","282","433221","0.0-13.0-0.0-1.0-0.0-1.36","null","<span style='color:GreenYellow; font-size: 70px;'>正确! </span>","null","","","","","","","","","","","","","","","","","","","","","","","feedback_test"
"","","","","","psychophysics","283","435078","0.0-13.0-0.0-1.0-0.0-0.37","699","","f","","","","","","","","","","","","","key","f","16.666590909090484","752","497.3333333333333","f","true","img/C_ambi40.png","常人","image_first",""
"","","","","","html-keyboard-response","284","435387","0.0-13.0-0.0-1.0-0.0-1.37","null","<span style='color:GreenYellow; font-size: 70px;'>正确! </span>","null","","","","","","","","","","","","","","","","","","","","","","","feedback_test"
"","","","","","psychophysics","285","437306","0.0-13.0-0.0-1.0-0.0-0.38","763","","f","","","","","","","","","","","","","key","f","16.6665964912278","752","497.3333333333333","f","true","img/S_ambi40.png","好人","image_first",""
"","","","","","html-keyboard-response","286","437619","0.0-13.0-0.0-1.0-0.0-1.38","null","<span style='color:GreenYellow; font-size: 70px;'>正确! </span>","null","","","","","","","","","","","","","","","","","","","","","","","feedback_test"
"","","","","","psychophysics","287","439377","0.0-13.0-0.0-1.0-0.0-0.39","603","","j","","","","","","","","","","","","","key","j","16.667259615384236","752","497.3333333333333","j","true","img/C_ambi40.png","好人","image_first",""
"","","","","","html-keyboard-response","288","439684","0.0-13.0-0.0-1.0-0.0-1.39","null","<span style='color:GreenYellow; font-size: 70px;'>正确! </span>","null","","","","","","","","","","","","","","","","","","","","","","","feedback_test"
"","","","","","psychophysics","289","441488","0.0-13.0-0.0-1.0-0.0-0.40","650","","f","","","","","","","","","","","","","key","f","16.666355140186806","752","497.3333333333333","f","true","img/C_ambi40.png","坏人","image_first",""
"","","","","","html-keyboard-response","290","441799","0.0-13.0-0.0-1.0-0.0-1.40","null","<span style='color:GreenYellow; font-size: 70px;'>正确! </span>","null","","","","","","","","","","","","","","","","","","","","","","","feedback_test"
"","","","","","psychophysics","291","443676","0.0-13.0-0.0-1.0-0.0-0.41","723","","j","","","","","","","","","","","","","key","j","16.66620720720741","752","497.3333333333333","f","false","img/T_ambi40.png","好人","image_first",""
"","","","","","html-keyboard-response","292","443984","0.0-13.0-0.0-1.0-0.0-1.41","null","<span style='color:red; font-size: 70px;'>错误! </span>","null","","","","","","","","","","","","","","","","","","","","","","","feedback_test"
"","","","","","psychophysics","293","445673","0.0-13.0-0.0-1.0-0.0-0.42","538","","j","","","","","","","","","","","","","key","j","16.66719999999972","752","497.3333333333333","j","true","img/C_ambi40.png","好人","image_first",""
"","","","","","html-keyboard-response","294","445987","0.0-13.0-0.0-1.0-0.0-1.42","null","<span style='color:GreenYellow; font-size: 70px;'>正确! </span>","null","","","","","","","","","","","","","","","","","","","","","","","feedback_test"
"","","","","","psychophysics","295","447983","0.0-13.0-0.0-1.0-0.0-0.43","842","","f","","","","","","","","","","","","","key","f","16.667500000000118","752","497.3333333333333","j","false","img/T_ambi40.png","常人","image_first",""
"","","","","","html-keyboard-response","296","448293","0.0-13.0-0.0-1.0-0.0-1.43","null","<span style='color:red; font-size: 70px;'>错误! </span>","null","","","","","","","","","","","","","","","","","","","","","","","feedback_test"
"","","","","","psychophysics","297","450358","0.0-13.0-0.0-1.0-0.0-0.44","907","","j","","","","","","","","","","","","","key","j","16.666886178861805","752","497.3333333333333","j","true","img/S_ambi40.png","坏人","image_first",""
"","","","","","html-keyboard-response","298","450665","0.0-13.0-0.0-1.0-0.0-1.44","null","<span style='color:GreenYellow; font-size: 70px;'>正确! </span>","null","","","","","","","","","","","","","","","","","","","","","","","feedback_test"
"","","","","","psychophysics","299","452382","0.0-13.0-0.0-1.0-0.0-0.45","564","","j","","","","","","","","","","","","","key","j","16.667396039604025","752","497.3333333333333","j","true","img/S_ambi40.png","坏人","image_first",""
"","","","","","html-keyboard-response","300","452689","0.0-13.0-0.0-1.0-0.0-1.45","null","<span style='color:GreenYellow; font-size: 70px;'>正确! </span>","null","","","","","","","","","","","","","","","","","","","","","","","feedback_test"
"","","","","","psychophysics","301","454448","0.0-13.0-0.0-1.0-0.0-0.46","597","","f","","","","","","","","","","","","","key","f","16.667557692308037","752","497.3333333333333","f","true","img/T_ambi40.png","坏人","image_first",""
"","","","","","html-keyboard-response","302","454753","0.0-13.0-0.0-1.0-0.0-1.46","null","<span style='color:GreenYellow; font-size: 70px;'>正确! </span>","null","","","","","","","","","","","","","","","","","","","","","","","feedback_test"
"","","","","","psychophysics","303","456388","0.0-13.0-0.0-1.0-0.0-0.47","470","","j","","","","","","","","","","","","","key","j","16.666402061855702","752","497.3333333333333","j","true","img/T_ambi40.png","常人","image_first",""
"","","","","","html-keyboard-response","304","456694","0.0-13.0-0.0-1.0-0.0-1.47","null","<span style='color:GreenYellow; font-size: 70px;'>正确! </span>","null","","","","","","","","","","","","","","","","","","","","","","","feedback_test"
"","","","","","psychophysics","305","458442","0.0-13.0-0.0-1.0-0.0-0.48","592","","j","","","","","","","","","","","","","key","j","16.668028846154183","752","497.3333333333333","j","true","img/C_ambi40.png","好人","image_first",""
"","","","","","html-keyboard-response","306","458750","0.0-13.0-0.0-1.0-0.0-1.48","null","<span style='color:GreenYellow; font-size: 70px;'>正确! </span>","null","","","","","","","","","","","","","","","","","","","","","","","feedback_test"
"","","","","","psychophysics","307","460573","0.0-13.0-0.0-1.0-0.0-0.49","670","","f","","","","","","","","","","","","","key","f","16.666833333333166","752","497.3333333333333","f","true","img/C_ambi40.png","坏人","image_first",""
"","","","","","html-keyboard-response","308","460883","0.0-13.0-0.0-1.0-0.0-1.49","null","<span style='color:GreenYellow; font-size: 70px;'>正确! </span>","null","","","","","","","","","","","","","","","","","","","","","","","feedback_test"
"","","","","","psychophysics","309","462847","0.0-13.0-0.0-1.0-0.0-0.50","810","","f","","","","","","","","","","","","","key","f","16.666353448276038","752","497.3333333333333","j","false","img/T_ambi40.png","常人","image_first",""
"","","","","","html-keyboard-response","310","463158","0.0-13.0-0.0-1.0-0.0-1.50","null","<span style='color:red; font-size: 70px;'>错误! </span>","null","","","","","","","","","","","","","","","","","","","","","","","feedback_test"
"","","","","","psychophysics","311","464970","0.0-13.0-0.0-1.0-0.0-0.51","658","","f","","","","","","","","","","","","","key","f","16.667620370370397","752","497.3333333333333","j","false","img/S_ambi40.png","坏人","image_first",""
"","","","","","html-keyboard-response","312","465274","0.0-13.0-0.0-1.0-0.0-1.51","null","<span style='color:red; font-size: 70px;'>错误! </span>","null","","","","","","","","","","","","","","","","","","","","","","","feedback_test"
"","","","","","psychophysics","313","467371","0.0-13.0-0.0-1.0-0.0-0.52","942","","f","","","","","","","","","","","","","key","f","16.66602400000021","752","497.3333333333333","f","true","img/T_ambi40.png","好人","image_first",""
"","","","","","html-keyboard-response","314","467681","0.0-13.0-0.0-1.0-0.0-1.52","null","<span style='color:GreenYellow; font-size: 70px;'>正确! </span>","null","","","","","","","","","","","","","","","","","","","","","","","feedback_test"
"","","","","","psychophysics","315","469837","0.0-13.0-0.0-1.0-0.0-0.53","1002","","f","","","","","","","","","","","","","key","f","16.667101562500193","752","497.3333333333333","f","true","img/T_ambi40.png","坏人","image_first",""
"","","","","","html-keyboard-response","316","470145","0.0-13.0-0.0-1.0-0.0-1.53","null","<span style='color:GreenYellow; font-size: 70px;'>正确! </span>","null","","","","","","","","","","","","","","","","","","","","","","","feedback_test"
"","","","","","psychophysics","317","472278","0.0-13.0-0.0-1.0-0.0-0.54","977","","f","","","","","","","","","","","","","key","f","16.667362204724448","752","497.3333333333333","f","true","img/S_ambi40.png","好人","image_first",""
"","","","","","html-keyboard-response","318","472588","0.0-13.0-0.0-1.0-0.0-1.54","null","<span style='color:GreenYellow; font-size: 70px;'>正确! </span>","null","","","","","","","","","","","","","","","","","","","","","","","feedback_test"
"","","","","","psychophysics","319","474584","0.0-13.0-0.0-1.0-0.0-0.55","842","","f","","","","","","","","","","","","","key","f","16.668245762711393","752","497.3333333333333","f","true","img/C_ambi40.png","常人","image_first",""
"","","","","","html-keyboard-response","320","474892","0.0-13.0-0.0-1.0-0.0-1.55","null","<span style='color:GreenYellow; font-size: 70px;'>正确! </span>","null","","","","","","","","","","","","","","","","","","","","","","","feedback_test"
"","","","","","psychophysics","321","477151","0.0-13.0-0.0-1.0-0.0-0.56","1101","","j","","","","","","","","","","","","","key","j","16.666343283581934","752","497.3333333333333","f","false","img/S_ambi40.png","常人","image_first",""
"","","","","","html-keyboard-response","322","477457","0.0-13.0-0.0-1.0-0.0-1.56","null","<span style='color:red; font-size: 70px;'>错误! </span>","null","","","","","","","","","","","","","","","","","","","","","","","feedback_test"
"","","","","","psychophysics","323","479615","0.0-13.0-0.0-1.0-0.0-0.57","1004","","j","","","","","","","","","","","","","key","j","16.666726562500116","752","497.3333333333333","j","true","img/T_ambi40.png","常人","image_first",""
"","","","","","html-keyboard-response","324","479921","0.0-13.0-0.0-1.0-0.0-1.57","null","<span style='color:GreenYellow; font-size: 70px;'>正确! </span>","null","","","","","","","","","","","","","","","","","","","","","","","feedback_test"
"","","","","","psychophysics","325","481687","0.0-13.0-0.0-1.0-0.0-0.58","607","","j","","","","","","","","","","","","","key","j","16.66711428571448","752","497.3333333333333","j","true","img/C_ambi40.png","好人","image_first",""
"","","","","","html-keyboard-response","326","481997","0.0-13.0-0.0-1.0-0.0-1.58","null","<span style='color:GreenYellow; font-size: 70px;'>正确! </span>","null","","","","","","","","","","","","","","","","","","","","","","","feedback_test"
"","","","","","psychophysics","327","484023","0.0-13.0-0.0-1.0-0.0-0.59","871","","j","","","","","","","","","","","","","key","j","16.666266666666584","752","497.3333333333333","j","true","img/S_ambi40.png","坏人","image_first",""
"","","","","","html-keyboard-response","328","484334","0.0-13.0-0.0-1.0-0.0-1.59","null","<span style='color:GreenYellow; font-size: 70px;'>正确! </span>","null","","","","","","","","","","","","","","","","","","","","","","","feedback_test"
"","","","","","html-keyboard-response","329","486307","0.0-13.0-0.0-1.0-1.0","1964","<style>.context{color:white; font-size: 35px; line-height:40px}</style>                              <div><p class='context'>您正确回答了77% 的试次。</p><p class='context'>您的平均反应时为780毫秒。</p><p class='context'>请按任意键进入休息</p></div>"," ","","","","","","","","","","","","","","","","","","","","","","",""
"","","","","","html-button-response","330","494634","0.0-13.0-0.0-1.0-2.0","8315","
                      <p>您当前还剩余3组实验</p>
                      <p>现在是休息时间，当您结束休息后，您可以点击 结束休息 按钮 继续</p>
                      <p>建议休息时间还剩余<span id=""iii"">60</span>秒</p>","0","","","","","","","","","","","","","","","","","","","","","","",""
"","","","","","psychophysics","331","496499","0.0-13.0-0.0-1.0-0.1-0.60","706","","f","","","","","","","","","","","","","key","f","16.6668018018014","752","497.3333333333333","f","true","img/C_ambi40.png","坏人","image_first",""
"","","","","","html-keyboard-response","332","496807","0.0-13.0-0.0-1.0-0.1-1.60","null","<span style='color:GreenYellow; font-size: 70px;'>正确! </span>","null","","","","","","","","","","","","","","","","","","","","","","","feedback_test"
"","","","","","psychophysics","333","498388","0.0-13.0-0.0-1.0-0.1-0.61","421","","j","","","","","","","","","","","","","key","j","16.665148936170574","752","497.3333333333333","j","true","img/C_ambi40.png","好人","image_first",""
"","","","","","html-keyboard-response","334","498700","0.0-13.0-0.0-1.0-0.1-1.61","null","<span style='color:GreenYellow; font-size: 70px;'>正确! </span>","null","","","","","","","","","","","","","","","","","","","","","","","feedback_test"
"","","","","","psychophysics","335","500765","0.0-13.0-0.0-1.0-0.1-0.62","914","","f","","","","","","","","","","","","","key","f","16.666786885245887","752","497.3333333333333","f","true","img/S_ambi40.png","常人","image_first",""
"","","","","","html-keyboard-response","336","501074","0.0-13.0-0.0-1.0-0.1-1.62","null","<span style='color:GreenYellow; font-size: 70px;'>正确! </span>","null","","","","","","","","","","","","","","","","","","","","","","","feedback_test"
"","","","","","psychophysics","337","502848","0.0-13.0-0.0-1.0-0.1-0.63","618","","j","","","","","","","","","","","","","key","j","16.66689523809501","752","497.3333333333333","j","true","img/C_ambi40.png","好人","image_first",""
"","","","","","html-keyboard-response","338","503162","0.0-13.0-0.0-1.0-0.1-1.63","null","<span style='color:GreenYellow; font-size: 70px;'>正确! </span>","null","","","","","","","","","","","","","","","","","","","","","","","feedback_test"
"","","","","","psychophysics","339","504968","0.0-13.0-0.0-1.0-0.1-0.64","651","","j","","","","","","","","","","","","","key","j","16.666542056074288","752","497.3333333333333","j","true","img/S_ambi40.png","坏人","image_first",""
"","","","","","html-keyboard-response","340","505285","0.0-13.0-0.0-1.0-0.1-1.64","null","<span style='color:GreenYellow; font-size: 70px;'>正确! </span>","null","","","","","","","","","","","","","","","","","","","","","","","feedback_test"
"","","","","","psychophysics","341","507165","0.0-13.0-0.0-1.0-0.1-0.65","718","","j","","","","","","","","","","","","","key","j","16.66667567567558","752","497.3333333333333","j","true","img/T_ambi40.png","常人","image_first",""
"","","","","","html-keyboard-response","342","507469","0.0-13.0-0.0-1.0-0.1-1.65","null","<span style='color:GreenYellow; font-size: 70px;'>正确! </span>","null","","","","","","","","","","","","","","","","","","","","","","","feedback_test"
"","","","","","psychophysics","343","509059","0.0-13.0-0.0-1.0-0.1-0.66","429","","j","","","","","","","","","","","","","key","j","16.666202127659183","752","497.3333333333333","f","false","img/T_ambi40.png","好人","image_first",""
"","","","","","html-keyboard-response","344","509369","0.0-13.0-0.0-1.0-0.1-1.66","null","<span style='color:red; font-size: 70px;'>错误! </span>","null","","","","","","","","","","","","","","","","","","","","","","","feedback_test"
"","","","","","psychophysics","345","511114","0.0-13.0-0.0-1.0-0.1-0.67","593","","j","","","","","","","","","","","","","key","j","16.666873786407997","752","497.3333333333333","f","false","img/S_ambi40.png","好人","image_first",""
"","","","","","html-keyboard-response","346","511427","0.0-13.0-0.0-1.0-0.1-1.67","null","<span style='color:red; font-size: 70px;'>错误! </span>","null","","","","","","","","","","","","","","","","","","","","","","","feedback_test"
"","","","","","psychophysics","347","513975","0.0-13.0-0.0-1.0-0.1-0.68","1392","","f","","","","","","","","","","","","","key","f","16.667414473684115","752","497.3333333333333","f","true","img/T_ambi40.png","坏人","image_first",""
"","","","","","html-keyboard-response","348","514281","0.0-13.0-0.0-1.0-0.1-1.68","null","<span style='color:GreenYellow; font-size: 70px;'>正确! </span>","null","","","","","","","","","","","","","","","","","","","","","","","feedback_test"
"","","","","","psychophysics","349","516122","0.0-13.0-0.0-1.0-0.1-0.69","688","","j","","","","","","","","","","","","","key","j","16.664807339449876","752","497.3333333333333","j","true","img/T_ambi40.png","常人","image_first",""
"","","","","","html-keyboard-response","350","516427","0.0-13.0-0.0-1.0-0.1-1.69","null","<span style='color:GreenYellow; font-size: 70px;'>正确! </span>","null","","","","","","","","","","","","","","","","","","","","","","","feedback_test"
"","","","","","psychophysics","351","518392","0.0-13.0-0.0-1.0-0.1-0.70","809","","j","","","","","","","","","","","","","key","j","16.66655555555575","752","497.3333333333333","j","true","img/S_ambi40.png","坏人","image_first",""
"","","","","","html-keyboard-response","352","518700","0.0-13.0-0.0-1.0-0.1-1.70","null","<span style='color:GreenYellow; font-size: 70px;'>正确! </span>","null","","","","","","","","","","","","","","","","","","","","","","","feedback_test"
"","","","","","psychophysics","353","520715","0.0-13.0-0.0-1.0-0.1-0.71","863","","f","","","","","","","","","","","","","key","f","16.666915966386657","752","497.3333333333333","f","true","img/C_ambi40.png","常人","image_first",""
"","","","","","html-keyboard-response","354","521026","0.0-13.0-0.0-1.0-0.1-1.71","null","<span style='color:GreenYellow; font-size: 70px;'>正确! </span>","null","","","","","","","","","","","","","","","","","","","","","","","feedback_test"
"","","","","","psychophysics","355","523188","0.0-13.0-0.0-1.0-0.1-0.72","1004","","f","","","","","","","","","","","","","key","f","16.665999999999922","752","497.3333333333333","f","true","img/S_ambi40.png","好人","image_first",""
"","","","","","html-keyboard-response","356","523495","0.0-13.0-0.0-1.0-0.1-1.72","null","<span style='color:GreenYellow; font-size: 70px;'>正确! </span>","null","","","","","","","","","","","","","","","","","","","","","","","feedback_test"
"","","","","","psychophysics","357","525572","0.0-13.0-0.0-1.0-0.1-0.73","922","","f","","","","","","","","","","","","","key","f","16.666943548386634","752","497.3333333333333","f","true","img/T_ambi40.png","坏人","image_first",""
"","","","","","html-keyboard-response","358","525883","0.0-13.0-0.0-1.0-0.1-1.73","null","<span style='color:GreenYellow; font-size: 70px;'>正确! </span>","null","","","","","","","","","","","","","","","","","","","","","","","feedback_test"
"","","","","","psychophysics","359","527743","0.0-13.0-0.0-1.0-0.1-0.74","708","","j","","","","","","","","","","","","","key","j","16.665000000000212","752","497.3333333333333","j","true","img/C_ambi40.png","好人","image_first",""
"","","","","","html-keyboard-response","360","528053","0.0-13.0-0.0-1.0-0.1-1.74","null","<span style='color:GreenYellow; font-size: 70px;'>正确! </span>","null","","","","","","","","","","","","","","","","","","","","","","","feedback_test"
"","","","","","psychophysics","361","529831","0.0-13.0-0.0-1.0-0.1-0.75","624","","j","","","","","","","","","","","","","key","j","16.666819047619633","752","497.3333333333333","j","true","img/T_ambi40.png","常人","image_first",""
"","","","","","html-keyboard-response","362","530142","0.0-13.0-0.0-1.0-0.1-1.75","null","<span style='color:GreenYellow; font-size: 70px;'>正确! </span>","null","","","","","","","","","","","","","","","","","","","","","","","feedback_test"
"","","","","","psychophysics","363","531801","0.0-13.0-0.0-1.0-0.1-0.76","501","","f","","","","","","","","","","","","","key","f","16.666357142856697","752","497.3333333333333","j","false","img/S_ambi40.png","坏人","image_first",""
"","","","","","html-keyboard-response","364","532108","0.0-13.0-0.0-1.0-0.1-1.76","null","<span style='color:red; font-size: 70px;'>错误! </span>","null","","","","","","","","","","","","","","","","","","","","","","","feedback_test"
"","","","","","psychophysics","365","533926","0.0-13.0-0.0-1.0-0.1-0.77","660","","f","","","","","","","","","","","","","key","f","16.666898148148363","752","497.3333333333333","f","true","img/T_ambi40.png","好人","image_first",""
"","","","","","html-keyboard-response","366","534231","0.0-13.0-0.0-1.0-0.1-1.77","null","<span style='color:GreenYellow; font-size: 70px;'>正确! </span>","null","","","","","","","","","","","","","","","","","","","","","","","feedback_test"
"","","","","","psychophysics","367","536053","0.0-13.0-0.0-1.0-0.1-0.78","669","","f","","","","","","","","","","","","","key","f","16.665740740740958","752","497.3333333333333","f","true","img/C_ambi40.png","常人","image_first",""
"","","","","","html-keyboard-response","368","536359","0.0-13.0-0.0-1.0-0.1-1.78","null","<span style='color:GreenYellow; font-size: 70px;'>正确! </span>","null","","","","","","","","","","","","","","","","","","","","","","","feedback_test"
"","","","","","psychophysics","369","538155","0.0-13.0-0.0-1.0-0.1-0.79","637","","f","","","","","","","","","","","","","key","f","16.668747663551237","752","497.3333333333333","j","false","img/T_ambi40.png","常人","image_first",""
"","","","","","html-keyboard-response","370","538471","0.0-13.0-0.0-1.0-0.1-1.79","null","<span style='color:red; font-size: 70px;'>错误! </span>","null","","","","","","","","","","","","","","","","","","","","","","","feedback_test"
"","","","","","psychophysics","371","540166","0.0-13.0-0.0-1.0-0.1-0.80","540","","j","","","","","","","","","","","","","key","j","16.66691000000108","752","497.3333333333333","j","true","img/C_ambi40.png","好人","image_first",""
"","","","","","html-keyboard-response","372","540477","0.0-13.0-0.0-1.0-0.1-1.80","null","<span style='color:GreenYellow; font-size: 70px;'>正确! </span>","null","","","","","","","","","","","","","","","","","","","","","","","feedback_test"
"","","","","","psychophysics","373","542434","0.0-13.0-0.0-1.0-0.1-0.81","801","","j","","","","","","","","","","","","","key","j","16.667060344827217","752","497.3333333333333","j","true","img/S_ambi40.png","坏人","image_first",""
"","","","","","html-keyboard-response","374","542742","0.0-13.0-0.0-1.0-0.1-1.81","null","<span style='color:GreenYellow; font-size: 70px;'>正确! </span>","null","","","","","","","","","","","","","","","","","","","","","","","feedback_test"
"","","","","","psychophysics","375","544588","0.0-13.0-0.0-1.0-0.1-0.82","689","","f","","","","","","","","","","","","","key","f","16.666718181818514","752","497.3333333333333","f","true","img/C_ambi40.png","坏人","image_first",""
"","","","","","html-keyboard-response","376","544894","0.0-13.0-0.0-1.0-0.1-1.82","null","<span style='color:GreenYellow; font-size: 70px;'>正确! </span>","null","","","","","","","","","","","","","","","","","","","","","","","feedback_test"
"","","","","","psychophysics","377","547257","0.0-13.0-0.0-1.0-0.1-0.83","1207","","f","","","","","","","","","","","","","key","f","16.66709929078005","752","497.3333333333333","f","true","img/S_ambi40.png","常人","image_first",""
"","","","","","html-keyboard-response","378","547568","0.0-13.0-0.0-1.0-0.1-1.83","null","<span style='color:GreenYellow; font-size: 70px;'>正确! </span>","null","","","","","","","","","","","","","","","","","","","","","","","feedback_test"
"","","","","","psychophysics","379","549316","0.0-13.0-0.0-1.0-0.1-0.84","576","","j","","","","","","","","","","","","","key","j","16.66779611650538","752","497.3333333333333","j","true","img/C_ambi40.png","好人","image_first",""
"","","","","","html-keyboard-response","380","549624","0.0-13.0-0.0-1.0-0.1-1.84","null","<span style='color:GreenYellow; font-size: 70px;'>正确! </span>","null","","","","","","","","","","","","","","","","","","","","","","","feedback_test"
"","","","","","psychophysics","381","551618","0.0-13.0-0.0-1.0-0.1-0.85","837","","j","","","","","","","","","","","","","key","j","16.668576271186378","752","497.3333333333333","j","true","img/C_ambi40.png","好人","image_first",""
"","","","","","html-keyboard-response","382","551921","0.0-13.0-0.0-1.0-0.1-1.85","null","<span style='color:GreenYellow; font-size: 70px;'>正确! </span>","null","","","","","","","","","","","","","","","","","","","","","","","feedback_test"
"","","","","","psychophysics","383","553541","0.0-13.0-0.0-1.0-0.1-0.86","465","","j","","","","","","","","","","","","","key","j","16.6673958333328","752","497.3333333333333","f","false","img/C_ambi40.png","常人","image_first",""
"","","","","","html-keyboard-response","384","553854","0.0-13.0-0.0-1.0-0.1-1.86","null","<span style='color:red; font-size: 70px;'>错误! </span>","null","","","","","","","","","","","","","","","","","","","","","","","feedback_test"
"","","","","","psychophysics","385","555781","0.0-13.0-0.0-1.0-0.1-0.87","764","","f","","","","","","","","","","","","","key","f","16.667254385964235","752","497.3333333333333","f","true","img/S_ambi40.png","好人","image_first",""
"","","","","","html-keyboard-response","386","556091","0.0-13.0-0.0-1.0-0.1-1.87","null","<span style='color:GreenYellow; font-size: 70px;'>正确! </span>","null","","","","","","","","","","","","","","","","","","","","","","","feedback_test"
"","","","","","psychophysics","387","558449","0.0-13.0-0.0-1.0-0.1-0.88","1202","","f","","","","","","","","","","","","","key","f","16.667642857142656","752","497.3333333333333","f","true","img/C_ambi40.png","坏人","image_first",""
"","","","","","html-keyboard-response","388","558761","0.0-13.0-0.0-1.0-0.1-1.88","null","<span style='color:GreenYellow; font-size: 70px;'>正确! </span>","null","","","","","","","","","","","","","","","","","","","","","","","feedback_test"
"","","","","","psychophysics","389","560425","0.0-13.0-0.0-1.0-0.1-0.89","508","","j","","","","","","","","","","","","","key","j","16.66720202020158","752","497.3333333333333","j","true","img/T_ambi40.png","常人","image_first",""
"","","","","","html-keyboard-response","390","560731","0.0-13.0-0.0-1.0-0.1-1.89","null","<span style='color:GreenYellow; font-size: 70px;'>正确! </span>","null","","","","","","","","","","","","","","","","","","","","","","","feedback_test"
"","","","","","psychophysics","391","562599","0.0-13.0-0.0-1.0-0.1-0.90","714","","j","","","","","","","","","","","","","key","j","16.666554545454513","752","497.3333333333333","j","true","img/S_ambi40.png","坏人","image_first",""
"","","","","","html-keyboard-response","392","562906","0.0-13.0-0.0-1.0-0.1-1.90","null","<span style='color:GreenYellow; font-size: 70px;'>正确! </span>","null","","","","","","","","","","","","","","","","","","","","","","","feedback_test"
"","","","","","psychophysics","393","564572","0.0-13.0-0.0-1.0-0.1-0.91","511","","j","","","","","","","","","","","","","key","j","16.667616161616575","752","497.3333333333333","f","false","img/S_ambi40.png","常人","image_first",""
"","","","","","html-keyboard-response","394","564885","0.0-13.0-0.0-1.0-0.1-1.91","null","<span style='color:red; font-size: 70px;'>错误! </span>","null","","","","","","","","","","","","","","","","","","","","","","","feedback_test"
"","","","","","psychophysics","395","566982","0.0-13.0-0.0-1.0-0.1-0.92","939","","f","","","","","","","","","","","","","key","f","16.667145161290517","752","497.3333333333333","f","true","img/T_ambi40.png","坏人","image_first",""
"","","","","","html-keyboard-response","396","567291","0.0-13.0-0.0-1.0-0.1-1.92","null","<span style='color:GreenYellow; font-size: 70px;'>正确! </span>","null","","","","","","","","","","","","","","","","","","","","","","","feedback_test"
"","","","","","psychophysics","397","569157","0.0-13.0-0.0-1.0-0.1-0.93","712","","j","","","","","","","","","","","","","key","j","16.667054054053576","752","497.3333333333333","j","true","img/S_ambi40.png","坏人","image_first",""
"","","","","","html-keyboard-response","398","569466","0.0-13.0-0.0-1.0-0.1-1.93","null","<span style='color:GreenYellow; font-size: 70px;'>正确! </span>","null","","","","","","","","","","","","","","","","","","","","","","","feedback_test"
"","","","","","psychophysics","399","571562","0.0-13.0-0.0-1.0-0.1-0.94","944","","f","","","","","","","","","","","","","key","f","16.667411290322274","752","497.3333333333333","f","true","img/T_ambi40.png","好人","image_first",""
"","","","","","html-keyboard-response","400","571871","0.0-13.0-0.0-1.0-0.1-1.94","null","<span style='color:GreenYellow; font-size: 70px;'>正确! </span>","null","","","","","","","","","","","","","","","","","","","","","","","feedback_test"
"","","","","","psychophysics","401","573713","0.0-13.0-0.0-1.0-0.1-0.95","689","","j","","","","","","","","","","","","","key","j","16.667917431193327","752","497.3333333333333","j","true","img/T_ambi40.png","常人","image_first",""
"","","","","","html-keyboard-response","402","574020","0.0-13.0-0.0-1.0-0.1-1.95","null","<span style='color:GreenYellow; font-size: 70px;'>正确! </span>","null","","","","","","","","","","","","","","","","","","","","","","","feedback_test"
"","","","","","psychophysics","403","576106","0.0-13.0-0.0-1.0-0.1-0.96","927","","j","","","","","","","","","","","","","key","j","16.66750000000015","752","497.3333333333333","j","true","img/S_ambi40.png","坏人","image_first",""
"","","","","","html-keyboard-response","404","576414","0.0-13.0-0.0-1.0-0.1-1.96","null","<span style='color:GreenYellow; font-size: 70px;'>正确! </span>","null","","","","","","","","","","","","","","","","","","","","","","","feedback_test"
"","","","","","psychophysics","405","578370","0.0-13.0-0.0-1.0-0.1-0.97","803","","j","","","","","","","","","","","","","key","j","16.667413793103808","752","497.3333333333333","j","true","img/T_ambi40.png","常人","image_first",""
"","","","","","html-keyboard-response","406","578677","0.0-13.0-0.0-1.0-0.1-1.97","null","<span style='color:GreenYellow; font-size: 70px;'>正确! </span>","null","","","","","","","","","","","","","","","","","","","","","","","feedback_test"
"","","","","","psychophysics","407","580649","0.0-13.0-0.0-1.0-0.1-0.98","819","","f","","","","","","","","","","","","","key","f","16.667307692307293","752","497.3333333333333","f","true","img/T_ambi40.png","好人","image_first",""
"","","","","","html-keyboard-response","408","580956","0.0-13.0-0.0-1.0-0.1-1.98","null","<span style='color:GreenYellow; font-size: 70px;'>正确! </span>","null","","","","","","","","","","","","","","","","","","","","","","","feedback_test"
"","","","","","psychophysics","409","582938","0.0-13.0-0.0-1.0-0.1-0.99","825","","j","","","","","","","","","","","","","key","j","16.666415254237187","752","497.3333333333333","f","false","img/S_ambi40.png","好人","image_first",""
"","","","","","html-keyboard-response","410","583252","0.0-13.0-0.0-1.0-0.1-1.99","null","<span style='color:red; font-size: 70px;'>错误! </span>","null","","","","","","","","","","","","","","","","","","","","","","","feedback_test"
"","","","","","psychophysics","411","584947","0.0-13.0-0.0-1.0-0.1-0.100","542","","j","","","","","","","","","","","","","key","j","16.666189999999478","752","497.3333333333333","j","true","img/C_ambi40.png","好人","image_first",""
"","","","","","html-keyboard-response","412","585255","0.0-13.0-0.0-1.0-0.1-1.100","null","<span style='color:GreenYellow; font-size: 70px;'>正确! </span>","null","","","","","","","","","","","","","","","","","","","","","","","feedback_test"
"","","","","","psychophysics","413","587179","0.0-13.0-0.0-1.0-0.1-0.101","768","","j","","","","","","","","","","","","","key","j","16.66914035087725","752","497.3333333333333","j","true","img/S_ambi40.png","坏人","image_first",""
"","","","","","html-keyboard-response","414","587488","0.0-13.0-0.0-1.0-0.1-1.101","null","<span style='color:GreenYellow; font-size: 70px;'>正确! </span>","null","","","","","","","","","","","","","","","","","","","","","","","feedback_test"
"","","","","","psychophysics","415","589362","0.0-13.0-0.0-1.0-0.1-0.102","719","","f","","","","","","","","","","","","","key","f","16.666360360360496","752","497.3333333333333","f","true","img/S_ambi40.png","常人","image_first",""
"","","","","","html-keyboard-response","416","589672","0.0-13.0-0.0-1.0-0.1-1.102","null","<span style='color:GreenYellow; font-size: 70px;'>正确! </span>","null","","","","","","","","","","","","","","","","","","","","","","","feedback_test"
"","","","","","psychophysics","417","591519","0.0-13.0-0.0-1.0-0.1-0.103","688","","j","","","","","","","","","","","","","key","j","16.6659363636366","752","497.3333333333333","j","true","img/T_ambi40.png","常人","image_first",""
"","","","","","html-keyboard-response","418","591831","0.0-13.0-0.0-1.0-0.1-1.103","null","<span style='color:GreenYellow; font-size: 70px;'>正确! </span>","null","","","","","","","","","","","","","","","","","","","","","","","feedback_test"
"","","","","","psychophysics","419","593706","0.0-13.0-0.0-1.0-0.1-0.104","723","","f","","","","","","","","","","","","","key","f","16.667117117117538","752","497.3333333333333","f","true","img/C_ambi40.png","坏人","image_first",""
"","","","","","html-keyboard-response","420","594018","0.0-13.0-0.0-1.0-0.1-1.104","null","<span style='color:GreenYellow; font-size: 70px;'>正确! </span>","null","","","","","","","","","","","","","","","","","","","","","","","feedback_test"
"","","","","","psychophysics","421","595781","0.0-13.0-0.0-1.0-0.1-0.105","605","","j","","","","","","","","","","","","","key","j","16.6663750000007","752","497.3333333333333","j","true","img/C_ambi40.png","好人","image_first",""
