"success","timeout","failed_images","failed_audio","failed_video","trial_type","trial_index","time_elapsed","internal_node_id","rt","stimulus","response","value","item_width_mm","item_height_mm","item_width_px","px2mm","view_dist_mm","item_width_deg","px2deg","scale_factor","win_width_deg","win_height_deg","view_history","response_type","key_press","avg_frame_time","center_x","center_y","correct_response","correct","Image","word","condition","screen_id"
"true","false","[]","[]","[]","preload","0","18167","0.0-0.0","","","","","","","","","","","","","","","","","","","","","","","","","",""
"","","","","","html-keyboard-response","1","27398","0.0-1.0","9230","
     <p>您好，欢迎参加本次实验。</p>
     <p>为充分保障您的权利，请确保您已经知晓并同意《参与实验同意书》以及《数据公开知情同意书》。</p>
     <p>如果您未见过上述内容，请咨询实验员。</p>
     <p>如果您选择继续实验，则表示您已经清楚两份知情同意书的内容并同意。</p>
     <p> <div style = ""color: green""><按任意键至下页></div> </p>
     "," ","","","","","","","","","","","","","","","","","","","","","","",""
"","","","","","html-keyboard-response","2","28398","0.0-2.0","1000","
     <p>本实验首先需要您填写一些基本个人信息。</p>
     <p> <div style = ""color: green""><按任意键至下页></div></p>
     "," ","","","","","","","","","","","","","","","","","","","","","","",""
"","","","","","call-function","3","28399","0.0-3.0-0.0","","","","","","","","","","","","","","","","","","","","","","","","","",""
"","","","","","survey-html-form","4","32585","0.0-3.0-1.0","4180","","{""Q0"":""40""}","","","","","","","","","","","","","","","","","","","","","","",""
"","","","","","html-button-response","5","34265","0.0-3.0-2.0","1679","<p style = 'color : white'>您的性别</p>","0","","","","","","","","","","","","","","","","","","","","","","",""
"","","","","","survey-html-form","6","37937","0.0-3.0-3.0","3671","","{""Q0"":""2001""}","","","","","","","","","","","","","","","","","","","","","","",""
"","","","","","survey-html-form","7","40027","0.0-3.0-4.0","2089","","{""Q0"":""5""}","","","","","","","","","","","","","","","","","","","","","","",""
"","","","","","virtual-chinrest","8","116146","0.0-4.0","76118","","","","85.6","53.98","603.6565217430337","7.053524368530914","404.73","12.073130434860676","50","0.7669924589949036","29.8","14.92","","","","","","","","","","","",""
"true","","","","","fullscreen","9","118762","0.0-5.0","","","","","","","","","","","","","","","","","","","","","","","","","",""
"","","","","","instructions","10","161922","0.0-6.0","43160","","","","","","","","","","","","","","[{""page_index"":0,""viewing_time"":5278},{""page_index"":1,""viewing_time"":28214},{""page_index"":2,""viewing_time"":7307},{""page_index"":3,""viewing_time"":2360}]","","","","","","","","","","",""
"","","","","","psychophysics","11","164502","0.0-7.0-0.0-0.0","1427","","j","","","","","","","","","","","","","key","j","16.65460389610376","768","428","j","true","img/S_ambi40.png","常人","prac_image_first",""
"","","","","","html-keyboard-response","12","164807","0.0-7.0-0.0-1.0","null","<span style='color:GreenYellow; font-size: 70px;'>正确! </span>","null","","","","","","","","","","","","","","","","","","","","","","","feedback_test"
"","","","","","psychophysics","13","166976","0.0-7.0-0.0-0.1","1016","","j","","","","","","","","","","","","","key","j","16.656738461538378","768","428","j","true","img/T_ambi40.png","好人","prac_image_first",""
"","","","","","html-keyboard-response","14","167278","0.0-7.0-0.0-1.1","null","<span style='color:GreenYellow; font-size: 70px;'>正确! </span>","null","","","","","","","","","","","","","","","","","","","","","","","feedback_test"
"","","","","","psychophysics","15","169941","0.0-7.0-0.0-0.2","null","","null","","","","","","","","","","","","","key","null","16.657126582278487","768","428","f","false","img/S_ambi40.png","好人","prac_image_first",""
"","","","","","html-keyboard-response","16","170252","0.0-7.0-0.0-1.2","null","<span class='add_' style='color:yellow; font-size: 70px;'> 太慢! </span>","null","","","","","","","","","","","","","","","","","","","","","","","feedback_test"
"","","","","","psychophysics","17","172342","0.0-7.0-0.0-0.3","930","","j","","","","","","","","","","","","","key","j","16.66404838709681","768","428","j","true","img/T_ambi40.png","坏人","prac_image_first",""
"","","","","","html-keyboard-response","18","172644","0.0-7.0-0.0-1.3","null","<span style='color:GreenYellow; font-size: 70px;'>正确! </span>","null","","","","","","","","","","","","","","","","","","","","","","","feedback_test"
"","","","","","psychophysics","19","174827","0.0-7.0-0.0-0.4","1021","","f","","","","","","","","","","","","","key","f","16.664213740458145","768","428","f","true","img/T_ambi40.png","常人","prac_image_first",""
"","","","","","html-keyboard-response","20","175141","0.0-7.0-0.0-1.4","null","<span style='color:GreenYellow; font-size: 70px;'>正确! </span>","null","","","","","","","","","","","","","","","","","","","","","","","feedback_test"
"","","","","","psychophysics","21","177455","0.0-7.0-0.0-0.5","1150","","j","","","","","","","","","","","","","key","j","16.66004379562049","768","428","j","true","img/C_ambi40.png","好人","prac_image_first",""
"","","","","","html-keyboard-response","22","177766","0.0-7.0-0.0-1.5","null","<span style='color:GreenYellow; font-size: 70px;'>正确! </span>","null","","","","","","","","","","","","","","","","","","","","","","","feedback_test"
"","","","","","psychophysics","23","179634","0.0-7.0-0.0-0.6","714","","j","","","","","","","","","","","","","key","j","16.65847747747761","768","428","f","false","img/C_ambi40.png","坏人","prac_image_first",""
"","","","","","html-keyboard-response","24","179943","0.0-7.0-0.0-1.6","null","<span style='color:red; font-size: 70px;'>错误! </span>","null","","","","","","","","","","","","","","","","","","","","","","","feedback_test"
"","","","","","psychophysics","25","181611","0.0-7.0-0.0-0.7","511","","f","","","","","","","","","","","","","key","f","16.654249999999884","768","428","f","true","img/C_ambi40.png","坏人","prac_image_first",""
"","","","","","html-keyboard-response","26","181916","0.0-7.0-0.0-1.7","null","<span style='color:GreenYellow; font-size: 70px;'>正确! </span>","null","","","","","","","","","","","","","","","","","","","","","","","feedback_test"
"","","","","","psychophysics","27","183729","0.0-7.0-0.0-0.8","657","","j","","","","","","","","","","","","","key","j","16.65874311926592","768","428","j","true","img/C_ambi40.png","常人","prac_image_first",""
"","","","","","html-keyboard-response","28","184032","0.0-7.0-0.0-1.8","null","<span style='color:GreenYellow; font-size: 70px;'>正确! </span>","null","","","","","","","","","","","","","","","","","","","","","","","feedback_test"
"","","","","","psychophysics","29","185985","0.0-7.0-0.0-0.9","798","","j","","","","","","","","","","","","","key","j","16.666672413793126","768","428","f","false","img/T_ambi40.png","常人","prac_image_first",""
"","","","","","html-keyboard-response","30","186293","0.0-7.0-0.0-1.9","null","<span style='color:red; font-size: 70px;'>错误! </span>","null","","","","","","","","","","","","","","","","","","","","","","","feedback_test"
"","","","","","psychophysics","31","188252","0.0-7.0-0.0-0.10","799","","f","","","","","","","","","","","","","key","f","16.667034188034233","768","428","f","true","img/S_ambi40.png","好人","prac_image_first",""
"","","","","","html-keyboard-response","32","188565","0.0-7.0-0.0-1.10","null","<span style='color:GreenYellow; font-size: 70px;'>正确! </span>","null","","","","","","","","","","","","","","","","","","","","","","","feedback_test"
"","","","","","psychophysics","33","190559","0.0-7.0-0.0-0.11","841","","j","","","","","","","","","","","","","key","j","16.79499159663859","768","428","j","true","img/S_ambi40.png","坏人","prac_image_first",""
"","","","","","html-keyboard-response","34","190871","0.0-7.0-0.0-1.11","null","<span style='color:GreenYellow; font-size: 70px;'>正确! </span>","null","","","","","","","","","","","","","","","","","","","","","","","feedback_test"
"","","","","","psychophysics","35","192983","0.0-7.0-0.0-0.12","956","","j","","","","","","","","","","","","","key","j","16.65456799999997","768","428","j","true","img/T_ambi40.png","好人","prac_image_first",""
"","","","","","html-keyboard-response","36","193294","0.0-7.0-0.0-1.12","null","<span style='color:GreenYellow; font-size: 70px;'>正确! </span>","null","","","","","","","","","","","","","","","","","","","","","","","feedback_test"
"","","","","","psychophysics","37","195259","0.0-7.0-0.0-0.13","809","","j","","","","","","","","","","","","","key","j","16.662745762711847","768","428","j","true","img/S_ambi40.png","坏人","prac_image_first",""
"","","","","","html-keyboard-response","38","195565","0.0-7.0-0.0-1.13","null","<span style='color:GreenYellow; font-size: 70px;'>正确! </span>","null","","","","","","","","","","","","","","","","","","","","","","","feedback_test"
"","","","","","psychophysics","39","197392","0.0-7.0-0.0-0.14","677","","f","","","","","","","","","","","","","key","f","16.527962962963134","768","428","f","true","img/C_ambi40.png","坏人","prac_image_first",""
"","","","","","html-keyboard-response","40","197702","0.0-7.0-0.0-1.14","null","<span style='color:GreenYellow; font-size: 70px;'>正确! </span>","null","","","","","","","","","","","","","","","","","","","","","","","feedback_test"
"","","","","","psychophysics","41","199848","0.0-7.0-0.0-0.15","994","","f","","","","","","","","","","","","","key","f","16.65421093750001","768","428","f","true","img/S_ambi40.png","好人","prac_image_first",""
"","","","","","html-keyboard-response","42","200155","0.0-7.0-0.0-1.15","null","<span style='color:GreenYellow; font-size: 70px;'>正确! </span>","null","","","","","","","","","","","","","","","","","","","","","","","feedback_test"
"","","","","","psychophysics","43","202087","0.0-7.0-0.0-0.16","773","","f","","","","","","","","","","","","","key","f","16.65813043478259","768","428","f","true","img/T_ambi40.png","常人","prac_image_first",""
"","","","","","html-keyboard-response","44","202400","0.0-7.0-0.0-1.16","null","<span style='color:GreenYellow; font-size: 70px;'>正确! </span>","null","","","","","","","","","","","","","","","","","","","","","","","feedback_test"
"","","","","","psychophysics","45","204300","0.0-7.0-0.0-0.17","739","","f","","","","","","","","","","","","","key","f","16.660298245613824","768","428","f","true","img/T_ambi40.png","常人","prac_image_first",""
"","","","","","html-keyboard-response","46","204611","0.0-7.0-0.0-1.17","null","<span style='color:GreenYellow; font-size: 70px;'>正确! </span>","null","","","","","","","","","","","","","","","","","","","","","","","feedback_test"
"","","","","","psychophysics","47","206384","0.0-7.0-0.0-0.18","623","","j","","","","","","","","","","","","","key","j","16.658828571428533","768","428","j","true","img/C_ambi40.png","常人","prac_image_first",""
"","","","","","html-keyboard-response","48","206697","0.0-7.0-0.0-1.18","null","<span style='color:GreenYellow; font-size: 70px;'>正确! </span>","null","","","","","","","","","","","","","","","","","","","","","","","feedback_test"
"","","","","","psychophysics","49","208532","0.0-7.0-0.0-0.19","674","","f","","","","","","","","","","","","","key","f","16.65890909090892","768","428","j","false","img/T_ambi40.png","坏人","prac_image_first",""
"","","","","","html-keyboard-response","50","208845","0.0-7.0-0.0-1.19","null","<span style='color:red; font-size: 70px;'>错误! </span>","null","","","","","","","","","","","","","","","","","","","","","","","feedback_test"
"","","","","","psychophysics","51","210716","0.0-7.0-0.0-0.20","707","","f","","","","","","","","","","","","","key","f","16.659419642857237","768","428","f","true","img/S_ambi40.png","好人","prac_image_first",""
"","","","","","html-keyboard-response","52","211019","0.0-7.0-0.0-1.20","null","<span style='color:GreenYellow; font-size: 70px;'>正确! </span>","null","","","","","","","","","","","","","","","","","","","","","","","feedback_test"
"","","","","","psychophysics","53","213140","0.0-7.0-0.0-0.21","965","","j","","","","","","","","","","","","","key","j","16.65907142857147","768","428","j","true","img/C_ambi40.png","好人","prac_image_first",""
"","","","","","html-keyboard-response","54","213451","0.0-7.0-0.0-1.21","null","<span style='color:GreenYellow; font-size: 70px;'>正确! </span>","null","","","","","","","","","","","","","","","","","","","","","","","feedback_test"
"","","","","","psychophysics","55","215365","0.0-7.0-0.0-0.22","757","","j","","","","","","","","","","","","","key","j","16.659956521739293","768","428","j","true","img/S_ambi40.png","常人","prac_image_first",""
"","","","","","html-keyboard-response","56","215668","0.0-7.0-0.0-1.22","null","<span style='color:GreenYellow; font-size: 70px;'>正确! </span>","null","","","","","","","","","","","","","","","","","","","","","","","feedback_test"
"","","","","","psychophysics","57","217684","0.0-7.0-0.0-0.23","860","","j","","","","","","","","","","","","","key","j","16.662024793388277","768","428","f","false","img/C_ambi40.png","坏人","prac_image_first",""
"","","","","","html-keyboard-response","58","217991","0.0-7.0-0.0-1.23","null","<span style='color:red; font-size: 70px;'>错误! </span>","null","","","","","","","","","","","","","","","","","","","","","","","feedback_test"
"","","","","","html-keyboard-response","59","221121","0.0-8.0","3128","<style>.context{color:white; font-size: 35px; line-height:40px}</style>                              <div><p class='context'>您正确回答了79% 的试次。</p><p class='context'>您的平均反应时为861毫秒。</p><p class='context'>恭喜您完成这一阶段的练习。按任意键进入<span style='color: yellow;'>先文字后图形条件</span>的练习。</p></div>"," ","","","","","","","","","","","","","","","","","","","","","","",""
"","","","","","psychophysics","60","223450","0.0-9.0-0.0-0.0","1172","","j","","","","","","","","","","","","","key","j","16.659536231884083","768","428","j","true","img/S_ambi40.png","常人","prac_word_first",""
"","","","","","html-keyboard-response","61","223764","0.0-9.0-0.0-1.0","null","<span style='color:GreenYellow; font-size: 70px;'>正确! </span>","null","","","","","","","","","","","","","","","","","","","","","","","feedback_test"
"","","","","","psychophysics","62","225561","0.0-9.0-0.0-0.1","645","","j","","","","","","","","","","","","","key","j","16.655185185185","768","428","f","false","img/S_ambi40.png","好人","prac_word_first",""
"","","","","","html-keyboard-response","63","225870","0.0-9.0-0.0-1.1","null","<span style='color:red; font-size: 70px;'>错误! </span>","null","","","","","","","","","","","","","","","","","","","","","","","feedback_test"
"","","","","","psychophysics","64","227875","0.0-9.0-0.0-0.2","844","","f","","","","","","","","","","","","","key","f","16.65467499999989","768","428","j","false","img/C_ambi40.png","好人","prac_word_first",""
"","","","","","html-keyboard-response","65","228189","0.0-9.0-0.0-1.2","null","<span style='color:red; font-size: 70px;'>错误! </span>","null","","","","","","","","","","","","","","","","","","","","","","","feedback_test"
"","","","","","psychophysics","66","230091","0.0-9.0-0.0-0.3","744","","f","","","","","","","","","","","","","key","f","16.654150442477828","768","428","f","true","img/S_ambi40.png","好人","prac_word_first",""
"","","","","","html-keyboard-response","67","230406","0.0-9.0-0.0-1.3","null","<span style='color:GreenYellow; font-size: 70px;'>正确! </span>","null","","","","","","","","","","","","","","","","","","","","","","","feedback_test"
"","","","","","psychophysics","68","232793","0.0-9.0-0.0-0.4","1230","","f","","","","","","","","","","","","","key","f","16.65100000000016","768","428","f","true","img/C_ambi40.png","坏人","prac_word_first",""
"","","","","","html-keyboard-response","69","233109","0.0-9.0-0.0-1.4","null","<span style='color:GreenYellow; font-size: 70px;'>正确! </span>","null","","","","","","","","","","","","","","","","","","","","","","","feedback_test"
"","","","","","psychophysics","70","235190","0.0-9.0-0.0-0.5","930","","f","","","","","","","","","","","","","key","f","16.654499999999967","768","428","f","true","img/C_ambi40.png","坏人","prac_word_first",""
"","","","","","html-keyboard-response","71","235500","0.0-9.0-0.0-1.5","null","<span style='color:GreenYellow; font-size: 70px;'>正确! </span>","null","","","","","","","","","","","","","","","","","","","","","","","feedback_test"
"","","","","","psychophysics","72","237340","0.0-9.0-0.0-0.6","675","","j","","","","","","","","","","","","","key","j","16.663509090908867","768","428","j","true","img/S_ambi40.png","坏人","prac_word_first",""
"","","","","","html-keyboard-response","73","237653","0.0-9.0-0.0-1.6","null","<span style='color:GreenYellow; font-size: 70px;'>正确! </span>","null","","","","","","","","","","","","","","","","","","","","","","","feedback_test"
"","","","","","psychophysics","74","239467","0.0-9.0-0.0-0.7","658","","j","","","","","","","","","","","","","key","j","16.6590366972479","768","428","j","true","img/C_ambi40.png","常人","prac_word_first",""
"","","","","","html-keyboard-response","75","239782","0.0-9.0-0.0-1.7","null","<span style='color:GreenYellow; font-size: 70px;'>正确! </span>","null","","","","","","","","","","","","","","","","","","","","","","","feedback_test"
"","","","","","psychophysics","76","241905","0.0-9.0-0.0-0.8","973","","j","","","","","","","","","","","","","key","j","16.665748031495973","768","428","j","true","img/T_ambi40.png","好人","prac_word_first",""
"","","","","","html-keyboard-response","77","242210","0.0-9.0-0.0-1.8","null","<span style='color:GreenYellow; font-size: 70px;'>正确! </span>","null","","","","","","","","","","","","","","","","","","","","","","","feedback_test"
"","","","","","psychophysics","78","244385","0.0-9.0-0.0-0.9","1025","","j","","","","","","","","","","","","","key","j","16.658930232557974","768","428","j","true","img/T_ambi40.png","坏人","prac_word_first",""
"","","","","","html-keyboard-response","79","244689","0.0-9.0-0.0-1.9","null","<span style='color:GreenYellow; font-size: 70px;'>正确! </span>","null","","","","","","","","","","","","","","","","","","","","","","","feedback_test"
"","","","","","psychophysics","80","246674","0.0-9.0-0.0-0.10","831","","f","","","","","","","","","","","","","key","f","16.662669491525484","768","428","f","true","img/T_ambi40.png","常人","prac_word_first",""
"","","","","","html-keyboard-response","81","246976","0.0-9.0-0.0-1.10","null","<span style='color:GreenYellow; font-size: 70px;'>正确! </span>","null","","","","","","","","","","","","","","","","","","","","","","","feedback_test"
"","","","","","psychophysics","82","248701","0.0-9.0-0.0-0.11","562","","f","","","","","","","","","","","","","key","f","16.673330097087405","768","428","f","true","img/T_ambi40.png","常人","prac_word_first",""
"","","","","","html-keyboard-response","83","249011","0.0-9.0-0.0-1.11","null","<span style='color:GreenYellow; font-size: 70px;'>正确! </span>","null","","","","","","","","","","","","","","","","","","","","","","","feedback_test"
"","","","","","psychophysics","84","250783","0.0-9.0-0.0-0.12","612","","j","","","","","","","","","","","","","key","j","16.65495283018857","768","428","j","true","img/T_ambi40.png","好人","prac_word_first",""
"","","","","","html-keyboard-response","85","251100","0.0-9.0-0.0-1.12","null","<span style='color:GreenYellow; font-size: 70px;'>正确! </span>","null","","","","","","","","","","","","","","","","","","","","","","","feedback_test"
"","","","","","psychophysics","86","253059","0.0-9.0-0.0-0.13","803","","f","","","","","","","","","","","","","key","f","16.662432203389965","768","428","f","true","img/T_ambi40.png","常人","prac_word_first",""
"","","","","","html-keyboard-response","87","253370","0.0-9.0-0.0-1.13","null","<span style='color:GreenYellow; font-size: 70px;'>正确! </span>","null","","","","","","","","","","","","","","","","","","","","","","","feedback_test"
"","","","","","psychophysics","88","255364","0.0-9.0-0.0-0.14","842","","j","","","","","","","","","","","","","key","j","16.80758823529414","768","428","j","true","img/T_ambi40.png","坏人","prac_word_first",""
"","","","","","html-keyboard-response","89","255670","0.0-9.0-0.0-1.14","null","<span style='color:GreenYellow; font-size: 70px;'>正确! </span>","null","","","","","","","","","","","","","","","","","","","","","","","feedback_test"
"","","","","","psychophysics","90","257898","0.0-9.0-0.0-0.15","1076","","j","","","","","","","","","","","","","key","j","16.661356060606053","768","428","f","false","img/T_ambi40.png","常人","prac_word_first",""
"","","","","","html-keyboard-response","91","258208","0.0-9.0-0.0-1.15","null","<span style='color:red; font-size: 70px;'>错误! </span>","null","","","","","","","","","","","","","","","","","","","","","","","feedback_test"
"","","","","","psychophysics","92","260871","0.0-9.0-0.0-0.16","null","","null","","","","","","","","","","","","","key","null","16.659518987341574","768","428","j","false","img/C_ambi40.png","好人","prac_word_first",""
"","","","","","html-keyboard-response","93","261173","0.0-9.0-0.0-1.16","null","<span class='add_' style='color:yellow; font-size: 70px;'> 太慢! </span>","null","","","","","","","","","","","","","","","","","","","","","","","feedback_test"
"","","","","","psychophysics","94","262905","0.0-9.0-0.0-0.17","574","","f","","","","","","","","","","","","","key","f","16.65931730769248","768","428","f","true","img/S_ambi40.png","好人","prac_word_first",""
"","","","","","html-keyboard-response","95","263210","0.0-9.0-0.0-1.17","null","<span style='color:GreenYellow; font-size: 70px;'>正确! </span>","null","","","","","","","","","","","","","","","","","","","","","","","feedback_test"
"","","","","","psychophysics","96","264998","0.0-9.0-0.0-0.18","631","","f","","","","","","","","","","","","","key","f","16.656669811320928","768","428","f","true","img/C_ambi40.png","坏人","prac_word_first",""
"","","","","","html-keyboard-response","97","265312","0.0-9.0-0.0-1.18","null","<span style='color:GreenYellow; font-size: 70px;'>正确! </span>","null","","","","","","","","","","","","","","","","","","","","","","","feedback_test"
"","","","","","psychophysics","98","267337","0.0-9.0-0.0-0.19","869","","f","","","","","","","","","","","","","key","f","16.656622950819255","768","428","j","false","img/S_ambi40.png","常人","prac_word_first",""
"","","","","","html-keyboard-response","99","267645","0.0-9.0-0.0-1.19","null","<span style='color:red; font-size: 70px;'>错误! </span>","null","","","","","","","","","","","","","","","","","","","","","","","feedback_test"
"","","","","","psychophysics","100","269879","0.0-9.0-0.0-0.20","1079","","j","","","","","","","","","","","","","key","j","16.657902985074514","768","428","j","true","img/S_ambi40.png","坏人","prac_word_first",""
"","","","","","html-keyboard-response","101","270188","0.0-9.0-0.0-1.20","null","<span style='color:GreenYellow; font-size: 70px;'>正确! </span>","null","","","","","","","","","","","","","","","","","","","","","","","feedback_test"
"","","","","","psychophysics","102","272060","0.0-9.0-0.0-0.21","713","","f","","","","","","","","","","","","","key","f","16.659261261261392","768","428","f","true","img/S_ambi40.png","好人","prac_word_first",""
"","","","","","html-keyboard-response","103","272366","0.0-9.0-0.0-1.21","null","<span style='color:GreenYellow; font-size: 70px;'>正确! </span>","null","","","","","","","","","","","","","","","","","","","","","","","feedback_test"
"","","","","","psychophysics","104","274348","0.0-9.0-0.0-0.22","817","","j","","","","","","","","","","","","","key","j","16.656705882353318","768","428","j","true","img/C_ambi40.png","常人","prac_word_first",""
"","","","","","html-keyboard-response","105","274656","0.0-9.0-0.0-1.22","null","<span style='color:GreenYellow; font-size: 70px;'>正确! </span>","null","","","","","","","","","","","","","","","","","","","","","","","feedback_test"
"","","","","","psychophysics","106","276659","0.0-9.0-0.0-0.23","851","","f","","","","","","","","","","","","","key","f","16.65958823529395","768","428","f","true","img/C_ambi40.png","坏人","prac_word_first",""
"","","","","","html-keyboard-response","107","276964","0.0-9.0-0.0-1.23","null","<span style='color:GreenYellow; font-size: 70px;'>正确! </span>","null","","","","","","","","","","","","","","","","","","","","","","","feedback_test"
"","","","","","html-keyboard-response","108","278738","0.0-10.0","1772","<style>.context{color:white; font-size: 35px; line-height:40px}</style>                              <div><p class='context'>您正确回答了79% 的试次。</p><p class='context'>您的平均反应时为827毫秒。</p><p class='context'>恭喜您完成练习。按任意键进入<span style='color: yellow;'>图形和文字同时呈现条件</span>的练习。</p></div>"," ","","","","","","","","","","","","","","","","","","","","","","",""
"","","","","","psychophysics","109","280697","0.0-11.0-0.0-0.0","953","","j","","","","","","","","","","","","","key","j","16.659358974358636","768","428","j","true","img/S_ambi40.png","坏人","prac_simultaneous",""
"","","","","","html-keyboard-response","110","281004","0.0-11.0-0.0-1.0","null","<span style='color:GreenYellow; font-size: 70px;'>正确! </span>","null","","","","","","","","","","","","","","","","","","","","","","","feedback_test"
"","","","","","psychophysics","111","282840","0.0-11.0-0.0-0.1","835","","f","","","","","","","","","","","","","key","f","16.658727272726935","768","428","f","true","img/T_ambi40.png","常人","prac_simultaneous",""
"","","","","","html-keyboard-response","112","283153","0.0-11.0-0.0-1.1","null","<span style='color:GreenYellow; font-size: 70px;'>正确! </span>","null","","","","","","","","","","","","","","","","","","","","","","","feedback_test"
"","","","","","psychophysics","113","285083","0.0-11.0-0.0-0.2","923","","f","","","","","","","","","","","","","key","f","16.65737391304346","768","428","f","true","img/C_ambi40.png","坏人","prac_simultaneous",""
"","","","","","html-keyboard-response","114","285389","0.0-11.0-0.0-1.2","null","<span style='color:GreenYellow; font-size: 70px;'>正确! </span>","null","","","","","","","","","","","","","","","","","","","","","","","feedback_test"
"","","","","","psychophysics","115","287796","0.0-11.0-0.0-0.3","1404","","j","","","","","","","","","","","","","key","j","16.659430555555446","768","428","j","true","img/S_ambi40.png","常人","prac_simultaneous",""
"","","","","","html-keyboard-response","116","288098","0.0-11.0-0.0-1.3","null","<span style='color:GreenYellow; font-size: 70px;'>正确! </span>","null","","","","","","","","","","","","","","","","","","","","","","","feedback_test"
"","","","","","psychophysics","117","290504","0.0-11.0-0.0-0.4","1404","","j","","","","","","","","","","","","","key","j","16.65765972222208","768","428","j","true","img/C_ambi40.png","好人","prac_simultaneous",""
"","","","","","html-keyboard-response","118","290821","0.0-11.0-0.0-1.4","null","<span style='color:GreenYellow; font-size: 70px;'>正确! </span>","null","","","","","","","","","","","","","","","","","","","","","","","feedback_test"
"","","","","","psychophysics","119","292654","0.0-11.0-0.0-0.5","830","","f","","","","","","","","","","","","","key","f","16.659541284403797","768","428","f","true","img/T_ambi40.png","常人","prac_simultaneous",""
"","","","","","html-keyboard-response","120","292967","0.0-11.0-0.0-1.5","null","<span style='color:GreenYellow; font-size: 70px;'>正确! </span>","null","","","","","","","","","","","","","","","","","","","","","","","feedback_test"
"","","","","","psychophysics","121","294816","0.0-11.0-0.0-0.6","844","","f","","","","","","","","","","","","","key","f","16.66069369369369","768","428","f","true","img/S_ambi40.png","好人","prac_simultaneous",""
"","","","","","html-keyboard-response","122","295118","0.0-11.0-0.0-1.6","null","<span style='color:GreenYellow; font-size: 70px;'>正确! </span>","null","","","","","","","","","","","","","","","","","","","","","","","feedback_test"
"","","","","","psychophysics","123","296904","0.0-11.0-0.0-0.7","782","","j","","","","","","","","","","","","","key","j","16.658457943925384","768","428","j","true","img/T_ambi40.png","好人","prac_simultaneous",""
"","","","","","html-keyboard-response","124","297220","0.0-11.0-0.0-1.7","null","<span style='color:GreenYellow; font-size: 70px;'>正确! </span>","null","","","","","","","","","","","","","","","","","","","","","","","feedback_test"
"","","","","","psychophysics","125","298968","0.0-11.0-0.0-0.8","747","","j","","","","","","","","","","","","","key","j","16.663524271844597","768","428","j","true","img/C_ambi40.png","常人","prac_simultaneous",""
"","","","","","html-keyboard-response","126","299275","0.0-11.0-0.0-1.8","null","<span style='color:GreenYellow; font-size: 70px;'>正确! </span>","null","","","","","","","","","","","","","","","","","","","","","","","feedback_test"
"","","","","","psychophysics","127","300928","0.0-11.0-0.0-0.9","644","","j","","","","","","","","","","","","","key","j","16.651111111111323","768","428","f","false","img/C_ambi40.png","坏人","prac_simultaneous",""
"","","","","","html-keyboard-response","128","301240","0.0-11.0-0.0-1.9","null","<span style='color:red; font-size: 70px;'>错误! </span>","null","","","","","","","","","","","","","","","","","","","","","","","feedback_test"
"","","","","","psychophysics","129","302930","0.0-11.0-0.0-0.10","683","","j","","","","","","","","","","","","","key","j","16.65704950495072","768","428","j","true","img/T_ambi40.png","坏人","prac_simultaneous",""
"","","","","","html-keyboard-response","130","303240","0.0-11.0-0.0-1.10","null","<span style='color:GreenYellow; font-size: 70px;'>正确! </span>","null","","","","","","","","","","","","","","","","","","","","","","","feedback_test"
"","","","","","psychophysics","131","305384","0.0-11.0-0.0-0.11","1137","","f","","","","","","","","","","","","","key","f","16.659047244094666","768","428","f","true","img/S_ambi40.png","好人","prac_simultaneous",""
"","","","","","html-keyboard-response","132","305700","0.0-11.0-0.0-1.11","null","<span style='color:GreenYellow; font-size: 70px;'>正确! </span>","null","","","","","","","","","","","","","","","","","","","","","","","feedback_test"
"","","","","","psychophysics","133","307392","0.0-11.0-0.0-0.12","690","","j","","","","","","","","","","","","","key","j","16.659340000000086","768","428","j","true","img/C_ambi40.png","常人","prac_simultaneous",""
"","","","","","html-keyboard-response","134","307703","0.0-11.0-0.0-1.12","null","<span style='color:GreenYellow; font-size: 70px;'>正确! </span>","null","","","","","","","","","","","","","","","","","","","","","","","feedback_test"
"","","","","","psychophysics","135","309689","0.0-11.0-0.0-0.13","977","","j","","","","","","","","","","","","","key","j","16.661176470588664","768","428","f","false","img/C_ambi40.png","坏人","prac_simultaneous",""
"","","","","","html-keyboard-response","136","309993","0.0-11.0-0.0-1.13","null","<span style='color:red; font-size: 70px;'>错误! </span>","null","","","","","","","","","","","","","","","","","","","","","","","feedback_test"
"","","","","","psychophysics","137","311792","0.0-11.0-0.0-0.14","798","","f","","","","","","","","","","","","","key","f","16.666777777777664","768","428","f","true","img/S_ambi40.png","好人","prac_simultaneous",""
"","","","","","html-keyboard-response","138","312108","0.0-11.0-0.0-1.14","null","<span style='color:GreenYellow; font-size: 70px;'>正确! </span>","null","","","","","","","","","","","","","","","","","","","","","","","feedback_test"
"","","","","","psychophysics","139","314046","0.0-11.0-0.0-0.15","932","","j","","","","","","","","","","","","","key","j","16.662939655172522","768","428","f","false","img/C_ambi40.png","坏人","prac_simultaneous",""
"","","","","","html-keyboard-response","140","314351","0.0-11.0-0.0-1.15","null","<span style='color:red; font-size: 70px;'>错误! </span>","null","","","","","","","","","","","","","","","","","","","","","","","feedback_test"
"","","","","","psychophysics","141","316260","0.0-11.0-0.0-0.16","908","","j","","","","","","","","","","","","","key","j","16.6595486725662","768","428","j","true","img/C_ambi40.png","好人","prac_simultaneous",""
"","","","","","html-keyboard-response","142","316570","0.0-11.0-0.0-1.16","null","<span style='color:GreenYellow; font-size: 70px;'>正确! </span>","null","","","","","","","","","","","","","","","","","","","","","","","feedback_test"
"","","","","","psychophysics","143","318450","0.0-11.0-0.0-0.17","872","","j","","","","","","","","","","","","","key","j","16.66120353982314","768","428","j","true","img/T_ambi40.png","好人","prac_simultaneous",""
"","","","","","html-keyboard-response","144","318764","0.0-11.0-0.0-1.17","null","<span style='color:GreenYellow; font-size: 70px;'>正确! </span>","null","","","","","","","","","","","","","","","","","","","","","","","feedback_test"
"","","","","","psychophysics","145","320701","0.0-11.0-0.0-0.18","924","","j","","","","","","","","","","","","","key","j","16.65445689655186","768","428","j","true","img/S_ambi40.png","坏人","prac_simultaneous",""
"","","","","","html-keyboard-response","146","321018","0.0-11.0-0.0-1.18","null","<span style='color:GreenYellow; font-size: 70px;'>正确! </span>","null","","","","","","","","","","","","","","","","","","","","","","","feedback_test"
"","","","","","psychophysics","147","322789","0.0-11.0-0.0-0.19","762","","f","","","","","","","","","","","","","key","f","16.659542857143208","768","428","f","true","img/S_ambi40.png","好人","prac_simultaneous",""
"","","","","","html-keyboard-response","148","323091","0.0-11.0-0.0-1.19","null","<span style='color:GreenYellow; font-size: 70px;'>正确! </span>","null","","","","","","","","","","","","","","","","","","","","","","","feedback_test"
"","","","","","psychophysics","149","324855","0.0-11.0-0.0-0.20","763","","j","","","","","","","","","","","","","key","j","16.65158095238065","768","428","j","true","img/S_ambi40.png","常人","prac_simultaneous",""
"","","","","","html-keyboard-response","150","325161","0.0-11.0-0.0-1.20","null","<span style='color:GreenYellow; font-size: 70px;'>正确! </span>","null","","","","","","","","","","","","","","","","","","","","","","","feedback_test"
"","","","","","psychophysics","151","327467","0.0-11.0-0.0-0.21","1303","","j","","","","","","","","","","","","","key","j","16.66576086956522","768","428","j","true","img/T_ambi40.png","坏人","prac_simultaneous",""
"","","","","","html-keyboard-response","152","327769","0.0-11.0-0.0-1.21","null","<span style='color:GreenYellow; font-size: 70px;'>正确! </span>","null","","","","","","","","","","","","","","","","","","","","","","","feedback_test"
"","","","","","psychophysics","153","329602","0.0-11.0-0.0-0.22","828","","f","","","","","","","","","","","","","key","f","16.65920183486241","768","428","f","true","img/T_ambi40.png","常人","prac_simultaneous",""
"","","","","","html-keyboard-response","154","329910","0.0-11.0-0.0-1.22","null","<span style='color:GreenYellow; font-size: 70px;'>正确! </span>","null","","","","","","","","","","","","","","","","","","","","","","","feedback_test"
"","","","","","psychophysics","155","331953","0.0-11.0-0.0-0.23","1031","","f","","","","","","","","","","","","","key","f","16.663499999999882","768","428","f","true","img/T_ambi40.png","常人","prac_simultaneous",""
"","","","","","html-keyboard-response","156","332263","0.0-11.0-0.0-1.23","null","<span style='color:GreenYellow; font-size: 70px;'>正确! </span>","null","","","","","","","","","","","","","","","","","","","","","","","feedback_test"
"","","","","","html-keyboard-response","157","336744","0.0-12.0","4480","<style>.context{color:white; font-size: 35px; line-height:40px}</style>                              <div><p class='context'>您正确回答了88% 的试次。</p><p class='context'>您的平均反应时为925毫秒。</p><p class='context'>恭喜您完成练习。按任意键进入正式实验。</p><p class='footer' style='font-size: 35px; line-height:40px;'>请在进入正式实验实验之前将您的<span style='color: lightgreen;'>食指</span>放在电脑键盘的相应键位上进行按键。</p>","j","","","","","","","","","","","","","","","","","","","","","","",""
"","","","","","html-keyboard-response","158","338259","0.0-13.0-1.0-0.0","1511","
      <p>请您将手指放在按键上，准备进入呈现顺序为<span style='color: yellow;'>先文字后图形条件</span>的正式匹配任务</p>
      <p> <div style = ""color: green""><按任意键进入下一阶段的匹配任务></div></p>
      ","j","","","","","","","","","","","","","","","","","","","","","","",""
"","","","","","psychophysics","159","340127","0.0-13.0-1.0-1.0-0.0-0.0","707","","f","","","","","","","","","","","","","key","f","16.65998198198226","768","428","f","true","img/S_ambi40.png","好人","word_first",""
"","","","","","html-keyboard-response","160","340442","0.0-13.0-1.0-1.0-0.0-1.0","null","<span style='color:GreenYellow; font-size: 70px;'>正确! </span>","null","","","","","","","","","","","","","","","","","","","","","","","feedback_test"
"","","","","","psychophysics","161","342671","0.0-13.0-1.0-1.0-0.0-0.1","1070","","f","","","","","","","","","","","","","key","f","16.659624060150236","768","428","f","true","img/C_ambi40.png","坏人","word_first",""
"","","","","","html-keyboard-response","162","342982","0.0-13.0-1.0-1.0-0.0-1.1","null","<span style='color:GreenYellow; font-size: 70px;'>正确! </span>","null","","","","","","","","","","","","","","","","","","","","","","","feedback_test"
"","","","","","psychophysics","163","344808","0.0-13.0-1.0-1.0-0.0-0.2","664","","j","","","","","","","","","","","","","key","j","16.662509259259053","768","428","j","true","img/T_ambi40.png","坏人","word_first",""
"","","","","","html-keyboard-response","164","345117","0.0-13.0-1.0-1.0-0.0-1.2","null","<span style='color:GreenYellow; font-size: 70px;'>正确! </span>","null","","","","","","","","","","","","","","","","","","","","","","","feedback_test"
"","","","","","psychophysics","165","346905","0.0-13.0-1.0-1.0-0.0-0.3","631","","j","","","","","","","","","","","","","key","j","16.665271028037463","768","428","j","true","img/T_ambi40.png","好人","word_first",""
"","","","","","html-keyboard-response","166","347216","0.0-13.0-1.0-1.0-0.0-1.3","null","<span style='color:GreenYellow; font-size: 70px;'>正确! </span>","null","","","","","","","","","","","","","","","","","","","","","","","feedback_test"
"","","","","","psychophysics","167","349087","0.0-13.0-1.0-1.0-0.0-0.4","720","","f","","","","","","","","","","","","","key","f","16.66956249999982","768","428","f","true","img/C_ambi40.png","坏人","word_first",""
"","","","","","html-keyboard-response","168","349400","0.0-13.0-1.0-1.0-0.0-1.4","null","<span style='color:GreenYellow; font-size: 70px;'>正确! </span>","null","","","","","","","","","","","","","","","","","","","","","","","feedback_test"
"","","","","","psychophysics","169","351534","0.0-13.0-1.0-1.0-0.0-0.5","978","","j","","","","","","","","","","","","","key","j","16.6601496062995","768","428","j","true","img/S_ambi40.png","常人","word_first",""
"","","","","","html-keyboard-response","170","351844","0.0-13.0-1.0-1.0-0.0-1.5","null","<span style='color:GreenYellow; font-size: 70px;'>正确! </span>","null","","","","","","","","","","","","","","","","","","","","","","","feedback_test"
"","","","","","psychophysics","171","353919","0.0-13.0-1.0-1.0-0.0-0.6","924","","f","","","","","","","","","","","","","key","f","16.551943089430623","768","428","f","true","img/T_ambi40.png","常人","word_first",""
"","","","","","html-keyboard-response","172","354226","0.0-13.0-1.0-1.0-0.0-1.6","null","<span style='color:GreenYellow; font-size: 70px;'>正确! </span>","null","","","","","","","","","","","","","","","","","","","","","","","feedback_test"
"","","","","","psychophysics","173","355953","0.0-13.0-1.0-1.0-0.0-0.7","576","","f","","","","","","","","","","","","","key","f","16.65944660194184","768","428","f","true","img/S_ambi40.png","好人","word_first",""
"","","","","","html-keyboard-response","174","356254","0.0-13.0-1.0-1.0-0.0-1.7","null","<span style='color:GreenYellow; font-size: 70px;'>正确! </span>","null","","","","","","","","","","","","","","","","","","","","","","","feedback_test"
"","","","","","psychophysics","175","358184","0.0-13.0-1.0-1.0-0.0-0.8","773","","j","","","","","","","","","","","","","key","j","16.659474137931127","768","428","j","true","img/S_ambi40.png","坏人","word_first",""
"","","","","","html-keyboard-response","176","358486","0.0-13.0-1.0-1.0-0.0-1.8","null","<span style='color:GreenYellow; font-size: 70px;'>正确! </span>","null","","","","","","","","","","","","","","","","","","","","","","","feedback_test"
"","","","","","psychophysics","177","360287","0.0-13.0-1.0-1.0-0.0-0.9","645","","f","","","","","","","","","","","","","key","f","16.659112149532383","768","428","f","true","img/T_ambi40.png","常人","word_first",""
"","","","","","html-keyboard-response","178","360602","0.0-13.0-1.0-1.0-0.0-1.9","null","<span style='color:GreenYellow; font-size: 70px;'>正确! </span>","null","","","","","","","","","","","","","","","","","","","","","","","feedback_test"
"","","","","","psychophysics","179","362393","0.0-13.0-1.0-1.0-0.0-0.10","638","","f","","","","","","","","","","","","","key","f","16.6616018518522","768","428","j","false","img/C_ambi40.png","好人","word_first",""
"","","","","","html-keyboard-response","180","362706","0.0-13.0-1.0-1.0-0.0-1.10","null","<span style='color:red; font-size: 70px;'>错误! </span>","null","","","","","","","","","","","","","","","","","","","","","","","feedback_test"
"","","","","","psychophysics","181","364437","0.0-13.0-1.0-1.0-0.0-0.11","579","","j","","","","","","","","","","","","","key","j","16.66841747572824","768","428","j","true","img/C_ambi40.png","常人","word_first",""
"","","","","","html-keyboard-response","182","364744","0.0-13.0-1.0-1.0-0.0-1.11","null","<span style='color:GreenYellow; font-size: 70px;'>正确! </span>","null","","","","","","","","","","","","","","","","","","","","","","","feedback_test"
"","","","","","psychophysics","183","366601","0.0-13.0-1.0-1.0-0.0-0.12","699","","f","","","","","","","","","","","","","key","f","16.65909090909091","768","428","f","true","img/C_ambi40.png","坏人","word_first",""
"","","","","","html-keyboard-response","184","366907","0.0-13.0-1.0-1.0-0.0-1.12","null","<span style='color:GreenYellow; font-size: 70px;'>正确! </span>","null","","","","","","","","","","","","","","","","","","","","","","","feedback_test"
"","","","","","psychophysics","185","368675","0.0-13.0-1.0-1.0-0.0-0.13","612","","f","","","","","","","","","","","","","key","f","16.658905660377744","768","428","f","true","img/S_ambi40.png","好人","word_first",""
"","","","","","html-keyboard-response","186","368986","0.0-13.0-1.0-1.0-0.0-1.13","null","<span style='color:GreenYellow; font-size: 70px;'>正确! </span>","null","","","","","","","","","","","","","","","","","","","","","","","feedback_test"
"","","","","","psychophysics","187","370775","0.0-13.0-1.0-1.0-0.0-0.14","636","","j","","","","","","","","","","","","","key","j","16.67365420560753","768","428","j","true","img/T_ambi40.png","好人","word_first",""
"","","","","","html-keyboard-response","188","371081","0.0-13.0-1.0-1.0-0.0-1.14","null","<span style='color:GreenYellow; font-size: 70px;'>正确! </span>","null","","","","","","","","","","","","","","","","","","","","","","","feedback_test"
"","","","","","psychophysics","189","372969","0.0-13.0-1.0-1.0-0.0-0.15","733","","f","","","","","","","","","","","","","key","f","16.65887499999995","768","428","f","true","img/T_ambi40.png","常人","word_first",""
"","","","","","html-keyboard-response","190","373274","0.0-13.0-1.0-1.0-0.0-1.15","null","<span style='color:GreenYellow; font-size: 70px;'>正确! </span>","null","","","","","","","","","","","","","","","","","","","","","","","feedback_test"
"","","","","","psychophysics","191","375337","0.0-13.0-1.0-1.0-0.0-0.16","904","","j","","","","","","","","","","","","","key","j","16.664112903225618","768","428","f","false","img/C_ambi40.png","坏人","word_first",""
"","","","","","html-keyboard-response","192","375641","0.0-13.0-1.0-1.0-0.0-1.16","null","<span style='color:red; font-size: 70px;'>错误! </span>","null","","","","","","","","","","","","","","","","","","","","","","","feedback_test"
"","","","","","psychophysics","193","377428","0.0-13.0-1.0-1.0-0.0-0.17","630","","f","","","","","","","","","","","","","key","f","16.659066037736164","768","428","j","false","img/S_ambi40.png","常人","word_first",""
"","","","","","html-keyboard-response","194","377739","0.0-13.0-1.0-1.0-0.0-1.17","null","<span style='color:red; font-size: 70px;'>错误! </span>","null","","","","","","","","","","","","","","","","","","","","","","","feedback_test"
"","","","","","psychophysics","195","379713","0.0-13.0-1.0-1.0-0.0-0.18","812","","f","","","","","","","","","","","","","key","f","16.659666666666517","768","428","f","true","img/S_ambi40.png","好人","word_first",""
"","","","","","html-keyboard-response","196","380018","0.0-13.0-1.0-1.0-0.0-1.18","null","<span style='color:GreenYellow; font-size: 70px;'>正确! </span>","null","","","","","","","","","","","","","","","","","","","","","","","feedback_test"
"","","","","","psychophysics","197","381879","0.0-13.0-1.0-1.0-0.0-0.19","703","","j","","","","","","","","","","","","","key","j","16.66069369369369","768","428","j","true","img/C_ambi40.png","好人","word_first",""
"","","","","","html-keyboard-response","198","382194","0.0-13.0-1.0-1.0-0.0-1.19","null","<span style='color:GreenYellow; font-size: 70px;'>正确! </span>","null","","","","","","","","","","","","","","","","","","","","","","","feedback_test"
"","","","","","psychophysics","199","384047","0.0-13.0-1.0-1.0-0.0-0.20","698","","f","","","","","","","","","","","","","key","f","16.807381818181604","768","428","f","true","img/T_ambi40.png","常人","word_first",""
"","","","","","html-keyboard-response","200","384353","0.0-13.0-1.0-1.0-0.0-1.20","null","<span style='color:GreenYellow; font-size: 70px;'>正确! </span>","null","","","","","","","","","","","","","","","","","","","","","","","feedback_test"
"","","","","","psychophysics","201","386322","0.0-13.0-1.0-1.0-0.0-0.21","808","","j","","","","","","","","","","","","","key","j","16.65527350427364","768","428","j","true","img/T_ambi40.png","坏人","word_first",""
"","","","","","html-keyboard-response","202","386632","0.0-13.0-1.0-1.0-0.0-1.21","null","<span style='color:GreenYellow; font-size: 70px;'>正确! </span>","null","","","","","","","","","","","","","","","","","","","","","","","feedback_test"
"","","","","","psychophysics","203","388423","0.0-13.0-1.0-1.0-0.0-0.22","634","","j","","","","","","","","","","","","","key","j","16.661065420560718","768","428","j","true","img/S_ambi40.png","坏人","word_first",""
"","","","","","html-keyboard-response","204","388726","0.0-13.0-1.0-1.0-0.0-1.22","null","<span style='color:GreenYellow; font-size: 70px;'>正确! </span>","null","","","","","","","","","","","","","","","","","","","","","","","feedback_test"
"","","","","","psychophysics","205","390531","0.0-13.0-1.0-1.0-0.0-0.23","652","","j","","","","","","","","","","","","","key","j","16.818787037037072","768","428","j","true","img/C_ambi40.png","常人","word_first",""
"","","","","","html-keyboard-response","206","390836","0.0-13.0-1.0-1.0-0.0-1.23","null","<span style='color:GreenYellow; font-size: 70px;'>正确! </span>","null","","","","","","","","","","","","","","","","","","","","","","","feedback_test"
"","","","","","psychophysics","207","392588","0.0-13.0-1.0-1.0-0.0-0.24","593","","f","","","","","","","","","","","","","key","f","16.655326923076736","768","428","j","false","img/T_ambi40.png","坏人","word_first",""
"","","","","","html-keyboard-response","208","392903","0.0-13.0-1.0-1.0-0.0-1.24","null","<span style='color:red; font-size: 70px;'>错误! </span>","null","","","","","","","","","","","","","","","","","","","","","","","feedback_test"
"","","","","","psychophysics","209","394841","0.0-13.0-1.0-1.0-0.0-0.25","786","","f","","","","","","","","","","","","","key","f","16.663353448276055","768","428","f","true","img/T_ambi40.png","常人","word_first",""
"","","","","","html-keyboard-response","210","395152","0.0-13.0-1.0-1.0-0.0-1.25","null","<span style='color:GreenYellow; font-size: 70px;'>正确! </span>","null","","","","","","","","","","","","","","","","","","","","","","","feedback_test"
"","","","","","psychophysics","211","397188","0.0-13.0-1.0-1.0-0.0-0.26","879","","j","","","","","","","","","","","","","key","j","16.654893442622928","768","428","j","true","img/S_ambi40.png","坏人","word_first",""
"","","","","","html-keyboard-response","212","397493","0.0-13.0-1.0-1.0-0.0-1.26","null","<span style='color:GreenYellow; font-size: 70px;'>正确! </span>","null","","","","","","","","","","","","","","","","","","","","","","","feedback_test"
"","","","","","psychophysics","213","399321","0.0-13.0-1.0-1.0-0.0-0.27","669","","f","","","","","","","","","","","","","key","f","16.653370370370492","768","428","f","true","img/S_ambi40.png","好人","word_first",""
"","","","","","html-keyboard-response","214","399623","0.0-13.0-1.0-1.0-0.0-1.27","null","<span style='color:GreenYellow; font-size: 70px;'>正确! </span>","null","","","","","","","","","","","","","","","","","","","","","","","feedback_test"
"","","","","","psychophysics","215","401579","0.0-13.0-1.0-1.0-0.0-0.28","805","","f","","","","","","","","","","","","","key","f","16.65937931034443","768","428","f","true","img/T_ambi40.png","常人","word_first",""
"","","","","","html-keyboard-response","216","401890","0.0-13.0-1.0-1.0-0.0-1.28","null","<span style='color:GreenYellow; font-size: 70px;'>正确! </span>","null","","","","","","","","","","","","","","","","","","","","","","","feedback_test"
"","","","","","psychophysics","217","403617","0.0-13.0-1.0-1.0-0.0-0.29","566","","j","","","","","","","","","","","","","key","j","16.65953921568614","768","428","j","true","img/C_ambi40.png","常人","word_first",""
"","","","","","html-keyboard-response","218","403929","0.0-13.0-1.0-1.0-0.0-1.29","null","<span style='color:GreenYellow; font-size: 70px;'>正确! </span>","null","","","","","","","","","","","","","","","","","","","","","","","feedback_test"
"","","","","","psychophysics","219","405629","0.0-13.0-1.0-1.0-0.0-0.30","546","","j","","","","","","","","","","","","","key","j","16.660931372549385","768","428","j","true","img/T_ambi40.png","好人","word_first",""
"","","","","","html-keyboard-response","220","405932","0.0-13.0-1.0-1.0-0.0-1.30","null","<span style='color:GreenYellow; font-size: 70px;'>正确! </span>","null","","","","","","","","","","","","","","","","","","","","","","","feedback_test"
"","","","","","psychophysics","221","407993","0.0-13.0-1.0-1.0-0.0-0.31","906","","j","","","","","","","","","","","","","key","j","16.661451612903377","768","428","j","true","img/S_ambi40.png","常人","word_first",""
"","","","","","html-keyboard-response","222","408302","0.0-13.0-1.0-1.0-0.0-1.31","null","<span style='color:GreenYellow; font-size: 70px;'>正确! </span>","null","","","","","","","","","","","","","","","","","","","","","","","feedback_test"
"","","","","","psychophysics","223","409926","0.0-13.0-1.0-1.0-0.0-0.32","471","","j","","","","","","","","","","","","","key","j","16.65972916666639","768","428","f","false","img/C_ambi40.png","坏人","word_first",""
"","","","","","html-keyboard-response","224","410227","0.0-13.0-1.0-1.0-0.0-1.32","null","<span style='color:red; font-size: 70px;'>错误! </span>","null","","","","","","","","","","","","","","","","","","","","","","","feedback_test"
"","","","","","psychophysics","225","412079","0.0-13.0-1.0-1.0-0.0-0.33","693","","f","","","","","","","","","","","","","key","f","16.661627272727095","768","428","f","true","img/S_ambi40.png","好人","word_first",""
"","","","","","html-keyboard-response","226","412390","0.0-13.0-1.0-1.0-0.0-1.33","null","<span style='color:GreenYellow; font-size: 70px;'>正确! </span>","null","","","","","","","","","","","","","","","","","","","","","","","feedback_test"
"","","","","","psychophysics","227","413989","0.0-13.0-1.0-1.0-0.0-0.34","448","","j","","","","","","","","","","","","","key","j","16.662687499999567","768","428","f","false","img/C_ambi40.png","坏人","word_first",""
"","","","","","html-keyboard-response","228","414292","0.0-13.0-1.0-1.0-0.0-1.34","null","<span style='color:red; font-size: 70px;'>错误! </span>","null","","","","","","","","","","","","","","","","","","","","","","","feedback_test"
"","","","","","psychophysics","229","416377","0.0-13.0-1.0-1.0-0.0-0.35","926","","f","","","","","","","","","","","","","key","f","16.664443548387123","768","428","j","false","img/C_ambi40.png","好人","word_first",""
"","","","","","html-keyboard-response","230","416685","0.0-13.0-1.0-1.0-0.0-1.35","null","<span style='color:red; font-size: 70px;'>错误! </span>","null","","","","","","","","","","","","","","","","","","","","","","","feedback_test"
"","","","","","psychophysics","231","418541","0.0-13.0-1.0-1.0-0.0-0.36","692","","j","","","","","","","","","","","","","key","j","16.661684684685078","768","428","j","true","img/T_ambi40.png","坏人","word_first",""
"","","","","","html-keyboard-response","232","418856","0.0-13.0-1.0-1.0-0.0-1.36","null","<span style='color:GreenYellow; font-size: 70px;'>正确! </span>","null","","","","","","","","","","","","","","","","","","","","","","","feedback_test"
"","","","","","psychophysics","233","420650","0.0-13.0-1.0-1.0-0.0-0.37","633","","f","","","","","","","","","","","","","key","f","16.658738317756878","768","428","f","true","img/C_ambi40.png","坏人","word_first",""
"","","","","","html-keyboard-response","234","420961","0.0-13.0-1.0-1.0-0.0-1.37","null","<span style='color:GreenYellow; font-size: 70px;'>正确! </span>","null","","","","","","","","","","","","","","","","","","","","","","","feedback_test"
"","","","","","psychophysics","235","422950","0.0-13.0-1.0-1.0-0.0-0.38","835","","f","","","","","","","","","","","","","key","f","16.797386554621568","768","428","f","true","img/S_ambi40.png","好人","word_first",""
"","","","","","html-keyboard-response","236","423264","0.0-13.0-1.0-1.0-0.0-1.38","null","<span style='color:GreenYellow; font-size: 70px;'>正确! </span>","null","","","","","","","","","","","","","","","","","","","","","","","feedback_test"
"","","","","","psychophysics","237","425001","0.0-13.0-1.0-1.0-0.0-0.39","579","","f","","","","","","","","","","","","","key","f","16.65963106796098","768","428","f","true","img/T_ambi40.png","常人","word_first",""
"","","","","","html-keyboard-response","238","425312","0.0-13.0-1.0-1.0-0.0-1.39","null","<span style='color:GreenYellow; font-size: 70px;'>正确! </span>","null","","","","","","","","","","","","","","","","","","","","","","","feedback_test"
"","","","","","psychophysics","239","427202","0.0-13.0-1.0-1.0-0.0-0.40","739","","j","","","","","","","","","","","","","key","j","16.65921428571424","768","428","j","true","img/C_ambi40.png","常人","word_first",""
"","","","","","html-keyboard-response","240","427509","0.0-13.0-1.0-1.0-0.0-1.40","null","<span style='color:GreenYellow; font-size: 70px;'>正确! </span>","null","","","","","","","","","","","","","","","","","","","","","","","feedback_test"
"","","","","","psychophysics","241","429455","0.0-13.0-1.0-1.0-0.0-0.41","793","","f","","","","","","","","","","","","","key","f","16.798543103448225","768","428","f","true","img/T_ambi40.png","常人","word_first",""
"","","","","","html-keyboard-response","242","429765","0.0-13.0-1.0-1.0-0.0-1.41","null","<span style='color:GreenYellow; font-size: 70px;'>正确! </span>","null","","","","","","","","","","","","","","","","","","","","","","","feedback_test"
"","","","","","psychophysics","243","431516","0.0-13.0-1.0-1.0-0.0-0.42","588","","j","","","","","","","","","","","","","key","j","16.659352380952","768","428","j","true","img/S_ambi40.png","常人","word_first",""
"","","","","","html-keyboard-response","244","431832","0.0-13.0-1.0-1.0-0.0-1.42","null","<span style='color:GreenYellow; font-size: 70px;'>正确! </span>","null","","","","","","","","","","","","","","","","","","","","","","","feedback_test"
"","","","","","psychophysics","245","433657","0.0-13.0-1.0-1.0-0.0-0.43","664","","f","","","","","","","","","","","","","key","f","16.652944444444277","768","428","j","false","img/C_ambi40.png","好人","word_first",""
"","","","","","html-keyboard-response","246","433962","0.0-13.0-1.0-1.0-0.0-1.43","null","<span style='color:red; font-size: 70px;'>错误! </span>","null","","","","","","","","","","","","","","","","","","","","","","","feedback_test"
"","","","","","psychophysics","247","435789","0.0-13.0-1.0-1.0-0.0-0.44","670","","j","","","","","","","","","","","","","key","j","16.66092660550483","768","428","j","true","img/T_ambi40.png","好人","word_first",""
"","","","","","html-keyboard-response","248","436105","0.0-13.0-1.0-1.0-0.0-1.44","null","<span style='color:GreenYellow; font-size: 70px;'>正确! </span>","null","","","","","","","","","","","","","","","","","","","","","","","feedback_test"
"","","","","","psychophysics","249","437919","0.0-13.0-1.0-1.0-0.0-0.45","660","","j","","","","","","","","","","","","","key","j","16.81350925925923","768","428","j","true","img/S_ambi40.png","坏人","word_first",""
"","","","","","html-keyboard-response","250","438222","0.0-13.0-1.0-1.0-0.0-1.45","null","<span style='color:GreenYellow; font-size: 70px;'>正确! </span>","null","","","","","","","","","","","","","","","","","","","","","","","feedback_test"
"","","","","","psychophysics","251","440039","0.0-13.0-1.0-1.0-0.0-0.46","665","","j","","","","","","","","","","","","","key","j","16.818416666666895","768","428","f","false","img/C_ambi40.png","坏人","word_first",""
"","","","","","html-keyboard-response","252","440344","0.0-13.0-1.0-1.0-0.0-1.46","null","<span style='color:red; font-size: 70px;'>错误! </span>","null","","","","","","","","","","","","","","","","","","","","","","","feedback_test"
"","","","","","psychophysics","253","442284","0.0-13.0-1.0-1.0-0.0-0.47","788","","f","","","","","","","","","","","","","key","f","16.664478260869384","768","428","f","true","img/S_ambi40.png","好人","word_first",""
"","","","","","html-keyboard-response","254","442599","0.0-13.0-1.0-1.0-0.0-1.47","null","<span style='color:GreenYellow; font-size: 70px;'>正确! </span>","null","","","","","","","","","","","","","","","","","","","","","","","feedback_test"
"","","","","","psychophysics","255","444644","0.0-13.0-1.0-1.0-0.0-0.48","890","","f","","","","","","","","","","","","","key","f","16.653699186992096","768","428","f","true","img/S_ambi40.png","好人","word_first",""
"","","","","","html-keyboard-response","256","444957","0.0-13.0-1.0-1.0-0.0-1.48","null","<span style='color:GreenYellow; font-size: 70px;'>正确! </span>","null","","","","","","","","","","","","","","","","","","","","","","","feedback_test"
"","","","","","psychophysics","257","446786","0.0-13.0-1.0-1.0-0.0-0.49","668","","f","","","","","","","","","","","","","key","f","16.65645370370368","768","428","f","true","img/T_ambi40.png","常人","word_first",""
"","","","","","html-keyboard-response","258","447093","0.0-13.0-1.0-1.0-0.0-1.49","null","<span style='color:GreenYellow; font-size: 70px;'>正确! </span>","null","","","","","","","","","","","","","","","","","","","","","","","feedback_test"
"","","","","","psychophysics","259","449043","0.0-13.0-1.0-1.0-0.0-0.50","789","","j","","","","","","","","","","","","","key","j","16.65339655172409","768","428","j","true","img/C_ambi40.png","常人","word_first",""
"","","","","","html-keyboard-response","260","449346","0.0-13.0-1.0-1.0-0.0-1.50","null","<span style='color:GreenYellow; font-size: 70px;'>正确! </span>","null","","","","","","","","","","","","","","","","","","","","","","","feedback_test"
"","","","","","psychophysics","261","451070","0.0-13.0-1.0-1.0-0.0-0.51","568","","f","","","","","","","","","","","","","key","f","16.66291176470558","768","428","f","true","img/C_ambi40.png","坏人","word_first",""
"","","","","","html-keyboard-response","262","451383","0.0-13.0-1.0-1.0-0.0-1.51","null","<span style='color:GreenYellow; font-size: 70px;'>正确! </span>","null","","","","","","","","","","","","","","","","","","","","","","","feedback_test"
"","","","","","psychophysics","263","453220","0.0-13.0-1.0-1.0-0.0-0.52","684","","f","","","","","","","","","","","","","key","f","16.66628181818153","768","428","f","true","img/S_ambi40.png","好人","word_first",""
"","","","","","html-keyboard-response","264","453524","0.0-13.0-1.0-1.0-0.0-1.52","null","<span style='color:GreenYellow; font-size: 70px;'>正确! </span>","null","","","","","","","","","","","","","","","","","","","","","","","feedback_test"
"","","","","","psychophysics","265","455330","0.0-13.0-1.0-1.0-0.0-0.53","651","","f","","","","","","","","","","","","","key","f","16.658271028037362","768","428","f","true","img/C_ambi40.png","坏人","word_first",""
"","","","","","html-keyboard-response","266","455641","0.0-13.0-1.0-1.0-0.0-1.53","null","<span style='color:GreenYellow; font-size: 70px;'>正确! </span>","null","","","","","","","","","","","","","","","","","","","","","","","feedback_test"
"","","","","","psychophysics","267","457363","0.0-13.0-1.0-1.0-0.0-0.54","562","","j","","","","","","","","","","","","","key","j","16.65826213592268","768","428","j","true","img/S_ambi40.png","常人","word_first",""
"","","","","","html-keyboard-response","268","457666","0.0-13.0-1.0-1.0-0.0-1.54","null","<span style='color:GreenYellow; font-size: 70px;'>正确! </span>","null","","","","","","","","","","","","","","","","","","","","","","","feedback_test"
"","","","","","psychophysics","269","459578","0.0-13.0-1.0-1.0-0.0-0.55","762","","f","","","","","","","","","","","","","key","f","16.664175438596622","768","428","f","true","img/T_ambi40.png","常人","word_first",""
"","","","","","html-keyboard-response","270","459882","0.0-13.0-1.0-1.0-0.0-1.55","null","<span style='color:GreenYellow; font-size: 70px;'>正确! </span>","null","","","","","","","","","","","","","","","","","","","","","","","feedback_test"
"","","","","","psychophysics","271","461702","0.0-13.0-1.0-1.0-0.0-0.56","662","","j","","","","","","","","","","","","","key","j","16.65253703703692","768","428","j","true","img/C_ambi40.png","好人","word_first",""
"","","","","","html-keyboard-response","272","462013","0.0-13.0-1.0-1.0-0.0-1.56","null","<span style='color:GreenYellow; font-size: 70px;'>正确! </span>","null","","","","","","","","","","","","","","","","","","","","","","","feedback_test"
"","","","","","psychophysics","273","463860","0.0-13.0-1.0-1.0-0.0-0.57","696","","j","","","","","","","","","","","","","key","j","16.655155963302853","768","428","j","true","img/S_ambi40.png","坏人","word_first",""
"","","","","","html-keyboard-response","274","464168","0.0-13.0-1.0-1.0-0.0-1.57","null","<span style='color:GreenYellow; font-size: 70px;'>正确! </span>","null","","","","","","","","","","","","","","","","","","","","","","","feedback_test"
"","","","","","psychophysics","275","466073","0.0-13.0-1.0-1.0-0.0-0.58","743","","j","","","","","","","","","","","","","key","j","16.659719298245474","768","428","j","true","img/T_ambi40.png","坏人","word_first",""
"","","","","","html-keyboard-response","276","466385","0.0-13.0-1.0-1.0-0.0-1.58","null","<span style='color:GreenYellow; font-size: 70px;'>正确! </span>","null","","","","","","","","","","","","","","","","","","","","","","","feedback_test"
"","","","","","psychophysics","277","468113","0.0-13.0-1.0-1.0-0.0-0.59","576","","j","","","","","","","","","","","","","key","j","16.65774757281574","768","428","j","true","img/T_ambi40.png","好人","word_first",""
"","","","","","html-keyboard-response","278","468414","0.0-13.0-1.0-1.0-0.0-1.59","null","<span style='color:GreenYellow; font-size: 70px;'>正确! </span>","null","","","","","","","","","","","","","","","","","","","","","","","feedback_test"
"","","","","","html-keyboard-response","279","469823","0.0-13.0-1.0-1.0-1.0","1407","<style>.context{color:white; font-size: 35px; line-height:40px}</style>                              <div><p class='context'>您正确回答了85% 的试次。</p><p class='context'>您的平均反应时为712毫秒。</p><p class='context'>请按任意键进入休息</p></div>","j","","","","","","","","","","","","","","","","","","","","","","",""
"","","","","","html-button-response","280","471701","0.0-13.0-1.0-1.0-2.0","1876","
                      <p>您当前还剩余3组实验</p>
                      <p>现在是休息时间，当您结束休息后，您可以点击 结束休息 按钮 继续</p>
                      <p>建议休息时间还剩余<span id=""iii"">60</span>秒</p>","0","","","","","","","","","","","","","","","","","","","","","","",""
"","","","","","psychophysics","281","473355","0.0-13.0-1.0-1.0-0.1-0.60","496","","j","","","","","","","","","","","","","key","j","16.65764285714249","768","428","j","true","img/S_ambi40.png","常人","word_first",""
"","","","","","html-keyboard-response","282","473660","0.0-13.0-1.0-1.0-0.1-1.60","null","<span style='color:GreenYellow; font-size: 70px;'>正确! </span>","null","","","","","","","","","","","","","","","","","","","","","","","feedback_test"
"","","","","","psychophysics","283","475754","0.0-13.0-1.0-1.0-0.1-0.61","940","","j","","","","","","","","","","","","","key","j","16.65502419354884","768","428","j","true","img/T_ambi40.png","坏人","word_first",""
"","","","","","html-keyboard-response","284","476064","0.0-13.0-1.0-1.0-0.1-1.61","null","<span style='color:GreenYellow; font-size: 70px;'>正确! </span>","null","","","","","","","","","","","","","","","","","","","","","","","feedback_test"
"","","","","","psychophysics","285","478016","0.0-13.0-1.0-1.0-0.1-0.62","793","","f","","","","","","","","","","","","","key","f","16.654336206896474","768","428","f","true","img/S_ambi40.png","好人","word_first",""
"","","","","","html-keyboard-response","286","478320","0.0-13.0-1.0-1.0-0.1-1.62","null","<span style='color:GreenYellow; font-size: 70px;'>正确! </span>","null","","","","","","","","","","","","","","","","","","","","","","","feedback_test"
"","","","","","psychophysics","287","480067","0.0-13.0-1.0-1.0-0.1-0.63","595","","j","","","","","","","","","","","","","key","j","16.55425242718436","768","428","j","true","img/T_ambi40.png","好人","word_first",""
"","","","","","html-keyboard-response","288","480381","0.0-13.0-1.0-1.0-0.1-1.63","null","<span style='color:GreenYellow; font-size: 70px;'>正确! </span>","null","","","","","","","","","","","","","","","","","","","","","","","feedback_test"
"","","","","","psychophysics","289","482104","0.0-13.0-1.0-1.0-0.1-0.64","565","","j","","","","","","","","","","","","","key","j","16.657378640776336","768","428","j","true","img/C_ambi40.png","好人","word_first",""
"","","","","","html-keyboard-response","290","482420","0.0-13.0-1.0-1.0-0.1-1.64","null","<span style='color:GreenYellow; font-size: 70px;'>正确! </span>","null","","","","","","","","","","","","","","","","","","","","","","","feedback_test"
"","","","","","psychophysics","291","484188","0.0-13.0-1.0-1.0-0.1-0.65","617","","j","","","","","","","","","","","","","key","j","16.535317307692402","768","428","j","true","img/C_ambi40.png","常人","word_first",""
"","","","","","html-keyboard-response","292","484490","0.0-13.0-1.0-1.0-0.1-1.65","null","<span style='color:GreenYellow; font-size: 70px;'>正确! </span>","null","","","","","","","","","","","","","","","","","","","","","","","feedback_test"
"","","","","","psychophysics","293","486292","0.0-13.0-1.0-1.0-0.1-0.66","644","","f","","","","","","","","","","","","","key","f","16.664370370370712","768","428","f","true","img/S_ambi40.png","好人","word_first",""
"","","","","","html-keyboard-response","294","486605","0.0-13.0-1.0-1.0-0.1-1.66","null","<span style='color:GreenYellow; font-size: 70px;'>正确! </span>","null","","","","","","","","","","","","","","","","","","","","","","","feedback_test"
"","","","","","psychophysics","295","488238","0.0-13.0-1.0-1.0-0.1-0.67","470","","j","","","","","","","","","","","","","key","j","16.6724591836736","768","428","f","false","img/C_ambi40.png","坏人","word_first",""
"","","","","","html-keyboard-response","296","488555","0.0-13.0-1.0-1.0-0.1-1.67","null","<span style='color:red; font-size: 70px;'>错误! </span>","null","","","","","","","","","","","","","","","","","","","","","","","feedback_test"
"","","","","","psychophysics","297","490295","0.0-13.0-1.0-1.0-0.1-0.68","581","","f","","","","","","","","","","","","","key","f","16.6540291262135","768","428","f","true","img/C_ambi40.png","坏人","word_first",""
"","","","","","html-keyboard-response","298","490611","0.0-13.0-1.0-1.0-0.1-1.68","null","<span style='color:GreenYellow; font-size: 70px;'>正确! </span>","null","","","","","","","","","","","","","","","","","","","","","","","feedback_test"
"","","","","","psychophysics","299","492592","0.0-13.0-1.0-1.0-0.1-0.69","825","","j","","","","","","","","","","","","","key","j","16.657218487394736","768","428","j","true","img/S_ambi40.png","坏人","word_first",""
"","","","","","html-keyboard-response","300","492899","0.0-13.0-1.0-1.0-0.1-1.69","null","<span style='color:GreenYellow; font-size: 70px;'>正确! </span>","null","","","","","","","","","","","","","","","","","","","","","","","feedback_test"
"","","","","","psychophysics","301","494792","0.0-13.0-1.0-1.0-0.1-0.70","741","","f","","","","","","","","","","","","","key","f","16.658919642857654","768","428","f","true","img/T_ambi40.png","常人","word_first",""
"","","","","","html-keyboard-response","302","495099","0.0-13.0-1.0-1.0-0.1-1.70","null","<span style='color:GreenYellow; font-size: 70px;'>正确! </span>","null","","","","","","","","","","","","","","","","","","","","","","","feedback_test"
"","","","","","psychophysics","303","497384","0.0-13.0-1.0-1.0-0.1-0.71","1134","","f","","","","","","","","","","","","","key","f","16.658529411765116","768","428","f","true","img/T_ambi40.png","常人","word_first",""
"","","","","","html-keyboard-response","304","497694","0.0-13.0-1.0-1.0-0.1-1.71","null","<span style='color:GreenYellow; font-size: 70px;'>正确! </span>","null","","","","","","","","","","","","","","","","","","","","","","","feedback_test"
"","","","","","psychophysics","305","499410","0.0-13.0-1.0-1.0-0.1-0.72","562","","f","","","","","","","","","","","","","key","f","16.666852941176188","768","428","f","true","img/C_ambi40.png","坏人","word_first",""
"","","","","","html-keyboard-response","306","499712","0.0-13.0-1.0-1.0-0.1-1.72","null","<span style='color:GreenYellow; font-size: 70px;'>正确! </span>","null","","","","","","","","","","","","","","","","","","","","","","","feedback_test"
"","","","","","psychophysics","307","501597","0.0-13.0-1.0-1.0-0.1-0.73","731","","f","","","","","","","","","","","","","key","f","16.65783185840675","768","428","f","true","img/S_ambi40.png","好人","word_first",""
"","","","","","html-keyboard-response","308","501904","0.0-13.0-1.0-1.0-0.1-1.73","null","<span style='color:GreenYellow; font-size: 70px;'>正确! </span>","null","","","","","","","","","","","","","","","","","","","","","","","feedback_test"
"","","","","","psychophysics","309","503714","0.0-13.0-1.0-1.0-0.1-0.74","652","","j","","","","","","","","","","","","","key","j","16.663192660549928","768","428","j","true","img/T_ambi40.png","好人","word_first",""
"","","","","","html-keyboard-response","310","504016","0.0-13.0-1.0-1.0-0.1-1.74","null","<span style='color:GreenYellow; font-size: 70px;'>正确! </span>","null","","","","","","","","","","","","","","","","","","","","","","","feedback_test"
"","","","","","psychophysics","311","506187","0.0-13.0-1.0-1.0-0.1-0.75","1009","","j","","","","","","","","","","","","","key","j","16.65828461538499","768","428","j","true","img/C_ambi40.png","好人","word_first",""
"","","","","","html-keyboard-response","312","506504","0.0-13.0-1.0-1.0-0.1-1.75","null","<span style='color:GreenYellow; font-size: 70px;'>正确! </span>","null","","","","","","","","","","","","","","","","","","","","","","","feedback_test"
"","","","","","psychophysics","313","508370","0.0-13.0-1.0-1.0-0.1-0.76","708","","f","","","","","","","","","","","","","key","f","16.653491071428498","768","428","f","true","img/T_ambi40.png","常人","word_first",""
"","","","","","html-keyboard-response","314","508685","0.0-13.0-1.0-1.0-0.1-1.76","null","<span style='color:GreenYellow; font-size: 70px;'>正确! </span>","null","","","","","","","","","","","","","","","","","","","","","","","feedback_test"
"","","","","","psychophysics","315","510342","0.0-13.0-1.0-1.0-0.1-0.77","500","","j","","","","","","","","","","","","","key","j","16.656938775510252","768","428","j","true","img/S_ambi40.png","坏人","word_first",""
"","","","","","html-keyboard-response","316","510649","0.0-13.0-1.0-1.0-0.1-1.77","null","<span style='color:GreenYellow; font-size: 70px;'>正确! </span>","null","","","","","","","","","","","","","","","","","","","","","","","feedback_test"
"","","","","","psychophysics","317","512395","0.0-13.0-1.0-1.0-0.1-0.78","586","","j","","","","","","","","","","","","","key","j","16.659009615384722","768","428","j","true","img/S_ambi40.png","常人","word_first",""
"","","","","","html-keyboard-response","318","512709","0.0-13.0-1.0-1.0-0.1-1.78","null","<span style='color:GreenYellow; font-size: 70px;'>正确! </span>","null","","","","","","","","","","","","","","","","","","","","","","","feedback_test"
"","","","","","psychophysics","319","514425","0.0-13.0-1.0-1.0-0.1-0.79","558","","j","","","","","","","","","","","","","key","j","16.657504854368913","768","428","j","true","img/C_ambi40.png","常人","word_first",""
"","","","","","html-keyboard-response","320","514731","0.0-13.0-1.0-1.0-0.1-1.79","null","<span style='color:GreenYellow; font-size: 70px;'>正确! </span>","null","","","","","","","","","","","","","","","","","","","","","","","feedback_test"
"","","","","","psychophysics","321","516603","0.0-13.0-1.0-1.0-0.1-0.80","717","","j","","","","","","","","","","","","","key","j","16.65084821428588","768","428","j","true","img/T_ambi40.png","坏人","word_first",""
"","","","","","html-keyboard-response","322","516904","0.0-13.0-1.0-1.0-0.1-1.80","null","<span style='color:GreenYellow; font-size: 70px;'>正确! </span>","null","","","","","","","","","","","","","","","","","","","","","","","feedback_test"
"","","","","","psychophysics","323","518747","0.0-13.0-1.0-1.0-0.1-0.81","691","","f","","","","","","","","","","","","","key","f","16.5423394495412","768","428","f","true","img/T_ambi40.png","常人","word_first",""
"","","","","","html-keyboard-response","324","519056","0.0-13.0-1.0-1.0-0.1-1.81","null","<span style='color:GreenYellow; font-size: 70px;'>正确! </span>","null","","","","","","","","","","","","","","","","","","","","","","","feedback_test"
"","","","","","psychophysics","325","521245","0.0-13.0-1.0-1.0-0.1-0.82","1031","","j","","","","","","","","","","","","","key","j","16.66044274809191","768","428","f","false","img/C_ambi40.png","坏人","word_first",""
"","","","","","html-keyboard-response","326","521548","0.0-13.0-1.0-1.0-0.1-1.82","null","<span style='color:red; font-size: 70px;'>错误! </span>","null","","","","","","","","","","","","","","","","","","","","","","","feedback_test"
"","","","","","psychophysics","327","523451","0.0-13.0-1.0-1.0-0.1-0.83","748","","f","","","","","","","","","","","","","key","f","16.65813274336237","768","428","f","true","img/S_ambi40.png","好人","word_first",""
"","","","","","html-keyboard-response","328","523762","0.0-13.0-1.0-1.0-0.1-1.83","null","<span style='color:GreenYellow; font-size: 70px;'>正确! </span>","null","","","","","","","","","","","","","","","","","","","","","","","feedback_test"
"","","","","","psychophysics","329","525512","0.0-13.0-1.0-1.0-0.1-0.84","597","","f","","","","","","","","","","","","","key","f","16.655519230769222","768","428","f","true","img/T_ambi40.png","常人","word_first",""
"","","","","","html-keyboard-response","330","525822","0.0-13.0-1.0-1.0-0.1-1.84","null","<span style='color:GreenYellow; font-size: 70px;'>正确! </span>","null","","","","","","","","","","","","","","","","","","","","","","","feedback_test"
"","","","","","psychophysics","331","527557","0.0-13.0-1.0-1.0-0.1-0.85","578","","f","","","","","","","","","","","","","key","f","16.655317307691664","768","428","f","true","img/S_ambi40.png","好人","word_first",""
"","","","","","html-keyboard-response","332","527868","0.0-13.0-1.0-1.0-0.1-1.85","null","<span style='color:GreenYellow; font-size: 70px;'>正确! </span>","null","","","","","","","","","","","","","","","","","","","","","","","feedback_test"
"","","","","","psychophysics","333","529590","0.0-13.0-1.0-1.0-0.1-0.86","572","","j","","","","","","","","","","","","","key","j","16.65922549019645","768","428","j","true","img/T_ambi40.png","好人","word_first",""
"","","","","","html-keyboard-response","334","529901","0.0-13.0-1.0-1.0-0.1-1.86","null","<span style='color:GreenYellow; font-size: 70px;'>正确! </span>","null","","","","","","","","","","","","","","","","","","","","","","","feedback_test"
"","","","","","psychophysics","335","531718","0.0-13.0-1.0-1.0-0.1-0.87","663","","f","","","","","","","","","","","","","key","f","16.658750000000172","768","428","f","true","img/T_ambi40.png","常人","word_first",""
"","","","","","html-keyboard-response","336","532025","0.0-13.0-1.0-1.0-0.1-1.87","null","<span style='color:GreenYellow; font-size: 70px;'>正确! </span>","null","","","","","","","","","","","","","","","","","","","","","","","feedback_test"
"","","","","","psychophysics","337","533714","0.0-13.0-1.0-1.0-0.1-0.88","537","","j","","","","","","","","","","","","","key","j","16.664009900989544","768","428","j","true","img/S_ambi40.png","常人","word_first",""
"","","","","","html-keyboard-response","338","534023","0.0-13.0-1.0-1.0-0.1-1.88","null","<span style='color:GreenYellow; font-size: 70px;'>正确! </span>","null","","","","","","","","","","","","","","","","","","","","","","","feedback_test"
"","","","","","psychophysics","339","535790","0.0-13.0-1.0-1.0-0.1-0.89","612","","j","","","","","","","","","","","","","key","j","16.653780952380927","768","428","j","true","img/C_ambi40.png","常人","word_first",""
"","","","","","html-keyboard-response","340","536091","0.0-13.0-1.0-1.0-0.1-1.89","null","<span style='color:GreenYellow; font-size: 70px;'>正确! </span>","null","","","","","","","","","","","","","","","","","","","","","","","feedback_test"
"","","","","","psychophysics","341","538025","0.0-13.0-1.0-1.0-0.1-0.90","778","","j","","","","","","","","","","","","","key","j","16.661396551724717","768","428","j","true","img/C_ambi40.png","好人","word_first",""
"","","","","","html-keyboard-response","342","538337","0.0-13.0-1.0-1.0-0.1-1.90","null","<span style='color:GreenYellow; font-size: 70px;'>正确! </span>","null","","","","","","","","","","","","","","","","","","","","","","","feedback_test"
"","","","","","psychophysics","343","540015","0.0-13.0-1.0-1.0-0.1-0.91","524","","j","","","","","","","","","","","","","key","j","16.655749999999536","768","428","f","false","img/C_ambi40.png","坏人","word_first",""
"","","","","","html-keyboard-response","344","540327","0.0-13.0-1.0-1.0-0.1-1.91","null","<span style='color:red; font-size: 70px;'>错误! </span>","null","","","","","","","","","","","","","","","","","","","","","","","feedback_test"
"","","","","","psychophysics","345","542089","0.0-13.0-1.0-1.0-0.1-0.92","610","","j","","","","","","","","","","","","","key","j","16.664628571428224","768","428","j","true","img/S_ambi40.png","坏人","word_first",""
"","","","","","html-keyboard-response","346","542391","0.0-13.0-1.0-1.0-0.1-1.92","null","<span style='color:GreenYellow; font-size: 70px;'>正确! </span>","null","","","","","","","","","","","","","","","","","","","","","","","feedback_test"
"","","","","","psychophysics","347","544239","0.0-13.0-1.0-1.0-0.1-0.93","694","","j","","","","","","","","","","","","","key","j","16.662603603603596","768","428","j","true","img/T_ambi40.png","坏人","word_first",""
"","","","","","html-keyboard-response","348","544541","0.0-13.0-1.0-1.0-0.1-1.93","null","<span style='color:GreenYellow; font-size: 70px;'>正确! </span>","null","","","","","","","","","","","","","","","","","","","","","","","feedback_test"
"","","","","","psychophysics","349","546288","0.0-13.0-1.0-1.0-0.1-0.94","594","","f","","","","","","","","","","","","","key","f","16.661317307692325","768","428","f","true","img/C_ambi40.png","坏人","word_first",""
"","","","","","html-keyboard-response","350","546599","0.0-13.0-1.0-1.0-0.1-1.94","null","<span style='color:GreenYellow; font-size: 70px;'>正确! </span>","null","","","","","","","","","","","","","","","","","","","","","","","feedback_test"
"","","","","","psychophysics","351","548354","0.0-13.0-1.0-1.0-0.1-0.95","602","","f","","","","","","","","","","","","","key","f","16.65477142857188","768","428","f","true","img/S_ambi40.png","好人","word_first",""
"","","","","","html-keyboard-response","352","548656","0.0-13.0-1.0-1.0-0.1-1.95","null","<span style='color:GreenYellow; font-size: 70px;'>正确! </span>","null","","","","","","","","","","","","","","","","","","","","","","","feedback_test"
"","","","","","psychophysics","353","550552","0.0-13.0-1.0-1.0-0.1-0.96","743","","j","","","","","","","","","","","","","key","j","16.541883928572393","768","428","j","true","img/C_ambi40.png","好人","word_first",""
"","","","","","html-keyboard-response","354","550858","0.0-13.0-1.0-1.0-0.1-1.96","null","<span style='color:GreenYellow; font-size: 70px;'>正确! </span>","null","","","","","","","","","","","","","","","","","","","","","","","feedback_test"
"","","","","","psychophysics","355","552715","0.0-13.0-1.0-1.0-0.1-0.97","706","","j","","","","","","","","","","","","","key","j","16.659027272727425","768","428","j","true","img/S_ambi40.png","常人","word_first",""
"","","","","","html-keyboard-response","356","553016","0.0-13.0-1.0-1.0-0.1-1.97","null","<span style='color:GreenYellow; font-size: 70px;'>正确! </span>","null","","","","","","","","","","","","","","","","","","","","","","","feedback_test"
"","","","","","psychophysics","357","554672","0.0-13.0-1.0-1.0-0.1-0.98","501","","j","","","","","","","","","","","","","key","j","16.65403061224461","768","428","f","false","img/T_ambi40.png","常人","word_first",""
"","","","","","html-keyboard-response","358","554973","0.0-13.0-1.0-1.0-0.1-1.98","null","<span style='color:red; font-size: 70px;'>错误! </span>","null","","","","","","","","","","","","","","","","","","","","","","","feedback_test"
"","","","","","psychophysics","359","556650","0.0-13.0-1.0-1.0-0.1-0.99","527","","f","","","","","","","","","","","","","key","f","16.662656565656594","768","428","f","true","img/C_ambi40.png","坏人","word_first",""
"","","","","","html-keyboard-response","360","556957","0.0-13.0-1.0-1.0-0.1-1.99","null","<span style='color:GreenYellow; font-size: 70px;'>正确! </span>","null","","","","","","","","","","","","","","","","","","","","","","","feedback_test"
"","","","","","psychophysics","361","558870","0.0-13.0-1.0-1.0-0.1-0.100","752","","f","","","","","","","","","","","","","key","f","16.65907079645997","768","428","f","true","img/C_ambi40.png","坏人","word_first",""
"","","","","","html-keyboard-response","362","559182","0.0-13.0-1.0-1.0-0.1-1.100","null","<span style='color:GreenYellow; font-size: 70px;'>正确! </span>","null","","","","","","","","","","","","","","","","","","","","","","","feedback_test"
"","","","","","psychophysics","363","560835","0.0-13.0-1.0-1.0-0.1-0.101","497","","f","","","","","","","","","","","","","key","f","16.65678787878785","768","428","f","true","img/S_ambi40.png","好人","word_first",""
"","","","","","html-keyboard-response","364","561146","0.0-13.0-1.0-1.0-0.1-1.101","null","<span style='color:GreenYellow; font-size: 70px;'>正确! </span>","null","","","","","","","","","","","","","","","","","","","","","","","feedback_test"
"","","","","","psychophysics","365","562859","0.0-13.0-1.0-1.0-0.1-0.102","557","","f","","","","","","","","","","","","","key","f","16.659892156862828","768","428","f","true","img/T_ambi40.png","常人","word_first",""
"","","","","","html-keyboard-response","366","563166","0.0-13.0-1.0-1.0-0.1-1.102","null","<span style='color:GreenYellow; font-size: 70px;'>正确! </span>","null","","","","","","","","","","","","","","","","","","","","","","","feedback_test"
"","","","","","psychophysics","367","564942","0.0-13.0-1.0-1.0-0.1-0.103","623","","j","","","","","","","","","","","","","key","j","16.665292452829714","768","428","j","true","img/T_ambi40.png","好人","word_first",""
"","","","","","html-keyboard-response","368","565248","0.0-13.0-1.0-1.0-0.1-1.103","null","<span style='color:GreenYellow; font-size: 70px;'>正确! </span>","null","","","","","","","","","","","","","","","","","","","","","","","feedback_test"
"","","","","","psychophysics","369","567183","0.0-13.0-1.0-1.0-0.1-0.104","781","","j","","","","","","","","","","","","","key","j","16.665775862068806","768","428","j","true","img/T_ambi40.png","坏人","word_first",""
"","","","","","html-keyboard-response","370","567493","0.0-13.0-1.0-1.0-0.1-1.104","null","<span style='color:GreenYellow; font-size: 70px;'>正确! </span>","null","","","","","","","","","","","","","","","","","","","","","","","feedback_test"
"","","","","","psychophysics","371","569276","0.0-13.0-1.0-1.0-0.1-0.105","625","","f","","","","","","","","","","","","","key","f","16.659254716980527","768","428","f","true","img/S_ambi40.png","好人","word_first",""
"","","","","","html-keyboard-response","372","569587","0.0-13.0-1.0-1.0-0.1-1.105","null","<span style='color:GreenYellow; font-size: 70px;'>正确! </span>","null","","","","","","","","","","","","","","","","","","","","","","","feedback_test"
"","","","","","psychophysics","373","571285","0.0-13.0-1.0-1.0-0.1-0.106","535","","j","","","","","","","","","","","","","key","j","16.656754901960227","768","428","j","true","img/C_ambi40.png","常人","word_first",""
"","","","","","html-keyboard-response","374","571592","0.0-13.0-1.0-1.0-0.1-1.106","null","<span style='color:GreenYellow; font-size: 70px;'>正确! </span>","null","","","","","","","","","","","","","","","","","","","","","","","feedback_test"
"","","","","","psychophysics","375","573771","0.0-13.0-1.0-1.0-0.1-0.107","1021","","j","","","","","","","","","","","","","key","j","16.660769230768516","768","428","j","true","img/S_ambi40.png","坏人","word_first",""
"","","","","","html-keyboard-response","376","574079","0.0-13.0-1.0-1.0-0.1-1.107","null","<span style='color:GreenYellow; font-size: 70px;'>正确! </span>","null","","","","","","","","","","","","","","","","","","","","","","","feedback_test"
"","","","","","psychophysics","377","575953","0.0-13.0-1.0-1.0-0.1-0.108","723","","f","","","","","","","","","","","","","key","f","16.800026785714312","768","428","f","true","img/S_ambi40.png","好人","word_first",""
"","","","","","html-keyboard-response","378","576264","0.0-13.0-1.0-1.0-0.1-1.108","null","<span style='color:GreenYellow; font-size: 70px;'>正确! </span>","null","","","","","","","","","","","","","","","","","","","","","","","feedback_test"
"","","","","","psychophysics","379","578440","0.0-13.0-1.0-1.0-0.1-0.109","1019","","j","","","","","","","","","","","","","key","j","16.666930769230778","768","428","j","true","img/C_ambi40.png","好人","word_first",""
"","","","","","html-keyboard-response","380","578751","0.0-13.0-1.0-1.0-0.1-1.109","null","<span style='color:GreenYellow; font-size: 70px;'>正确! </span>","null","","","","","","","","","","","","","","","","","","","","","","","feedback_test"
"","","","","","psychophysics","381","581001","0.0-13.0-1.0-1.0-0.1-0.110","1095","","f","","","","","","","","","","","","","key","f","16.659059701492634","768","428","f","true","img/C_ambi40.png","坏人","word_first",""
"","","","","","html-keyboard-response","382","581313","0.0-13.0-1.0-1.0-0.1-1.110","null","<span style='color:GreenYellow; font-size: 70px;'>正确! </span>","null","","","","","","","","","","","","","","","","","","","","","","","feedback_test"
"","","","","","psychophysics","383","583247","0.0-13.0-1.0-1.0-0.1-0.111","770","","j","","","","","","","","","","","","","key","j","16.65975862068971","768","428","f","false","img/C_ambi40.png","坏人","word_first",""
"","","","","","html-keyboard-response","384","583557","0.0-13.0-1.0-1.0-0.1-1.111","null","<span style='color:red; font-size: 70px;'>错误! </span>","null","","","","","","","","","","","","","","","","","","","","","","","feedback_test"
"","","","","","psychophysics","385","585334","0.0-13.0-1.0-1.0-0.1-0.112","624","","j","","","","","","","","","","","","","key","j","16.666358490566775","768","428","j","true","img/T_ambi40.png","坏人","word_first",""
"","","","","","html-keyboard-response","386","585636","0.0-13.0-1.0-1.0-0.1-1.112","null","<span style='color:GreenYellow; font-size: 70px;'>正确! </span>","null","","","","","","","","","","","","","","","","","","","","","","","feedback_test"
"","","","","","psychophysics","387","587313","0.0-13.0-1.0-1.0-0.1-0.113","520","","f","","","","","","","","","","","","","key","f","16.659425742573816","768","428","f","true","img/T_ambi40.png","常人","word_first",""
"","","","","","html-keyboard-response","388","587628","0.0-13.0-1.0-1.0-0.1-1.113","null","<span style='color:GreenYellow; font-size: 70px;'>正确! </span>","null","","","","","","","","","","","","","","","","","","","","","","","feedback_test"
"","","","","","psychophysics","389","589344","0.0-13.0-1.0-1.0-0.1-0.114","556","","f","","","","","","","","","","","","","key","f","16.653262135923107","768","428","f","true","img/S_ambi40.png","好人","word_first",""
"","","","","","html-keyboard-response","390","589646","0.0-13.0-1.0-1.0-0.1-1.114","null","<span style='color:GreenYellow; font-size: 70px;'>正确! </span>","null","","","","","","","","","","","","","","","","","","","","","","","feedback_test"
"","","","","","psychophysics","391","591480","0.0-13.0-1.0-1.0-0.1-0.115","680","","j","","","","","","","","","","","","","key","j","16.664577981651497","768","428","j","true","img/T_ambi40.png","好人","word_first",""
"","","","","","html-keyboard-response","392","591790","0.0-13.0-1.0-1.0-0.1-1.115","null","<span style='color:GreenYellow; font-size: 70px;'>正确! </span>","null","","","","","","","","","","","","","","","","","","","","","","","feedback_test"
"","","","","","psychophysics","393","593698","0.0-13.0-1.0-1.0-0.1-0.116","756","","j","","","","","","","","","","","","","key","j","16.660150442477438","768","428","j","true","img/S_ambi40.png","坏人","word_first",""
"","","","","","html-keyboard-response","394","594002","0.0-13.0-1.0-1.0-0.1-1.116","null","<span style='color:GreenYellow; font-size: 70px;'>正确! </span>","null","","","","","","","","","","","","","","","","","","","","","","","feedback_test"
"","","","","","psychophysics","395","595717","0.0-13.0-1.0-1.0-0.1-0.117","560","","j","","","","","","","","","","","","","key","j","16.663233009709533","768","428","j","true","img/C_ambi40.png","常人","word_first",""
"","","","","","html-keyboard-response","396","596022","0.0-13.0-1.0-1.0-0.1-1.117","null","<span style='color:GreenYellow; font-size: 70px;'>正确! </span>","null","","","","","","","","","","","","","","","","","","","","","","","feedback_test"
"","","","","","psychophysics","397","598034","0.0-13.0-1.0-1.0-0.1-0.118","862","","f","","","","","","","","","","","","","key","f","16.66154621848778","768","428","f","true","img/T_ambi40.png","常人","word_first",""
"","","","","","html-keyboard-response","398","598341","0.0-13.0-1.0-1.0-0.1-1.118","null","<span style='color:GreenYellow; font-size: 70px;'>正确! </span>","null","","","","","","","","","","","","","","","","","","","","","","","feedback_test"
"","","","","","psychophysics","399","600093","0.0-13.0-1.0-1.0-0.1-0.119","594","","j","","","","","","","","","","","","","key","j","16.659298076922333","768","428","j","true","img/S_ambi40.png","常人","word_first",""
"","","","","","html-keyboard-response","400","600408","0.0-13.0-1.0-1.0-0.1-1.119","null","<span style='color:GreenYellow; font-size: 70px;'>正确! </span>","null","","","","","","","","","","","","","","","","","","","","","","","feedback_test"
"","","","","","html-keyboard-response","401","602358","0.0-13.0-1.0-1.0-1.1","1948","<style>.context{color:white; font-size: 35px; line-height:40px}</style>                              <div><p class='context'>您正确回答了92% 的试次。</p><p class='context'>您的平均反应时为683毫秒。</p><p class='context'>请按任意键进入休息</p></div>"," ","","","","","","","","","","","","","","","","","","","","","","",""
"","","","","","html-button-response","402","678591","0.0-13.0-1.0-1.0-2.1","76230","
                      <p>您当前还剩余2组实验</p>
                      <p>现在是休息时间，当您结束休息后，您可以点击 结束休息 按钮 继续</p>
                      <p>建议休息时间还剩余<span id=""iii"">60</span>秒</p>","0","","","","","","","","","","","","","","","","","","","","","","",""
"","","","","","psychophysics","403","680450","0.0-13.0-1.0-1.0-0.2-0.120","699","","j","","","","","","","","","","","","","key","j","16.661790909091096","768","428","j","true","img/C_ambi40.png","好人","word_first",""
"","","","","","html-keyboard-response","404","680757","0.0-13.0-1.0-1.0-0.2-1.120","null","<span style='color:GreenYellow; font-size: 70px;'>正确! </span>","null","","","","","","","","","","","","","","","","","","","","","","","feedback_test"
"","","","","","psychophysics","405","682432","0.0-13.0-1.0-1.0-0.2-0.121","515","","f","","","","","","","","","","","","","key","f","16.656272727272924","768","428","f","true","img/T_ambi40.png","常人","word_first",""
"","","","","","html-keyboard-response","406","682733","0.0-13.0-1.0-1.0-0.2-1.121","null","<span style='color:GreenYellow; font-size: 70px;'>正确! </span>","null","","","","","","","","","","","","","","","","","","","","","","","feedback_test"
"","","","","","psychophysics","407","684401","0.0-13.0-1.0-1.0-0.2-0.122","507","","j","","","","","","","","","","","","","key","j","16.66170000000042","768","428","j","true","img/T_ambi40.png","好人","word_first",""
"","","","","","html-keyboard-response","408","684709","0.0-13.0-1.0-1.0-0.2-1.122","null","<span style='color:GreenYellow; font-size: 70px;'>正确! </span>","null","","","","","","","","","","","","","","","","","","","","","","","feedback_test"
"","","","","","psychophysics","409","686361","0.0-13.0-1.0-1.0-0.2-0.123","495","","j","","","","","","","","","","","","","key","j","16.66540404040404","768","428","j","true","img/C_ambi40.png","常人","word_first",""
"","","","","","html-keyboard-response","410","686673","0.0-13.0-1.0-1.0-0.2-1.123","null","<span style='color:GreenYellow; font-size: 70px;'>正确! </span>","null","","","","","","","","","","","","","","","","","","","","","","","feedback_test"
"","","","","","psychophysics","411","688524","0.0-13.0-1.0-1.0-0.2-0.124","693","","j","","","","","","","","","","","","","key","j","16.66077477477495","768","428","j","true","img/T_ambi40.png","坏人","word_first",""
"","","","","","html-keyboard-response","412","688836","0.0-13.0-1.0-1.0-0.2-1.124","null","<span style='color:GreenYellow; font-size: 70px;'>正确! </span>","null","","","","","","","","","","","","","","","","","","","","","","","feedback_test"
"","","","","","psychophysics","413","690439","0.0-13.0-1.0-1.0-0.2-0.125","447","","j","","","","","","","","","","","","","key","j","16.665406249999553","768","428","f","false","img/S_ambi40.png","好人","word_first",""
"","","","","","html-keyboard-response","414","690746","0.0-13.0-1.0-1.0-0.2-1.125","null","<span style='color:red; font-size: 70px;'>错误! </span>","null","","","","","","","","","","","","","","","","","","","","","","","feedback_test"
"","","","","","psychophysics","415","692948","0.0-13.0-1.0-1.0-0.2-0.126","1039","","f","","","","","","","","","","","","","key","f","16.66250381679434","768","428","f","true","img/C_ambi40.png","坏人","word_first",""
"","","","","","html-keyboard-response","416","693258","0.0-13.0-1.0-1.0-0.2-1.126","null","<span style='color:GreenYellow; font-size: 70px;'>正确! </span>","null","","","","","","","","","","","","","","","","","","","","","","","feedback_test"
"","","","","","psychophysics","417","694957","0.0-13.0-1.0-1.0-0.2-0.127","545","","f","","","","","","","","","","","","","key","f","16.6602745098039","768","428","f","true","img/T_ambi40.png","常人","word_first",""
"","","","","","html-keyboard-response","418","695267","0.0-13.0-1.0-1.0-0.2-1.127","null","<span style='color:GreenYellow; font-size: 70px;'>正确! </span>","null","","","","","","","","","","","","","","","","","","","","","","","feedback_test"
"","","","","","psychophysics","419","697109","0.0-13.0-1.0-1.0-0.2-0.128","684","","f","","","","","","","","","","","","","key","f","16.662172727273056","768","428","f","true","img/S_ambi40.png","好人","word_first",""
"","","","","","html-keyboard-response","420","697416","0.0-13.0-1.0-1.0-0.2-1.128","null","<span style='color:GreenYellow; font-size: 70px;'>正确! </span>","null","","","","","","","","","","","","","","","","","","","","","","","feedback_test"
"","","","","","psychophysics","421","699206","0.0-13.0-1.0-1.0-0.2-0.129","630","","f","","","","","","","","","","","","","key","f","16.663603773585493","768","428","j","false","img/S_ambi40.png","常人","word_first",""
"","","","","","html-keyboard-response","422","699510","0.0-13.0-1.0-1.0-0.2-1.129","null","<span style='color:red; font-size: 70px;'>错误! </span>","null","","","","","","","","","","","","","","","","","","","","","","","feedback_test"
"","","","","","psychophysics","423","701236","0.0-13.0-1.0-1.0-0.2-0.130","569","","f","","","","","","","","","","","","","key","f","16.665274509803993","768","428","f","true","img/C_ambi40.png","坏人","word_first",""
"","","","","","html-keyboard-response","424","701545","0.0-13.0-1.0-1.0-0.2-1.130","null","<span style='color:GreenYellow; font-size: 70px;'>正确! </span>","null","","","","","","","","","","","","","","","","","","","","","","","feedback_test"
"","","","","","psychophysics","425","703214","0.0-13.0-1.0-1.0-0.2-0.131","516","","j","","","","","","","","","","","","","key","j","16.663360000000104","768","428","j","true","img/S_ambi40.png","坏人","word_first",""
"","","","","","html-keyboard-response","426","703517","0.0-13.0-1.0-1.0-0.2-1.131","null","<span style='color:GreenYellow; font-size: 70px;'>正确! </span>","null","","","","","","","","","","","","","","","","","","","","","","","feedback_test"
"","","","","","psychophysics","427","705132","0.0-13.0-1.0-1.0-0.2-0.132","459","","j","","","","","","","","","","","","","key","j","16.661474226804728","768","428","j","true","img/C_ambi40.png","常人","word_first",""
"","","","","","html-keyboard-response","428","705442","0.0-13.0-1.0-1.0-0.2-1.132","null","<span style='color:GreenYellow; font-size: 70px;'>正确! </span>","null","","","","","","","","","","","","","","","","","","","","","","","feedback_test"
"","","","","","psychophysics","429","707222","0.0-13.0-1.0-1.0-0.2-0.133","626","","f","","","","","","","","","","","","","key","f","16.655542857143363","768","428","f","true","img/S_ambi40.png","好人","word_first",""
"","","","","","html-keyboard-response","430","707534","0.0-13.0-1.0-1.0-0.2-1.133","null","<span style='color:GreenYellow; font-size: 70px;'>正确! </span>","null","","","","","","","","","","","","","","","","","","","","","","","feedback_test"
"","","","","","psychophysics","431","709213","0.0-13.0-1.0-1.0-0.2-0.134","524","","j","","","","","","","","","","","","","key","j","16.663405940593634","768","428","j","true","img/T_ambi40.png","好人","word_first",""
"","","","","","html-keyboard-response","432","709520","0.0-13.0-1.0-1.0-0.2-1.134","null","<span style='color:GreenYellow; font-size: 70px;'>正确! </span>","null","","","","","","","","","","","","","","","","","","","","","","","feedback_test"
