"success","timeout","failed_images","failed_audio","failed_video","trial_type","trial_index","time_elapsed","internal_node_id","rt","stimulus","response","value","item_width_mm","item_height_mm","item_width_px","px2mm","view_dist_mm","item_width_deg","px2deg","scale_factor","win_width_deg","win_height_deg","view_history","response_type","key_press","avg_frame_time","center_x","center_y","correct_response","correct","Image","word","condition","screen_id"
"true","false","[]","[]","[]","preload","0","411","0.0-0.0","","","","","","","","","","","","","","","","","","","","","","","","","",""
"","","","","","html-keyboard-response","1","5088","0.0-1.0","4676","
     <p>您好，欢迎参加本次实验。</p>
     <p>为充分保障您的权利，请确保您已经知晓并同意《参与实验同意书》以及《数据公开知情同意书》。</p>
     <p>如果您未见过上述内容，请咨询实验员。</p>
     <p>如果您选择继续实验，则表示您已经清楚两份知情同意书的内容并同意。</p>
     <p> <div style = ""color: green""><按任意键至下页></div> </p>
     ","arrowdown","","","","","","","","","","","","","","","","","","","","","","",""
"","","","","","html-keyboard-response","2","7171","0.0-2.0","2083","
     <p>本实验首先需要您填写一些基本个人信息。</p>
     <p> <div style = ""color: green""><按任意键至下页></div></p>
     ","arrowdown","","","","","","","","","","","","","","","","","","","","","","",""
"","","","","","call-function","3","7172","0.0-3.0-0.0","","","","","","","","","","","","","","","","","","","","","","","","","",""
"","","","","","survey-html-form","4","15675","0.0-3.0-1.0","8501","","{""Q0"":""5 ""}","","","","","","","","","","","","","","","","","","","","","","",""
"","","","","","html-button-response","5","16988","0.0-3.0-2.0","1311","<p style = 'color : white'>您的性别</p>","1","","","","","","","","","","","","","","","","","","","","","","",""
"","","","","","survey-html-form","6","22507","0.0-3.0-3.0","5518","","{""Q0"":""1998""}","","","","","","","","","","","","","","","","","","","","","","",""
"","","","","","survey-html-form","7","25632","0.0-3.0-4.0","3125","","{""Q0"":""6""}","","","","","","","","","","","","","","","","","","","","","","",""
"","","","","","virtual-chinrest","8","148529","0.0-4.0","122895","","","","85.6","53.98","412.86025460208975","4.820483741920004","592.94","8.257205092041795","50","0.881654254539031","25.6","11.54","","","","","","","","","","","",""
"true","","","","","fullscreen","9","152031","0.0-5.0","","","","","","","","","","","","","","","","","","","","","","","","","",""
"","","","","","instructions","10","200557","0.0-6.0","48525","","","","","","","","","","","","","","[{""page_index"":0,""viewing_time"":2105},{""page_index"":1,""viewing_time"":34325},{""page_index"":2,""viewing_time"":6074},{""page_index"":3,""viewing_time"":6021}]","","","","","","","","","","",""
"","","","","","psychophysics","11","203217","0.0-7.0-0.0-0.0","null","","null","","","","","","","","","","","","","key","null","16.66820253164539","640","356","f","false","img/C_ambi40.png","常人","prac_image_first",""
"","","","","","html-keyboard-response","12","203520","0.0-7.0-0.0-1.0","null","<span class='add_' style='color:yellow; font-size: 70px;'> 太慢! </span>","null","","","","","","","","","","","","","","","","","","","","","","","feedback_test"
"","","","","","psychophysics","13","205289","0.0-7.0-0.0-0.1","617","","f","","","","","","","","","","","","","key","f","16.668226415094292","640","356","f","true","img/T_ambi40.png","常人","prac_image_first",""
"","","","","","html-keyboard-response","14","205605","0.0-7.0-0.0-1.1","null","<span style='color:GreenYellow; font-size: 70px;'>正确! </span>","null","","","","","","","","","","","","","","","","","","","","","","","feedback_test"
"","","","","","psychophysics","15","207938","0.0-7.0-0.0-0.2","1182","","f","","","","","","","","","","","","","key","f","16.66458695652187","640","356","j","false","img/S_ambi40.png","常人","prac_image_first",""
"","","","","","html-keyboard-response","16","208248","0.0-7.0-0.0-1.2","null","<span style='color:red; font-size: 70px;'>错误! </span>","null","","","","","","","","","","","","","","","","","","","","","","","feedback_test"
"","","","","","psychophysics","17","210357","0.0-7.0-0.0-0.3","957","","f","","","","","","","","","","","","","key","f","16.66570634920624","640","356","f","true","img/S_ambi40.png","坏人","prac_image_first",""
"","","","","","html-keyboard-response","18","210670","0.0-7.0-0.0-1.3","null","<span style='color:GreenYellow; font-size: 70px;'>正确! </span>","null","","","","","","","","","","","","","","","","","","","","","","","feedback_test"
"","","","","","psychophysics","19","212521","0.0-7.0-0.0-0.4","699","","j","","","","","","","","","","","","","key","j","16.66689999999997","640","356","j","true","img/T_ambi40.png","好人","prac_image_first",""
"","","","","","html-keyboard-response","20","212835","0.0-7.0-0.0-1.4","null","<span style='color:GreenYellow; font-size: 70px;'>正确! </span>","null","","","","","","","","","","","","","","","","","","","","","","","feedback_test"
"","","","","","psychophysics","21","214967","0.0-7.0-0.0-0.5","978","","j","","","","","","","","","","","","","key","j","16.66840944881895","640","356","j","true","img/S_ambi40.png","常人","prac_image_first",""
"","","","","","html-keyboard-response","22","215277","0.0-7.0-0.0-1.5","null","<span style='color:GreenYellow; font-size: 70px;'>正确! </span>","null","","","","","","","","","","","","","","","","","","","","","","","feedback_test"
"","","","","","psychophysics","23","217386","0.0-7.0-0.0-0.6","958","","j","","","","","","","","","","","","","key","j","16.667199999999955","640","356","f","false","img/T_ambi40.png","坏人","prac_image_first",""
"","","","","","html-keyboard-response","24","217698","0.0-7.0-0.0-1.6","null","<span style='color:red; font-size: 70px;'>错误! </span>","null","","","","","","","","","","","","","","","","","","","","","","","feedback_test"
"","","","","","psychophysics","25","220069","0.0-7.0-0.0-0.7","1220","","j","","","","","","","","","","","","","key","j","16.6662553191488","640","356","j","true","img/C_ambi40.png","坏人","prac_image_first",""
"","","","","","html-keyboard-response","26","220375","0.0-7.0-0.0-1.7","null","<span style='color:GreenYellow; font-size: 70px;'>正确! </span>","null","","","","","","","","","","","","","","","","","","","","","","","feedback_test"
"","","","","","psychophysics","27","222294","0.0-7.0-0.0-0.8","767","","f","","","","","","","","","","","","","key","f","16.666868421052513","640","356","f","true","img/C_ambi40.png","好人","prac_image_first",""
"","","","","","html-keyboard-response","28","222609","0.0-7.0-0.0-1.8","null","<span style='color:GreenYellow; font-size: 70px;'>正确! </span>","null","","","","","","","","","","","","","","","","","","","","","","","feedback_test"
"","","","","","psychophysics","29","225261","0.0-7.0-0.0-0.9","null","","null","","","","","","","","","","","","","key","null","16.664632911392513","640","356","j","false","img/C_ambi40.png","坏人","prac_image_first",""
"","","","","","html-keyboard-response","30","225566","0.0-7.0-0.0-1.9","null","<span class='add_' style='color:yellow; font-size: 70px;'> 太慢! </span>","null","","","","","","","","","","","","","","","","","","","","","","","feedback_test"
"","","","","","psychophysics","31","227485","0.0-7.0-0.0-0.10","769","","j","","","","","","","","","","","","","key","j","16.666526315789444","640","356","f","false","img/S_ambi40.png","好人","prac_image_first",""
"","","","","","html-keyboard-response","32","227790","0.0-7.0-0.0-1.10","null","<span style='color:red; font-size: 70px;'>错误! </span>","null","","","","","","","","","","","","","","","","","","","","","","","feedback_test"
"","","","","","psychophysics","33","230146","0.0-7.0-0.0-0.11","1203","","f","","","","","","","","","","","","","key","f","16.667707142857086","640","356","j","false","img/T_ambi40.png","好人","prac_image_first",""
"","","","","","html-keyboard-response","34","230447","0.0-7.0-0.0-1.11","null","<span style='color:red; font-size: 70px;'>错误! </span>","null","","","","","","","","","","","","","","","","","","","","","","","feedback_test"
"","","","","","psychophysics","35","232577","0.0-7.0-0.0-0.12","977","","j","","","","","","","","","","","","","key","j","16.66844094488183","640","356","j","true","img/S_ambi40.png","常人","prac_image_first",""
"","","","","","html-keyboard-response","36","232883","0.0-7.0-0.0-1.12","null","<span style='color:GreenYellow; font-size: 70px;'>正确! </span>","null","","","","","","","","","","","","","","","","","","","","","","","feedback_test"
"","","","","","psychophysics","37","234626","0.0-7.0-0.0-0.13","591","","j","","","","","","","","","","","","","key","j","16.66625000000008","640","356","j","true","img/S_ambi40.png","常人","prac_image_first",""
"","","","","","html-keyboard-response","38","234942","0.0-7.0-0.0-1.13","null","<span style='color:GreenYellow; font-size: 70px;'>正确! </span>","null","","","","","","","","","","","","","","","","","","","","","","","feedback_test"
"","","","","","psychophysics","39","236781","0.0-7.0-0.0-0.14","688","","f","","","","","","","","","","","","","key","f","16.664091743119254","640","356","f","true","img/S_ambi40.png","坏人","prac_image_first",""
"","","","","","html-keyboard-response","40","237088","0.0-7.0-0.0-1.14","null","<span style='color:GreenYellow; font-size: 70px;'>正确! </span>","null","","","","","","","","","","","","","","","","","","","","","","","feedback_test"
"","","","","","psychophysics","41","238955","0.0-7.0-0.0-0.15","715","","f","","","","","","","","","","","","","key","f","16.666927927928015","640","356","f","true","img/T_ambi40.png","常人","prac_image_first",""
"","","","","","html-keyboard-response","42","239268","0.0-7.0-0.0-1.15","null","<span style='color:GreenYellow; font-size: 70px;'>正确! </span>","null","","","","","","","","","","","","","","","","","","","","","","","feedback_test"
"","","","","","psychophysics","43","241116","0.0-7.0-0.0-0.16","696","","j","","","","","","","","","","","","","key","j","16.666690909091002","640","356","j","true","img/C_ambi40.png","坏人","prac_image_first",""
"","","","","","html-keyboard-response","44","241424","0.0-7.0-0.0-1.16","null","<span style='color:GreenYellow; font-size: 70px;'>正确! </span>","null","","","","","","","","","","","","","","","","","","","","","","","feedback_test"
"","","","","","psychophysics","45","243209","0.0-7.0-0.0-0.17","634","","j","","","","","","","","","","","","","key","j","16.666537735848973","640","356","j","true","img/T_ambi40.png","好人","prac_image_first",""
"","","","","","html-keyboard-response","46","243522","0.0-7.0-0.0-1.17","null","<span style='color:GreenYellow; font-size: 70px;'>正确! </span>","null","","","","","","","","","","","","","","","","","","","","","","","feedback_test"
"","","","","","psychophysics","47","245528","0.0-7.0-0.0-0.18","855","","f","","","","","","","","","","","","","key","f","16.66414285714282","640","356","j","false","img/C_ambi40.png","坏人","prac_image_first",""
"","","","","","html-keyboard-response","48","245838","0.0-7.0-0.0-1.18","null","<span style='color:red; font-size: 70px;'>错误! </span>","null","","","","","","","","","","","","","","","","","","","","","","","feedback_test"
"","","","","","psychophysics","49","248317","0.0-7.0-0.0-0.19","1328","","f","","","","","","","","","","","","","key","f","16.666673469387682","640","356","f","true","img/T_ambi40.png","坏人","prac_image_first",""
"","","","","","html-keyboard-response","50","248625","0.0-7.0-0.0-1.19","null","<span style='color:GreenYellow; font-size: 70px;'>正确! </span>","null","","","","","","","","","","","","","","","","","","","","","","","feedback_test"
"","","","","","psychophysics","51","250469","0.0-7.0-0.0-0.20","692","","f","","","","","","","","","","","","","key","f","16.666266055045803","640","356","f","true","img/C_ambi40.png","常人","prac_image_first",""
"","","","","","html-keyboard-response","52","250781","0.0-7.0-0.0-1.20","null","<span style='color:GreenYellow; font-size: 70px;'>正确! </span>","null","","","","","","","","","","","","","","","","","","","","","","","feedback_test"
"","","","","","psychophysics","53","252876","0.0-7.0-0.0-0.21","943","","j","","","","","","","","","","","","","key","j","16.66059200000018","640","356","f","false","img/C_ambi40.png","好人","prac_image_first",""
"","","","","","html-keyboard-response","54","253192","0.0-7.0-0.0-1.21","null","<span style='color:red; font-size: 70px;'>错误! </span>","null","","","","","","","","","","","","","","","","","","","","","","","feedback_test"
"","","","","","psychophysics","55","255368","0.0-7.0-0.0-0.22","1026","","f","","","","","","","","","","","","","key","f","16.66644961240317","640","356","f","true","img/S_ambi40.png","好人","prac_image_first",""
"","","","","","html-keyboard-response","56","255681","0.0-7.0-0.0-1.22","null","<span style='color:GreenYellow; font-size: 70px;'>正确! </span>","null","","","","","","","","","","","","","","","","","","","","","","","feedback_test"
"","","","","","psychophysics","57","257381","0.0-7.0-0.0-0.23","549","","j","","","","","","","","","","","","","key","j","16.665851485148696","640","356","j","true","img/T_ambi40.png","好人","prac_image_first",""
"","","","","","html-keyboard-response","58","257691","0.0-7.0-0.0-1.23","null","<span style='color:GreenYellow; font-size: 70px;'>正确! </span>","null","","","","","","","","","","","","","","","","","","","","","","","feedback_test"
"","","","","","html-keyboard-response","59","260820","0.0-8.0","3127","<style>.context{color:white; font-size: 35px; line-height:40px}</style>                              <div><p class='context'>您正确回答了67% 的试次。</p><p class='context'>您的平均反应时为821毫秒。</p><p class='context'>恭喜您完成这一阶段的练习。按任意键进入<span style='color: yellow;'>先文字后图形条件</span>的练习。</p></div>","arrowdown","","","","","","","","","","","","","","","","","","","","","","",""
"","","","","","psychophysics","60","262948","0.0-9.0-0.0-0.0","971","","f","","","","","","","","","","","","","key","f","16.666563492063673","640","356","f","true","img/S_ambi40.png","坏人","prac_word_first",""
"","","","","","html-keyboard-response","61","263257","0.0-9.0-0.0-1.0","null","<span style='color:GreenYellow; font-size: 70px;'>正确! </span>","null","","","","","","","","","","","","","","","","","","","","","","","feedback_test"
"","","","","","psychophysics","62","265053","0.0-9.0-0.0-0.1","645","","f","","","","","","","","","","","","","key","f","16.66483018867933","640","356","f","true","img/T_ambi40.png","坏人","prac_word_first",""
"","","","","","html-keyboard-response","63","265358","0.0-9.0-0.0-1.1","null","<span style='color:GreenYellow; font-size: 70px;'>正确! </span>","null","","","","","","","","","","","","","","","","","","","","","","","feedback_test"
"","","","","","psychophysics","64","267244","0.0-9.0-0.0-0.2","734","","f","","","","","","","","","","","","","key","f","16.666419642856845","640","356","j","false","img/C_ambi40.png","坏人","prac_word_first",""
"","","","","","html-keyboard-response","65","267558","0.0-9.0-0.0-1.2","null","<span style='color:red; font-size: 70px;'>错误! </span>","null","","","","","","","","","","","","","","","","","","","","","","","feedback_test"
"","","","","","psychophysics","66","269409","0.0-9.0-0.0-0.3","699","","j","","","","","","","","","","","","","key","j","16.665272727272665","640","356","f","false","img/C_ambi40.png","好人","prac_word_first",""
"","","","","","html-keyboard-response","67","269722","0.0-9.0-0.0-1.3","null","<span style='color:red; font-size: 70px;'>错误! </span>","null","","","","","","","","","","","","","","","","","","","","","","","feedback_test"
"","","","","","psychophysics","68","271503","0.0-9.0-0.0-0.4","629","","f","","","","","","","","","","","","","key","f","16.666228571428274","640","356","f","true","img/C_ambi40.png","常人","prac_word_first",""
"","","","","","html-keyboard-response","69","271808","0.0-9.0-0.0-1.4","null","<span style='color:GreenYellow; font-size: 70px;'>正确! </span>","null","","","","","","","","","","","","","","","","","","","","","","","feedback_test"
"","","","","","psychophysics","70","273626","0.0-9.0-0.0-0.5","666","","f","","","","","","","","","","","","","key","f","16.66535185185192","640","356","f","true","img/S_ambi40.png","好人","prac_word_first",""
"","","","","","html-keyboard-response","71","273927","0.0-9.0-0.0-1.5","null","<span style='color:GreenYellow; font-size: 70px;'>正确! </span>","null","","","","","","","","","","","","","","","","","","","","","","","feedback_test"
"","","","","","psychophysics","72","275766","0.0-9.0-0.0-0.6","688","","f","","","","","","","","","","","","","key","f","16.66705504587185","640","356","j","false","img/S_ambi40.png","常人","prac_word_first",""
"","","","","","html-keyboard-response","73","276068","0.0-9.0-0.0-1.6","null","<span style='color:red; font-size: 70px;'>错误! </span>","null","","","","","","","","","","","","","","","","","","","","","","","feedback_test"
"","","","","","psychophysics","74","277918","0.0-9.0-0.0-0.7","699","","j","","","","","","","","","","","","","key","j","16.667449541284206","640","356","j","true","img/S_ambi40.png","常人","prac_word_first",""
"","","","","","html-keyboard-response","75","278222","0.0-9.0-0.0-1.7","null","<span style='color:GreenYellow; font-size: 70px;'>正确! </span>","null","","","","","","","","","","","","","","","","","","","","","","","feedback_test"
"","","","","","psychophysics","76","280823","0.0-9.0-0.0-0.8","1448","","j","","","","","","","","","","","","","key","j","16.666587096774546","640","356","j","true","img/T_ambi40.png","好人","prac_word_first",""
"","","","","","html-keyboard-response","77","281128","0.0-9.0-0.0-1.8","null","<span style='color:GreenYellow; font-size: 70px;'>正确! </span>","null","","","","","","","","","","","","","","","","","","","","","","","feedback_test"
"","","","","","psychophysics","78","282858","0.0-9.0-0.0-0.9","579","","f","","","","","","","","","","","","","key","f","16.666087378640952","640","356","f","true","img/T_ambi40.png","常人","prac_word_first",""
"","","","","","html-keyboard-response","79","283170","0.0-9.0-0.0-1.9","null","<span style='color:GreenYellow; font-size: 70px;'>正确! </span>","null","","","","","","","","","","","","","","","","","","","","","","","feedback_test"
"","","","","","psychophysics","80","285547","0.0-9.0-0.0-0.10","1226","","j","","","","","","","","","","","","","key","j","16.666177304964414","640","356","j","true","img/C_ambi40.png","坏人","prac_word_first",""
"","","","","","html-keyboard-response","81","285862","0.0-9.0-0.0-1.10","null","<span style='color:GreenYellow; font-size: 70px;'>正确! </span>","null","","","","","","","","","","","","","","","","","","","","","","","feedback_test"
"","","","","","psychophysics","82","287565","0.0-9.0-0.0-0.11","553","","j","","","","","","","","","","","","","key","j","16.665920792078936","640","356","j","true","img/T_ambi40.png","好人","prac_word_first",""
"","","","","","html-keyboard-response","83","287873","0.0-9.0-0.0-1.11","null","<span style='color:GreenYellow; font-size: 70px;'>正确! </span>","null","","","","","","","","","","","","","","","","","","","","","","","feedback_test"
"","","","","","psychophysics","84","289582","0.0-9.0-0.0-0.12","557","","f","","","","","","","","","","","","","key","f","16.664297029703377","640","356","f","true","img/T_ambi40.png","常人","prac_word_first",""
"","","","","","html-keyboard-response","85","289884","0.0-9.0-0.0-1.12","null","<span style='color:GreenYellow; font-size: 70px;'>正确! </span>","null","","","","","","","","","","","","","","","","","","","","","","","feedback_test"
"","","","","","psychophysics","86","292375","0.0-9.0-0.0-0.13","1340","","f","","","","","","","","","","","","","key","f","16.6663087248324","640","356","f","true","img/T_ambi40.png","坏人","prac_word_first",""
"","","","","","html-keyboard-response","87","292677","0.0-9.0-0.0-1.13","null","<span style='color:GreenYellow; font-size: 70px;'>正确! </span>","null","","","","","","","","","","","","","","","","","","","","","","","feedback_test"
"","","","","","psychophysics","88","294994","0.0-9.0-0.0-0.14","1166","","f","","","","","","","","","","","","","key","f","16.666347826086998","640","356","f","true","img/C_ambi40.png","好人","prac_word_first",""
"","","","","","html-keyboard-response","89","295308","0.0-9.0-0.0-1.14","null","<span style='color:GreenYellow; font-size: 70px;'>正确! </span>","null","","","","","","","","","","","","","","","","","","","","","","","feedback_test"
"","","","","","psychophysics","90","297184","0.0-9.0-0.0-0.15","724","","j","","","","","","","","","","","","","key","j","16.668666666666745","640","356","j","true","img/C_ambi40.png","坏人","prac_word_first",""
"","","","","","html-keyboard-response","91","297486","0.0-9.0-0.0-1.15","null","<span style='color:GreenYellow; font-size: 70px;'>正确! </span>","null","","","","","","","","","","","","","","","","","","","","","","","feedback_test"
"","","","","","psychophysics","92","299407","0.0-9.0-0.0-0.16","769","","j","","","","","","","","","","","","","key","j","16.668763157894748","640","356","j","true","img/S_ambi40.png","常人","prac_word_first",""
"","","","","","html-keyboard-response","93","299721","0.0-9.0-0.0-1.16","null","<span style='color:GreenYellow; font-size: 70px;'>正确! </span>","null","","","","","","","","","","","","","","","","","","","","","","","feedback_test"
"","","","","","psychophysics","94","301733","0.0-9.0-0.0-0.17","860","","j","","","","","","","","","","","","","key","j","16.666529411765033","640","356","j","true","img/T_ambi40.png","好人","prac_word_first",""
"","","","","","html-keyboard-response","95","302043","0.0-9.0-0.0-1.17","null","<span style='color:GreenYellow; font-size: 70px;'>正确! </span>","null","","","","","","","","","","","","","","","","","","","","","","","feedback_test"
"","","","","","psychophysics","96","304249","0.0-9.0-0.0-0.18","1054","","f","","","","","","","","","","","","","key","f","16.666450381679336","640","356","f","true","img/C_ambi40.png","常人","prac_word_first",""
"","","","","","html-keyboard-response","97","304560","0.0-9.0-0.0-1.18","null","<span style='color:GreenYellow; font-size: 70px;'>正确! </span>","null","","","","","","","","","","","","","","","","","","","","","","","feedback_test"
"","","","","","psychophysics","98","306450","0.0-9.0-0.0-0.19","739","","j","","","","","","","","","","","","","key","j","16.66400000000015","640","356","j","true","img/S_ambi40.png","常人","prac_word_first",""
"","","","","","html-keyboard-response","99","306758","0.0-9.0-0.0-1.19","null","<span style='color:GreenYellow; font-size: 70px;'>正确! </span>","null","","","","","","","","","","","","","","","","","","","","","","","feedback_test"
"","","","","","psychophysics","100","308816","0.0-9.0-0.0-0.20","905","","f","","","","","","","","","","","","","key","f","16.66559836065605","640","356","f","true","img/S_ambi40.png","好人","prac_word_first",""
"","","","","","html-keyboard-response","101","309120","0.0-9.0-0.0-1.20","null","<span style='color:GreenYellow; font-size: 70px;'>正确! </span>","null","","","","","","","","","","","","","","","","","","","","","","","feedback_test"
"","","","","","psychophysics","102","311158","0.0-9.0-0.0-0.21","887","","f","","","","","","","","","","","","","key","f","16.666471074380496","640","356","f","true","img/S_ambi40.png","坏人","prac_word_first",""
"","","","","","html-keyboard-response","103","311465","0.0-9.0-0.0-1.21","null","<span style='color:GreenYellow; font-size: 70px;'>正确! </span>","null","","","","","","","","","","","","","","","","","","","","","","","feedback_test"
"","","","","","psychophysics","104","313404","0.0-9.0-0.0-0.22","787","","j","","","","","","","","","","","","","key","j","16.66600862068951","640","356","j","true","img/C_ambi40.png","坏人","prac_word_first",""
"","","","","","html-keyboard-response","105","313707","0.0-9.0-0.0-1.22","null","<span style='color:GreenYellow; font-size: 70px;'>正确! </span>","null","","","","","","","","","","","","","","","","","","","","","","","feedback_test"
"","","","","","psychophysics","106","315338","0.0-9.0-0.0-0.23","479","","j","","","","","","","","","","","","","key","j","16.670010309278144","640","356","j","true","img/T_ambi40.png","好人","prac_word_first",""
"","","","","","html-keyboard-response","107","315644","0.0-9.0-0.0-1.23","null","<span style='color:GreenYellow; font-size: 70px;'>正确! </span>","null","","","","","","","","","","","","","","","","","","","","","","","feedback_test"
"","","","","","html-keyboard-response","108","318412","0.0-10.0","2767","<style>.context{color:white; font-size: 35px; line-height:40px}</style>                              <div><p class='context'>您正确回答了88% 的试次。</p><p class='context'>您的平均反应时为842毫秒。</p><p class='context'>恭喜您完成练习。按任意键进入<span style='color: yellow;'>图形和文字同时呈现条件</span>的练习。</p></div>","arrowdown","","","","","","","","","","","","","","","","","","","","","","",""
"","","","","","psychophysics","109","320294","0.0-11.0-0.0-0.0","877","","f","","","","","","","","","","","","","key","f","16.66711607142861","640","356","j","false","img/C_ambi40.png","坏人","prac_simultaneous",""
"","","","","","html-keyboard-response","110","320600","0.0-11.0-0.0-1.0","null","<span style='color:red; font-size: 70px;'>错误! </span>","null","","","","","","","","","","","","","","","","","","","","","","","feedback_test"
"","","","","","psychophysics","111","322149","0.0-11.0-0.0-0.1","548","","j","","","","","","","","","","","","","key","j","16.666293478260858","640","356","j","true","img/C_ambi40.png","坏人","prac_simultaneous",""
"","","","","","html-keyboard-response","112","322460","0.0-11.0-0.0-1.1","null","<span style='color:GreenYellow; font-size: 70px;'>正确! </span>","null","","","","","","","","","","","","","","","","","","","","","","","feedback_test"
"","","","","","psychophysics","113","324148","0.0-11.0-0.0-0.2","686","","f","","","","","","","","","","","","","key","f","16.66493000000017","640","356","f","true","img/C_ambi40.png","常人","prac_simultaneous",""
"","","","","","html-keyboard-response","114","324457","0.0-11.0-0.0-1.2","null","<span style='color:GreenYellow; font-size: 70px;'>正确! </span>","null","","","","","","","","","","","","","","","","","","","","","","","feedback_test"
"","","","","","psychophysics","115","326578","0.0-11.0-0.0-0.3","1119","","j","","","","","","","","","","","","","key","j","16.6646031746031","640","356","j","true","img/T_ambi40.png","好人","prac_simultaneous",""
"","","","","","html-keyboard-response","116","326890","0.0-11.0-0.0-1.3","null","<span style='color:GreenYellow; font-size: 70px;'>正确! </span>","null","","","","","","","","","","","","","","","","","","","","","","","feedback_test"
"","","","","","psychophysics","117","328521","0.0-11.0-0.0-0.4","629","","f","","","","","","","","","","","","","key","f","16.666412371133944","640","356","j","false","img/S_ambi40.png","常人","prac_simultaneous",""
"","","","","","html-keyboard-response","118","328824","0.0-11.0-0.0-1.4","null","<span style='color:red; font-size: 70px;'>错误! </span>","null","","","","","","","","","","","","","","","","","","","","","","","feedback_test"
"","","","","","psychophysics","119","330585","0.0-11.0-0.0-0.5","758","","f","","","","","","","","","","","","","key","f","16.666605769230674","640","356","f","true","img/T_ambi40.png","常人","prac_simultaneous",""
"","","","","","html-keyboard-response","120","330898","0.0-11.0-0.0-1.5","null","<span style='color:GreenYellow; font-size: 70px;'>正确! </span>","null","","","","","","","","","","","","","","","","","","","","","","","feedback_test"
"","","","","","psychophysics","121","332746","0.0-11.0-0.0-0.6","846","","j","","","","","","","","","","","","","key","j","16.66687272727246","640","356","f","false","img/T_ambi40.png","坏人","prac_simultaneous",""
"","","","","","html-keyboard-response","122","333060","0.0-11.0-0.0-1.6","null","<span style='color:red; font-size: 70px;'>错误! </span>","null","","","","","","","","","","","","","","","","","","","","","","","feedback_test"
"","","","","","psychophysics","123","335512","0.0-11.0-0.0-0.7","1451","","f","","","","","","","","","","","","","key","f","16.66541095890387","640","356","f","true","img/S_ambi40.png","好人","prac_simultaneous",""
"","","","","","html-keyboard-response","124","335822","0.0-11.0-0.0-1.7","null","<span style='color:GreenYellow; font-size: 70px;'>正确! </span>","null","","","","","","","","","","","","","","","","","","","","","","","feedback_test"
"","","","","","psychophysics","125","337794","0.0-11.0-0.0-0.8","968","","f","","","","","","","","","","","","","key","f","16.6661282051285","640","356","j","false","img/T_ambi40.png","好人","prac_simultaneous",""
"","","","","","html-keyboard-response","126","338104","0.0-11.0-0.0-1.8","null","<span style='color:red; font-size: 70px;'>错误! </span>","null","","","","","","","","","","","","","","","","","","","","","","","feedback_test"
"","","","","","psychophysics","127","339892","0.0-11.0-0.0-0.9","786","","f","","","","","","","","","","","","","key","f","16.666056603773164","640","356","f","true","img/C_ambi40.png","好人","prac_simultaneous",""
"","","","","","html-keyboard-response","128","340196","0.0-11.0-0.0-1.9","null","<span style='color:GreenYellow; font-size: 70px;'>正确! </span>","null","","","","","","","","","","","","","","","","","","","","","","","feedback_test"
"","","","","","psychophysics","129","341950","0.0-11.0-0.0-0.10","753","","f","","","","","","","","","","","","","key","f","16.666682692307894","640","356","f","true","img/S_ambi40.png","坏人","prac_simultaneous",""
"","","","","","html-keyboard-response","130","342254","0.0-11.0-0.0-1.10","null","<span style='color:GreenYellow; font-size: 70px;'>正确! </span>","null","","","","","","","","","","","","","","","","","","","","","","","feedback_test"
"","","","","","psychophysics","131","343906","0.0-11.0-0.0-0.11","651","","j","","","","","","","","","","","","","key","j","16.663030612245034","640","356","j","true","img/S_ambi40.png","常人","prac_simultaneous",""
"","","","","","html-keyboard-response","132","344223","0.0-11.0-0.0-1.11","null","<span style='color:GreenYellow; font-size: 70px;'>正确! </span>","null","","","","","","","","","","","","","","","","","","","","","","","feedback_test"
"","","","","","psychophysics","133","346048","0.0-11.0-0.0-0.12","822","","j","","","","","","","","","","","","","key","j","16.666675925925826","640","356","j","true","img/S_ambi40.png","常人","prac_simultaneous",""
"","","","","","html-keyboard-response","134","346353","0.0-11.0-0.0-1.12","null","<span style='color:GreenYellow; font-size: 70px;'>正确! </span>","null","","","","","","","","","","","","","","","","","","","","","","","feedback_test"
"","","","","","psychophysics","135","348078","0.0-11.0-0.0-0.13","724","","f","","","","","","","","","","","","","key","f","16.667470588235243","640","356","f","true","img/T_ambi40.png","常人","prac_simultaneous",""
"","","","","","html-keyboard-response","136","348379","0.0-11.0-0.0-1.13","null","<span style='color:GreenYellow; font-size: 70px;'>正确! </span>","null","","","","","","","","","","","","","","","","","","","","","","","feedback_test"
"","","","","","psychophysics","137","350184","0.0-11.0-0.0-0.14","804","","j","","","","","","","","","","","","","key","j","16.665747663551272","640","356","f","false","img/C_ambi40.png","好人","prac_simultaneous",""
"","","","","","html-keyboard-response","138","350493","0.0-11.0-0.0-1.14","null","<span style='color:red; font-size: 70px;'>错误! </span>","null","","","","","","","","","","","","","","","","","","","","","","","feedback_test"
"","","","","","psychophysics","139","352378","0.0-11.0-0.0-0.15","884","","f","","","","","","","","","","","","","key","f","16.66635714285699","640","356","f","true","img/T_ambi40.png","坏人","prac_simultaneous",""
"","","","","","html-keyboard-response","140","352683","0.0-11.0-0.0-1.15","null","<span style='color:GreenYellow; font-size: 70px;'>正确! </span>","null","","","","","","","","","","","","","","","","","","","","","","","feedback_test"
"","","","","","psychophysics","141","354384","0.0-11.0-0.0-0.16","699","","j","","","","","","","","","","","","","key","j","16.666138613861662","640","356","j","true","img/C_ambi40.png","坏人","prac_simultaneous",""
"","","","","","html-keyboard-response","142","354687","0.0-11.0-0.0-1.16","null","<span style='color:GreenYellow; font-size: 70px;'>正确! </span>","null","","","","","","","","","","","","","","","","","","","","","","","feedback_test"
"","","","","","psychophysics","143","356649","0.0-11.0-0.0-0.17","960","","j","","","","","","","","","","","","","key","j","16.663801724137837","640","356","j","true","img/S_ambi40.png","常人","prac_simultaneous",""
"","","","","","html-keyboard-response","144","356953","0.0-11.0-0.0-1.17","null","<span style='color:GreenYellow; font-size: 70px;'>正确! </span>","null","","","","","","","","","","","","","","","","","","","","","","","feedback_test"
"","","","","","psychophysics","145","359196","0.0-11.0-0.0-0.18","1240","","j","","","","","","","","","","","","","key","j","16.66575939849604","640","356","j","true","img/C_ambi40.png","坏人","prac_simultaneous",""
"","","","","","html-keyboard-response","146","359501","0.0-11.0-0.0-1.18","null","<span style='color:GreenYellow; font-size: 70px;'>正确! </span>","null","","","","","","","","","","","","","","","","","","","","","","","feedback_test"
"","","","","","psychophysics","147","361118","0.0-11.0-0.0-0.19","615","","j","","","","","","","","","","","","","key","j","16.528600000000043","640","356","j","true","img/T_ambi40.png","好人","prac_simultaneous",""
"","","","","","html-keyboard-response","148","361426","0.0-11.0-0.0-1.19","null","<span style='color:GreenYellow; font-size: 70px;'>正确! </span>","null","","","","","","","","","","","","","","","","","","","","","","","feedback_test"
"","","","","","psychophysics","149","363192","0.0-11.0-0.0-0.20","765","","f","","","","","","","","","","","","","key","f","16.66609523809526","640","356","j","false","img/T_ambi40.png","好人","prac_simultaneous",""
"","","","","","html-keyboard-response","150","363503","0.0-11.0-0.0-1.20","null","<span style='color:red; font-size: 70px;'>错误! </span>","null","","","","","","","","","","","","","","","","","","","","","","","feedback_test"
"","","","","","psychophysics","151","365740","0.0-11.0-0.0-0.21","1236","","f","","","","","","","","","","","","","key","f","16.66655639097746","640","356","f","true","img/S_ambi40.png","好人","prac_simultaneous",""
"","","","","","html-keyboard-response","152","366045","0.0-11.0-0.0-1.21","null","<span style='color:GreenYellow; font-size: 70px;'>正确! </span>","null","","","","","","","","","","","","","","","","","","","","","","","feedback_test"
"","","","","","psychophysics","153","368123","0.0-11.0-0.0-0.22","1075","","f","","","","","","","","","","","","","key","f","16.66500806451621","640","356","f","true","img/S_ambi40.png","坏人","prac_simultaneous",""
"","","","","","html-keyboard-response","154","368424","0.0-11.0-0.0-1.22","null","<span style='color:GreenYellow; font-size: 70px;'>正确! </span>","null","","","","","","","","","","","","","","","","","","","","","","","feedback_test"
"","","","","","psychophysics","155","370301","0.0-11.0-0.0-0.23","877","","f","","","","","","","","","","","","","key","f","16.665252252252195","640","356","f","true","img/C_ambi40.png","常人","prac_simultaneous",""
"","","","","","html-keyboard-response","156","370602","0.0-11.0-0.0-1.23","null","<span style='color:GreenYellow; font-size: 70px;'>正确! </span>","null","","","","","","","","","","","","","","","","","","","","","","","feedback_test"
"","","","","","html-keyboard-response","157","377300","0.0-12.0","6696","<style>.context{color:white; font-size: 35px; line-height:40px}</style>                              <div><p class='context'>您正确回答了75% 的试次。</p><p class='context'>您的平均反应时为882毫秒。</p><p class='context'>恭喜您完成练习。按任意键进入正式实验。</p><p class='footer' style='font-size: 35px; line-height:40px;'>请在进入正式实验实验之前将您的<span style='color: lightgreen;'>食指</span>放在电脑键盘的相应键位上进行按键。</p>","arrowdown","","","","","","","","","","","","","","","","","","","","","","",""
"","","","","","html-keyboard-response","158","380448","0.0-13.0-1.0-0.0","3143","
      <p>请您将手指放在按键上，准备进入呈现顺序为<span style='color: yellow;'>先文字后图形条件</span>的正式匹配任务</p>
      <p> <div style = ""color: green""><按任意键进入下一阶段的匹配任务></div></p>
      ","arrowdown","","","","","","","","","","","","","","","","","","","","","","",""
"","","","","","psychophysics","159","382680","0.0-13.0-1.0-1.0-0.0-0.0","1082","","f","","","","","","","","","","","","","key","f","16.66662406015054","640","356","f","true","img/T_ambi40.png","坏人","word_first",""
"","","","","","html-keyboard-response","160","382988","0.0-13.0-1.0-1.0-0.0-1.0","null","<span style='color:GreenYellow; font-size: 70px;'>正确! </span>","null","","","","","","","","","","","","","","","","","","","","","","","feedback_test"
"","","","","","psychophysics","161","384775","0.0-13.0-1.0-1.0-0.0-0.1","635","","j","","","","","","","","","","","","","key","j","16.666066037735327","640","356","j","true","img/S_ambi40.png","常人","word_first",""
"","","","","","html-keyboard-response","162","385077","0.0-13.0-1.0-1.0-0.0-1.1","null","<span style='color:GreenYellow; font-size: 70px;'>正确! </span>","null","","","","","","","","","","","","","","","","","","","","","","","feedback_test"
"","","","","","psychophysics","163","386738","0.0-13.0-1.0-1.0-0.0-0.2","509","","f","","","","","","","","","","","","","key","f","16.667767676767642","640","356","f","true","img/T_ambi40.png","常人","word_first",""
"","","","","","html-keyboard-response","164","387049","0.0-13.0-1.0-1.0-0.0-1.2","null","<span style='color:GreenYellow; font-size: 70px;'>正确! </span>","null","","","","","","","","","","","","","","","","","","","","","","","feedback_test"
"","","","","","psychophysics","165","389167","0.0-13.0-1.0-1.0-0.0-0.3","967","","j","","","","","","","","","","","","","key","j","16.668746031746398","640","356","j","true","img/C_ambi40.png","坏人","word_first",""
"","","","","","html-keyboard-response","166","389469","0.0-13.0-1.0-1.0-0.0-1.3","null","<span style='color:GreenYellow; font-size: 70px;'>正确! </span>","null","","","","","","","","","","","","","","","","","","","","","","","feedback_test"
"","","","","","psychophysics","167","391427","0.0-13.0-1.0-1.0-0.0-0.4","805","","f","","","","","","","","","","","","","key","f","16.669060344827372","640","356","f","true","img/S_ambi40.png","好人","word_first",""
"","","","","","html-keyboard-response","168","391743","0.0-13.0-1.0-1.0-0.0-1.4","null","<span style='color:GreenYellow; font-size: 70px;'>正确! </span>","null","","","","","","","","","","","","","","","","","","","","","","","feedback_test"
"","","","","","psychophysics","169","393535","0.0-13.0-1.0-1.0-0.0-0.5","640","","j","","","","","","","","","","","","","key","j","16.663766355140062","640","356","f","false","img/C_ambi40.png","好人","word_first",""
"","","","","","html-keyboard-response","170","393837","0.0-13.0-1.0-1.0-0.0-1.5","null","<span style='color:red; font-size: 70px;'>错误! </span>","null","","","","","","","","","","","","","","","","","","","","","","","feedback_test"
"","","","","","psychophysics","171","396054","0.0-13.0-1.0-1.0-0.0-0.6","1066","","f","","","","","","","","","","","","","key","f","16.663810606060768","640","356","j","false","img/C_ambi40.png","坏人","word_first",""
"","","","","","html-keyboard-response","172","396367","0.0-13.0-1.0-1.0-0.0-1.6","null","<span style='color:red; font-size: 70px;'>错误! </span>","null","","","","","","","","","","","","","","","","","","","","","","","feedback_test"
"","","","","","psychophysics","173","398322","0.0-13.0-1.0-1.0-0.0-0.7","804","","j","","","","","","","","","","","","","key","j","16.55056896551707","640","356","j","true","img/S_ambi40.png","常人","word_first",""
"","","","","","html-keyboard-response","174","398636","0.0-13.0-1.0-1.0-0.0-1.7","null","<span style='color:GreenYellow; font-size: 70px;'>正确! </span>","null","","","","","","","","","","","","","","","","","","","","","","","feedback_test"
"","","","","","psychophysics","175","400475","0.0-13.0-1.0-1.0-0.0-0.8","688","","f","","","","","","","","","","","","","key","f","16.663954128440228","640","356","f","true","img/C_ambi40.png","常人","word_first",""
"","","","","","html-keyboard-response","176","400781","0.0-13.0-1.0-1.0-0.0-1.8","null","<span style='color:GreenYellow; font-size: 70px;'>正确! </span>","null","","","","","","","","","","","","","","","","","","","","","","","feedback_test"
"","","","","","psychophysics","177","402654","0.0-13.0-1.0-1.0-0.0-0.9","720","","j","","","","","","","","","","","","","key","j","16.66621428571411","640","356","j","true","img/T_ambi40.png","好人","word_first",""
"","","","","","html-keyboard-response","178","402955","0.0-13.0-1.0-1.0-0.0-1.9","null","<span style='color:GreenYellow; font-size: 70px;'>正确! </span>","null","","","","","","","","","","","","","","","","","","","","","","","feedback_test"
"","","","","","psychophysics","179","404980","0.0-13.0-1.0-1.0-0.0-0.10","874","","f","","","","","","","","","","","","","key","f","16.66631666666702","640","356","f","true","img/S_ambi40.png","坏人","word_first",""
"","","","","","html-keyboard-response","180","405289","0.0-13.0-1.0-1.0-0.0-1.10","null","<span style='color:GreenYellow; font-size: 70px;'>正确! </span>","null","","","","","","","","","","","","","","","","","","","","","","","feedback_test"
"","","","","","psychophysics","181","407136","0.0-13.0-1.0-1.0-0.0-0.11","696","","j","","","","","","","","","","","","","key","j","16.66644545454553","640","356","j","true","img/T_ambi40.png","好人","word_first",""
"","","","","","html-keyboard-response","182","407439","0.0-13.0-1.0-1.0-0.0-1.11","null","<span style='color:GreenYellow; font-size: 70px;'>正确! </span>","null","","","","","","","","","","","","","","","","","","","","","","","feedback_test"
"","","","","","psychophysics","183","409375","0.0-13.0-1.0-1.0-0.0-0.12","783","","f","","","","","","","","","","","","","key","f","16.668491379310204","640","356","f","true","img/C_ambi40.png","常人","word_first",""
"","","","","","html-keyboard-response","184","409679","0.0-13.0-1.0-1.0-0.0-1.12","null","<span style='color:GreenYellow; font-size: 70px;'>正确! </span>","null","","","","","","","","","","","","","","","","","","","","","","","feedback_test"
"","","","","","psychophysics","185","411452","0.0-13.0-1.0-1.0-0.0-0.13","621","","j","","","","","","","","","","","","","key","j","16.66844761904739","640","356","j","true","img/S_ambi40.png","常人","word_first",""
"","","","","","html-keyboard-response","186","411753","0.0-13.0-1.0-1.0-0.0-1.13","null","<span style='color:GreenYellow; font-size: 70px;'>正确! </span>","null","","","","","","","","","","","","","","","","","","","","","","","feedback_test"
"","","","","","psychophysics","187","413750","0.0-13.0-1.0-1.0-0.0-0.14","846","","f","","","","","","","","","","","","","key","f","16.66671186440646","640","356","f","true","img/S_ambi40.png","坏人","word_first",""
"","","","","","html-keyboard-response","188","414054","0.0-13.0-1.0-1.0-0.0-1.14","null","<span style='color:GreenYellow; font-size: 70px;'>正确! </span>","null","","","","","","","","","","","","","","","","","","","","","","","feedback_test"
"","","","","","psychophysics","189","415812","0.0-13.0-1.0-1.0-0.0-0.15","607","","f","","","","","","","","","","","","","key","f","16.666778846154138","640","356","f","true","img/T_ambi40.png","常人","word_first",""
"","","","","","html-keyboard-response","190","416119","0.0-13.0-1.0-1.0-0.0-1.15","null","<span style='color:GreenYellow; font-size: 70px;'>正确! </span>","null","","","","","","","","","","","","","","","","","","","","","","","feedback_test"
"","","","","","psychophysics","191","418449","0.0-13.0-1.0-1.0-0.0-0.16","1178","","f","","","","","","","","","","","","","key","f","16.66655072463766","640","356","f","true","img/C_ambi40.png","好人","word_first",""
"","","","","","html-keyboard-response","192","418757","0.0-13.0-1.0-1.0-0.0-1.16","null","<span style='color:GreenYellow; font-size: 70px;'>正确! </span>","null","","","","","","","","","","","","","","","","","","","","","","","feedback_test"
"","","","","","psychophysics","193","420587","0.0-13.0-1.0-1.0-0.0-0.17","679","","j","","","","","","","","","","","","","key","j","16.666449541284237","640","356","j","true","img/C_ambi40.png","坏人","word_first",""
"","","","","","html-keyboard-response","194","420891","0.0-13.0-1.0-1.0-0.0-1.17","null","<span style='color:GreenYellow; font-size: 70px;'>正确! </span>","null","","","","","","","","","","","","","","","","","","","","","","","feedback_test"
"","","","","","psychophysics","195","422702","0.0-13.0-1.0-1.0-0.0-0.18","659","","j","","","","","","","","","","","","","key","j","16.66625000000015","640","356","j","true","img/S_ambi40.png","常人","word_first",""
"","","","","","html-keyboard-response","196","423007","0.0-13.0-1.0-1.0-0.0-1.18","null","<span style='color:GreenYellow; font-size: 70px;'>正确! </span>","null","","","","","","","","","","","","","","","","","","","","","","","feedback_test"
"","","","","","psychophysics","197","425494","0.0-13.0-1.0-1.0-0.0-0.19","1335","","j","","","","","","","","","","","","","key","j","16.66652702702708","640","356","j","true","img/C_ambi40.png","坏人","word_first",""
"","","","","","html-keyboard-response","198","425802","0.0-13.0-1.0-1.0-0.0-1.19","null","<span style='color:GreenYellow; font-size: 70px;'>正确! </span>","null","","","","","","","","","","","","","","","","","","","","","","","feedback_test"
"","","","","","psychophysics","199","427616","0.0-13.0-1.0-1.0-0.0-0.20","664","","j","","","","","","","","","","","","","key","j","16.66463551401905","640","356","j","true","img/T_ambi40.png","好人","word_first",""
"","","","","","html-keyboard-response","200","427921","0.0-13.0-1.0-1.0-0.0-1.20","null","<span style='color:GreenYellow; font-size: 70px;'>正确! </span>","null","","","","","","","","","","","","","","","","","","","","","","","feedback_test"
"","","","","","psychophysics","201","429992","0.0-13.0-1.0-1.0-0.0-0.21","920","","f","","","","","","","","","","","","","key","f","16.66460975609782","640","356","f","true","img/T_ambi40.png","坏人","word_first",""
"","","","","","html-keyboard-response","202","430295","0.0-13.0-1.0-1.0-0.0-1.21","null","<span style='color:GreenYellow; font-size: 70px;'>正确! </span>","null","","","","","","","","","","","","","","","","","","","","","","","feedback_test"
"","","","","","psychophysics","203","432102","0.0-13.0-1.0-1.0-0.0-0.22","655","","f","","","","","","","","","","","","","key","f","16.66552777777812","640","356","f","true","img/S_ambi40.png","好人","word_first",""
"","","","","","html-keyboard-response","204","432417","0.0-13.0-1.0-1.0-0.0-1.22","null","<span style='color:GreenYellow; font-size: 70px;'>正确! </span>","null","","","","","","","","","","","","","","","","","","","","","","","feedback_test"
"","","","","","psychophysics","205","434445","0.0-13.0-1.0-1.0-0.0-0.23","877","","j","","","","","","","","","","","","","key","j","16.668000000000273","640","356","j","true","img/T_ambi40.png","好人","word_first",""
"","","","","","html-keyboard-response","206","434749","0.0-13.0-1.0-1.0-0.0-1.23","null","<span style='color:GreenYellow; font-size: 70px;'>正确! </span>","null","","","","","","","","","","","","","","","","","","","","","","","feedback_test"
"","","","","","psychophysics","207","436399","0.0-13.0-1.0-1.0-0.0-0.24","498","","j","","","","","","","","","","","","","key","j","16.665877551020348","640","356","j","true","img/T_ambi40.png","好人","word_first",""
"","","","","","html-keyboard-response","208","436704","0.0-13.0-1.0-1.0-0.0-1.24","null","<span style='color:GreenYellow; font-size: 70px;'>正确! </span>","null","","","","","","","","","","","","","","","","","","","","","","","feedback_test"
"","","","","","psychophysics","209","438408","0.0-13.0-1.0-1.0-0.0-0.25","552","","f","","","","","","","","","","","","","key","f","16.668049504950478","640","356","f","true","img/T_ambi40.png","坏人","word_first",""
"","","","","","html-keyboard-response","210","438715","0.0-13.0-1.0-1.0-0.0-1.25","null","<span style='color:GreenYellow; font-size: 70px;'>正确! </span>","null","","","","","","","","","","","","","","","","","","","","","","","feedback_test"
"","","","","","psychophysics","211","440535","0.0-13.0-1.0-1.0-0.0-0.26","668","","j","","","","","","","","","","","","","key","j","16.670018348623913","640","356","j","true","img/S_ambi40.png","常人","word_first",""
"","","","","","html-keyboard-response","212","440852","0.0-13.0-1.0-1.0-0.0-1.26","null","<span style='color:GreenYellow; font-size: 70px;'>正确! </span>","null","","","","","","","","","","","","","","","","","","","","","","","feedback_test"
"","","","","","psychophysics","213","442495","0.0-13.0-1.0-1.0-0.0-0.27","491","","j","","","","","","","","","","","","","key","j","16.66972164948442","640","356","f","false","img/T_ambi40.png","常人","word_first",""
"","","","","","html-keyboard-response","214","442804","0.0-13.0-1.0-1.0-0.0-1.27","null","<span style='color:red; font-size: 70px;'>错误! </span>","null","","","","","","","","","","","","","","","","","","","","","","","feedback_test"
"","","","","","psychophysics","215","444859","0.0-13.0-1.0-1.0-0.0-0.28","904","","j","","","","","","","","","","","","","key","j","16.66461475409823","640","356","j","true","img/T_ambi40.png","好人","word_first",""
"","","","","","html-keyboard-response","216","445173","0.0-13.0-1.0-1.0-0.0-1.28","null","<span style='color:GreenYellow; font-size: 70px;'>正确! </span>","null","","","","","","","","","","","","","","","","","","","","","","","feedback_test"
"","","","","","psychophysics","217","447078","0.0-13.0-1.0-1.0-0.0-0.29","753","","j","","","","","","","","","","","","","key","j","16.66663716814122","640","356","j","true","img/C_ambi40.png","坏人","word_first",""
"","","","","","html-keyboard-response","218","447382","0.0-13.0-1.0-1.0-0.0-1.29","null","<span style='color:GreenYellow; font-size: 70px;'>正确! </span>","null","","","","","","","","","","","","","","","","","","","","","","","feedback_test"
"","","","","","psychophysics","219","449242","0.0-13.0-1.0-1.0-0.0-0.30","708","","f","","","","","","","","","","","","","key","f","16.54814545454574","640","356","f","true","img/S_ambi40.png","好人","word_first",""
"","","","","","html-keyboard-response","220","449556","0.0-13.0-1.0-1.0-0.0-1.30","null","<span style='color:GreenYellow; font-size: 70px;'>正确! </span>","null","","","","","","","","","","","","","","","","","","","","","","","feedback_test"
"","","","","","psychophysics","221","451434","0.0-13.0-1.0-1.0-0.0-0.31","727","","f","","","","","","","","","","","","","key","f","16.66608108108106","640","356","f","true","img/C_ambi40.png","常人","word_first",""
"","","","","","html-keyboard-response","222","451741","0.0-13.0-1.0-1.0-0.0-1.31","null","<span style='color:GreenYellow; font-size: 70px;'>正确! </span>","null","","","","","","","","","","","","","","","","","","","","","","","feedback_test"
"","","","","","psychophysics","223","453648","0.0-13.0-1.0-1.0-0.0-0.32","756","","f","","","","","","","","","","","","","key","f","16.666654867256593","640","356","f","true","img/C_ambi40.png","好人","word_first",""
"","","","","","html-keyboard-response","224","453957","0.0-13.0-1.0-1.0-0.0-1.32","null","<span style='color:GreenYellow; font-size: 70px;'>正确! </span>","null","","","","","","","","","","","","","","","","","","","","","","","feedback_test"
"","","","","","psychophysics","225","455782","0.0-13.0-1.0-1.0-0.0-0.33","674","","j","","","","","","","","","","","","","key","j","16.66907407407416","640","356","j","true","img/S_ambi40.png","常人","word_first",""
"","","","","","html-keyboard-response","226","456096","0.0-13.0-1.0-1.0-0.0-1.33","null","<span style='color:GreenYellow; font-size: 70px;'>正确! </span>","null","","","","","","","","","","","","","","","","","","","","","","","feedback_test"
"","","","","","psychophysics","227","458041","0.0-13.0-1.0-1.0-0.0-0.34","792","","j","","","","","","","","","","","","","key","j","16.666724137931254","640","356","j","true","img/C_ambi40.png","坏人","word_first",""
"","","","","","html-keyboard-response","228","458350","0.0-13.0-1.0-1.0-0.0-1.34","null","<span style='color:GreenYellow; font-size: 70px;'>正确! </span>","null","","","","","","","","","","","","","","","","","","","","","","","feedback_test"
"","","","","","psychophysics","229","460161","0.0-13.0-1.0-1.0-0.0-0.35","660","","f","","","","","","","","","","","","","key","f","16.54260747663559","640","356","f","true","img/S_ambi40.png","坏人","word_first",""
"","","","","","html-keyboard-response","230","460471","0.0-13.0-1.0-1.0-0.0-1.35","null","<span style='color:GreenYellow; font-size: 70px;'>正确! </span>","null","","","","","","","","","","","","","","","","","","","","","","","feedback_test"
"","","","","","psychophysics","231","462546","0.0-13.0-1.0-1.0-0.0-0.36","923","","j","","","","","","","","","","","","","key","j","16.664569105690806","640","356","j","true","img/T_ambi40.png","好人","word_first",""
"","","","","","html-keyboard-response","232","462847","0.0-13.0-1.0-1.0-0.0-1.36","null","<span style='color:GreenYellow; font-size: 70px;'>正确! </span>","null","","","","","","","","","","","","","","","","","","","","","","","feedback_test"
"","","","","","psychophysics","233","464867","0.0-13.0-1.0-1.0-0.0-0.37","867","","j","","","","","","","","","","","","","key","j","16.667649999999654","640","356","j","true","img/T_ambi40.png","好人","word_first",""
"","","","","","html-keyboard-response","234","465178","0.0-13.0-1.0-1.0-0.0-1.37","null","<span style='color:GreenYellow; font-size: 70px;'>正确! </span>","null","","","","","","","","","","","","","","","","","","","","","","","feedback_test"
"","","","","","psychophysics","235","466805","0.0-13.0-1.0-1.0-0.0-0.38","475","","j","","","","","","","","","","","","","key","j","16.667649484535957","640","356","j","true","img/S_ambi40.png","常人","word_first",""
"","","","","","html-keyboard-response","236","467119","0.0-13.0-1.0-1.0-0.0-1.38","null","<span style='color:GreenYellow; font-size: 70px;'>正确! </span>","null","","","","","","","","","","","","","","","","","","","","","","","feedback_test"
"","","","","","psychophysics","237","469043","0.0-13.0-1.0-1.0-0.0-0.39","772","","j","","","","","","","","","","","","","key","j","16.668008771929745","640","356","j","true","img/C_ambi40.png","坏人","word_first",""
"","","","","","html-keyboard-response","238","469345","0.0-13.0-1.0-1.0-0.0-1.39","null","<span style='color:GreenYellow; font-size: 70px;'>正确! </span>","null","","","","","","","","","","","","","","","","","","","","","","","feedback_test"
"","","","","","psychophysics","239","471458","0.0-13.0-1.0-1.0-0.0-0.40","962","","j","","","","","","","","","","","","","key","j","16.66401587301562","640","356","j","true","img/C_ambi40.png","坏人","word_first",""
"","","","","","html-keyboard-response","240","471759","0.0-13.0-1.0-1.0-0.0-1.40","null","<span style='color:GreenYellow; font-size: 70px;'>正确! </span>","null","","","","","","","","","","","","","","","","","","","","","","","feedback_test"
"","","","","","psychophysics","241","473491","0.0-13.0-1.0-1.0-0.0-0.41","580","","f","","","","","","","","","","","","","key","f","16.66553398058241","640","356","f","true","img/T_ambi40.png","常人","word_first",""
"","","","","","html-keyboard-response","242","473792","0.0-13.0-1.0-1.0-0.0-1.41","null","<span style='color:GreenYellow; font-size: 70px;'>正确! </span>","null","","","","","","","","","","","","","","","","","","","","","","","feedback_test"
"","","","","","psychophysics","243","475996","0.0-13.0-1.0-1.0-0.0-0.42","1053","","j","","","","","","","","","","","","","key","j","16.66541984732812","640","356","f","false","img/C_ambi40.png","好人","word_first",""
"","","","","","html-keyboard-response","244","476299","0.0-13.0-1.0-1.0-0.0-1.42","null","<span style='color:red; font-size: 70px;'>错误! </span>","null","","","","","","","","","","","","","","","","","","","","","","","feedback_test"
"","","","","","psychophysics","245","478165","0.0-13.0-1.0-1.0-0.0-0.43","715","","f","","","","","","","","","","","","","key","f","16.666585585585405","640","356","f","true","img/S_ambi40.png","好人","word_first",""
"","","","","","html-keyboard-response","246","478471","0.0-13.0-1.0-1.0-0.0-1.43","null","<span style='color:GreenYellow; font-size: 70px;'>正确! </span>","null","","","","","","","","","","","","","","","","","","","","","","","feedback_test"
"","","","","","psychophysics","247","480556","0.0-13.0-1.0-1.0-0.0-0.44","932","","j","","","","","","","","","","","","","key","j","16.66624193548388","640","356","f","false","img/T_ambi40.png","坏人","word_first",""
"","","","","","html-keyboard-response","248","480858","0.0-13.0-1.0-1.0-0.0-1.44","null","<span style='color:red; font-size: 70px;'>错误! </span>","null","","","","","","","","","","","","","","","","","","","","","","","feedback_test"
"","","","","","psychophysics","249","482591","0.0-13.0-1.0-1.0-0.0-0.45","581","","j","","","","","","","","","","","","","key","j","16.666048543689346","640","356","j","true","img/S_ambi40.png","常人","word_first",""
"","","","","","html-keyboard-response","250","482892","0.0-13.0-1.0-1.0-0.0-1.45","null","<span style='color:GreenYellow; font-size: 70px;'>正确! </span>","null","","","","","","","","","","","","","","","","","","","","","","","feedback_test"
"","","","","","psychophysics","251","485040","0.0-13.0-1.0-1.0-0.0-0.46","996","","f","","","","","","","","","","","","","key","f","16.66632031249992","640","356","f","true","img/S_ambi40.png","坏人","word_first",""
"","","","","","html-keyboard-response","252","485341","0.0-13.0-1.0-1.0-0.0-1.46","null","<span style='color:GreenYellow; font-size: 70px;'>正确! </span>","null","","","","","","","","","","","","","","","","","","","","","","","feedback_test"
"","","","","","psychophysics","253","487693","0.0-13.0-1.0-1.0-0.0-0.47","1201","","f","","","","","","","","","","","","","key","f","16.666278571428432","640","356","f","true","img/C_ambi40.png","常人","word_first",""
"","","","","","html-keyboard-response","254","488002","0.0-13.0-1.0-1.0-0.0-1.47","null","<span style='color:GreenYellow; font-size: 70px;'>正确! </span>","null","","","","","","","","","","","","","","","","","","","","","","","feedback_test"
"","","","","","psychophysics","255","489897","0.0-13.0-1.0-1.0-0.0-0.48","741","","j","","","","","","","","","","","","","key","j","16.669178571428347","640","356","f","false","img/S_ambi40.png","好人","word_first",""
"","","","","","html-keyboard-response","256","490198","0.0-13.0-1.0-1.0-0.0-1.48","null","<span style='color:red; font-size: 70px;'>错误! </span>","null","","","","","","","","","","","","","","","","","","","","","","","feedback_test"
"","","","","","psychophysics","257","492149","0.0-13.0-1.0-1.0-0.0-0.49","800","","j","","","","","","","","","","","","","key","j","16.66752586206913","640","356","j","true","img/T_ambi40.png","好人","word_first",""
"","","","","","html-keyboard-response","258","492460","0.0-13.0-1.0-1.0-0.0-1.49","null","<span style='color:GreenYellow; font-size: 70px;'>正确! </span>","null","","","","","","","","","","","","","","","","","","","","","","","feedback_test"
"","","","","","psychophysics","259","494167","0.0-13.0-1.0-1.0-0.0-0.50","556","","f","","","","","","","","","","","","","key","f","16.66617647058835","640","356","f","true","img/C_ambi40.png","常人","word_first",""
"","","","","","html-keyboard-response","260","494483","0.0-13.0-1.0-1.0-0.0-1.50","null","<span style='color:GreenYellow; font-size: 70px;'>正确! </span>","null","","","","","","","","","","","","","","","","","","","","","","","feedback_test"
"","","","","","psychophysics","261","496311","0.0-13.0-1.0-1.0-0.0-0.51","667","","f","","","","","","","","","","","","","key","f","16.66640740740749","640","356","f","true","img/T_ambi40.png","常人","word_first",""
"","","","","","html-keyboard-response","262","496622","0.0-13.0-1.0-1.0-0.0-1.51","null","<span style='color:GreenYellow; font-size: 70px;'>正确! </span>","null","","","","","","","","","","","","","","","","","","","","","","","feedback_test"
"","","","","","psychophysics","263","498474","0.0-13.0-1.0-1.0-0.0-0.52","701","","f","","","","","","","","","","","","","key","f","16.66386363636385","640","356","f","true","img/S_ambi40.png","坏人","word_first",""
"","","","","","html-keyboard-response","264","498788","0.0-13.0-1.0-1.0-0.0-1.52","null","<span style='color:GreenYellow; font-size: 70px;'>正确! </span>","null","","","","","","","","","","","","","","","","","","","","","","","feedback_test"
"","","","","","psychophysics","265","500561","0.0-13.0-1.0-1.0-0.0-0.53","621","","j","","","","","","","","","","","","","key","j","16.668114285714303","640","356","j","true","img/S_ambi40.png","常人","word_first",""
"","","","","","html-keyboard-response","266","500864","0.0-13.0-1.0-1.0-0.0-1.53","null","<span style='color:GreenYellow; font-size: 70px;'>正确! </span>","null","","","","","","","","","","","","","","","","","","","","","","","feedback_test"
"","","","","","psychophysics","267","502457","0.0-13.0-1.0-1.0-0.0-0.54","442","","j","","","","","","","","","","","","","key","j","16.666536842105224","640","356","j","true","img/S_ambi40.png","常人","word_first",""
"","","","","","html-keyboard-response","268","502761","0.0-13.0-1.0-1.0-0.0-1.54","null","<span style='color:GreenYellow; font-size: 70px;'>正确! </span>","null","","","","","","","","","","","","","","","","","","","","","","","feedback_test"
"","","","","","psychophysics","269","504545","0.0-13.0-1.0-1.0-0.0-0.55","633","","j","","","","","","","","","","","","","key","j","16.666499999999772","640","356","j","true","img/T_ambi40.png","好人","word_first",""
"","","","","","html-keyboard-response","270","504846","0.0-13.0-1.0-1.0-0.0-1.55","null","<span style='color:GreenYellow; font-size: 70px;'>正确! </span>","null","","","","","","","","","","","","","","","","","","","","","","","feedback_test"
"","","","","","psychophysics","271","506586","0.0-13.0-1.0-1.0-0.0-0.56","588","","f","","","","","","","","","","","","","key","f","16.66609615384592","640","356","f","true","img/T_ambi40.png","坏人","word_first",""
"","","","","","html-keyboard-response","272","506893","0.0-13.0-1.0-1.0-0.0-1.56","null","<span style='color:GreenYellow; font-size: 70px;'>正确! </span>","null","","","","","","","","","","","","","","","","","","","","","","","feedback_test"
"","","","","","psychophysics","273","508903","0.0-13.0-1.0-1.0-0.0-0.57","858","","f","","","","","","","","","","","","","key","f","16.666008333333593","640","356","f","true","img/C_ambi40.png","好人","word_first",""
"","","","","","html-keyboard-response","274","509213","0.0-13.0-1.0-1.0-0.0-1.57","null","<span style='color:GreenYellow; font-size: 70px;'>正确! </span>","null","","","","","","","","","","","","","","","","","","","","","","","feedback_test"
"","","","","","psychophysics","275","511174","0.0-13.0-1.0-1.0-0.0-0.58","808","","j","","","","","","","","","","","","","key","j","16.66890598290588","640","356","j","true","img/C_ambi40.png","坏人","word_first",""
"","","","","","html-keyboard-response","276","511476","0.0-13.0-1.0-1.0-0.0-1.58","null","<span style='color:GreenYellow; font-size: 70px;'>正确! </span>","null","","","","","","","","","","","","","","","","","","","","","","","feedback_test"
"","","","","","psychophysics","277","513137","0.0-13.0-1.0-1.0-0.0-0.59","508","","j","","","","","","","","","","","","","key","j","16.667070707071083","640","356","j","true","img/C_ambi40.png","坏人","word_first",""
"","","","","","html-keyboard-response","278","513438","0.0-13.0-1.0-1.0-0.0-1.59","null","<span style='color:GreenYellow; font-size: 70px;'>正确! </span>","null","","","","","","","","","","","","","","","","","","","","","","","feedback_test"
"","","","","","html-keyboard-response","279","516908","0.0-13.0-1.0-1.0-1.0","3468","<style>.context{color:white; font-size: 35px; line-height:40px}</style>                              <div><p class='context'>您正确回答了90% 的试次。</p><p class='context'>您的平均反应时为751毫秒。</p><p class='context'>请按任意键进入休息</p></div>","arrowdown","","","","","","","","","","","","","","","","","","","","","","",""
"","","","","","html-button-response","280","580583","0.0-13.0-1.0-1.0-2.0","63673","
                      <p>您当前还剩余3组实验</p>
                      <p>现在是休息时间，当您结束休息后，您可以点击 结束休息 按钮 继续</p>
                      <p>建议休息时间还剩余<span id=""iii"">60</span>秒</p>","0","","","","","","","","","","","","","","","","","","","","","","",""
"","","","","","psychophysics","281","582632","0.0-13.0-1.0-1.0-0.1-0.60","895","","j","","","","","","","","","","","","","key","j","16.667565573771203","640","356","j","true","img/T_ambi40.png","好人","word_first",""
"","","","","","html-keyboard-response","282","582943","0.0-13.0-1.0-1.0-0.1-1.60","null","<span style='color:GreenYellow; font-size: 70px;'>正确! </span>","null","","","","","","","","","","","","","","","","","","","","","","","feedback_test"
"","","","","","psychophysics","283","584694","0.0-13.0-1.0-1.0-0.1-0.61","599","","f","","","","","","","","","","","","","key","f","16.66649999999992","640","356","f","true","img/T_ambi40.png","坏人","word_first",""
"","","","","","html-keyboard-response","284","585010","0.0-13.0-1.0-1.0-0.1-1.61","null","<span style='color:GreenYellow; font-size: 70px;'>正确! </span>","null","","","","","","","","","","","","","","","","","","","","","","","feedback_test"
"","","","","","psychophysics","285","586781","0.0-13.0-1.0-1.0-0.1-0.62","620","","f","","","","","","","","","","","","","key","f","16.669609523809605","640","356","f","true","img/T_ambi40.png","常人","word_first",""
"","","","","","html-keyboard-response","286","587085","0.0-13.0-1.0-1.0-0.1-1.62","null","<span style='color:GreenYellow; font-size: 70px;'>正确! </span>","null","","","","","","","","","","","","","","","","","","","","","","","feedback_test"
"","","","","","psychophysics","287","589515","0.0-13.0-1.0-1.0-0.1-0.63","1278","","f","","","","","","","","","","","","","key","f","16.663882758620932","640","356","f","true","img/S_ambi40.png","好人","word_first",""
"","","","","","html-keyboard-response","288","589824","0.0-13.0-1.0-1.0-0.1-1.63","null","<span style='color:GreenYellow; font-size: 70px;'>正确! </span>","null","","","","","","","","","","","","","","","","","","","","","","","feedback_test"
"","","","","","psychophysics","289","591994","0.0-13.0-1.0-1.0-0.1-0.64","1018","","f","","","","","","","","","","","","","key","f","16.664139534883713","640","356","f","true","img/S_ambi40.png","坏人","word_first",""
"","","","","","html-keyboard-response","290","592296","0.0-13.0-1.0-1.0-0.1-1.64","null","<span style='color:GreenYellow; font-size: 70px;'>正确! </span>","null","","","","","","","","","","","","","","","","","","","","","","","feedback_test"
"","","","","","psychophysics","291","594129","0.0-13.0-1.0-1.0-0.1-0.65","681","","j","","","","","","","","","","","","","key","j","16.558212962963065","640","356","j","true","img/S_ambi40.png","常人","word_first",""
"","","","","","html-keyboard-response","292","594431","0.0-13.0-1.0-1.0-0.1-1.65","null","<span style='color:GreenYellow; font-size: 70px;'>正确! </span>","null","","","","","","","","","","","","","","","","","","","","","","","feedback_test"
"","","","","","psychophysics","293","596133","0.0-13.0-1.0-1.0-0.1-0.66","551","","j","","","","","","","","","","","","","key","j","16.66693069306917","640","356","f","false","img/C_ambi40.png","好人","word_first",""
"","","","","","html-keyboard-response","294","596437","0.0-13.0-1.0-1.0-0.1-1.66","null","<span style='color:red; font-size: 70px;'>错误! </span>","null","","","","","","","","","","","","","","","","","","","","","","","feedback_test"
"","","","","","psychophysics","295","598160","0.0-13.0-1.0-1.0-0.1-0.67","571","","j","","","","","","","","","","","","","key","j","16.665539215686366","640","356","j","true","img/S_ambi40.png","常人","word_first",""
"","","","","","html-keyboard-response","296","598474","0.0-13.0-1.0-1.0-0.1-1.67","null","<span style='color:GreenYellow; font-size: 70px;'>正确! </span>","null","","","","","","","","","","","","","","","","","","","","","","","feedback_test"
"","","","","","psychophysics","297","600415","0.0-13.0-1.0-1.0-0.1-0.68","790","","j","","","","","","","","","","","","","key","j","16.666474137930923","640","356","j","true","img/C_ambi40.png","坏人","word_first",""
"","","","","","html-keyboard-response","298","600729","0.0-13.0-1.0-1.0-0.1-1.68","null","<span style='color:GreenYellow; font-size: 70px;'>正确! </span>","null","","","","","","","","","","","","","","","","","","","","","","","feedback_test"
"","","","","","psychophysics","299","602443","0.0-13.0-1.0-1.0-0.1-0.69","562","","f","","","","","","","","","","","","","key","f","16.669009803922155","640","356","f","true","img/C_ambi40.png","常人","word_first",""
"","","","","","html-keyboard-response","300","602746","0.0-13.0-1.0-1.0-0.1-1.69","null","<span style='color:GreenYellow; font-size: 70px;'>正确! </span>","null","","","","","","","","","","","","","","","","","","","","","","","feedback_test"
"","","","","","psychophysics","301","604558","0.0-13.0-1.0-1.0-0.1-0.70","661","","j","","","","","","","","","","","","","key","j","16.666999999999664","640","356","j","true","img/T_ambi40.png","好人","word_first",""
"","","","","","html-keyboard-response","302","604862","0.0-13.0-1.0-1.0-0.1-1.70","null","<span style='color:GreenYellow; font-size: 70px;'>正确! </span>","null","","","","","","","","","","","","","","","","","","","","","","","feedback_test"
"","","","","","psychophysics","303","607515","0.0-13.0-1.0-1.0-0.1-0.71","null","","null","","","","","","","","","","","","","key","null","16.666113924050904","640","356","j","false","img/C_ambi40.png","坏人","word_first",""
"","","","","","html-keyboard-response","304","607825","0.0-13.0-1.0-1.0-0.1-1.71","null","<span class='add_' style='color:yellow; font-size: 70px;'> 太慢! </span>","null","","","","","","","","","","","","","","","","","","","","","","","feedback_test"
"","","","","","psychophysics","305","609636","0.0-13.0-1.0-1.0-0.1-0.72","660","","f","","","","","","","","","","","","","key","f","16.66634259259229","640","356","f","true","img/C_ambi40.png","好人","word_first",""
"","","","","","html-keyboard-response","306","609941","0.0-13.0-1.0-1.0-0.1-1.72","null","<span style='color:GreenYellow; font-size: 70px;'>正确! </span>","null","","","","","","","","","","","","","","","","","","","","","","","feedback_test"
"","","","","","psychophysics","307","611843","0.0-13.0-1.0-1.0-0.1-0.73","751","","f","","","","","","","","","","","","","key","f","16.66654867256695","640","356","f","true","img/S_ambi40.png","好人","word_first",""
"","","","","","html-keyboard-response","308","612155","0.0-13.0-1.0-1.0-0.1-1.73","null","<span style='color:GreenYellow; font-size: 70px;'>正确! </span>","null","","","","","","","","","","","","","","","","","","","","","","","feedback_test"
"","","","","","psychophysics","309","614125","0.0-13.0-1.0-1.0-0.1-0.74","818","","j","","","","","","","","","","","","","key","j","16.666495726496564","640","356","j","true","img/S_ambi40.png","常人","word_first",""
"","","","","","html-keyboard-response","310","614430","0.0-13.0-1.0-1.0-0.1-1.74","null","<span style='color:GreenYellow; font-size: 70px;'>正确! </span>","null","","","","","","","","","","","","","","","","","","","","","","","feedback_test"
"","","","","","psychophysics","311","616476","0.0-13.0-1.0-1.0-0.1-0.75","895","","f","","","","","","","","","","","","","key","f","16.554495867768935","640","356","f","true","img/S_ambi40.png","坏人","word_first",""
"","","","","","html-keyboard-response","312","616790","0.0-13.0-1.0-1.0-0.1-1.75","null","<span style='color:GreenYellow; font-size: 70px;'>正确! </span>","null","","","","","","","","","","","","","","","","","","","","","","","feedback_test"
"","","","","","psychophysics","313","618708","0.0-13.0-1.0-1.0-0.1-0.76","766","","f","","","","","","","","","","","","","key","f","16.665798245614656","640","356","f","true","img/T_ambi40.png","坏人","word_first",""
"","","","","","html-keyboard-response","314","619024","0.0-13.0-1.0-1.0-0.1-1.76","null","<span style='color:GreenYellow; font-size: 70px;'>正确! </span>","null","","","","","","","","","","","","","","","","","","","","","","","feedback_test"
"","","","","","psychophysics","315","621056","0.0-13.0-1.0-1.0-0.1-0.77","881","","j","","","","","","","","","","","","","key","j","16.667041322314528","640","356","j","true","img/T_ambi40.png","好人","word_first",""
"","","","","","html-keyboard-response","316","621371","0.0-13.0-1.0-1.0-0.1-1.77","null","<span style='color:GreenYellow; font-size: 70px;'>正确! </span>","null","","","","","","","","","","","","","","","","","","","","","","","feedback_test"
"","","","","","psychophysics","317","623107","0.0-13.0-1.0-1.0-0.1-0.78","584","","f","","","","","","","","","","","","","key","f","16.667048543689376","640","356","f","true","img/C_ambi40.png","常人","word_first",""
"","","","","","html-keyboard-response","318","623416","0.0-13.0-1.0-1.0-0.1-1.78","null","<span style='color:GreenYellow; font-size: 70px;'>正确! </span>","null","","","","","","","","","","","","","","","","","","","","","","","feedback_test"
"","","","","","psychophysics","319","625409","0.0-13.0-1.0-1.0-0.1-0.79","840","","f","","","","","","","","","","","","","key","f","16.666262711863965","640","356","f","true","img/T_ambi40.png","常人","word_first",""
"","","","","","html-keyboard-response","320","625710","0.0-13.0-1.0-1.0-0.1-1.79","null","<span style='color:GreenYellow; font-size: 70px;'>正确! </span>","null","","","","","","","","","","","","","","","","","","","","","","","feedback_test"
"","","","","","psychophysics","321","627543","0.0-13.0-1.0-1.0-0.1-0.80","681","","j","","","","","","","","","","","","","key","j","16.66604587156005","640","356","j","true","img/C_ambi40.png","坏人","word_first",""
"","","","","","html-keyboard-response","322","627858","0.0-13.0-1.0-1.0-0.1-1.80","null","<span style='color:GreenYellow; font-size: 70px;'>正确! </span>","null","","","","","","","","","","","","","","","","","","","","","","","feedback_test"
"","","","","","psychophysics","323","629541","0.0-13.0-1.0-1.0-0.1-0.81","532","","j","","","","","","","","","","","","","key","j","16.665100000000095","640","356","j","true","img/C_ambi40.png","坏人","word_first",""
"","","","","","html-keyboard-response","324","629842","0.0-13.0-1.0-1.0-0.1-1.81","null","<span style='color:GreenYellow; font-size: 70px;'>正确! </span>","null","","","","","","","","","","","","","","","","","","","","","","","feedback_test"
"","","","","","psychophysics","325","631515","0.0-13.0-1.0-1.0-0.1-0.82","522","","j","","","","","","","","","","","","","key","j","16.66954999999958","640","356","j","true","img/T_ambi40.png","好人","word_first",""
"","","","","","html-keyboard-response","326","631826","0.0-13.0-1.0-1.0-0.1-1.82","null","<span style='color:GreenYellow; font-size: 70px;'>正确! </span>","null","","","","","","","","","","","","","","","","","","","","","","","feedback_test"
"","","","","","psychophysics","327","633588","0.0-13.0-1.0-1.0-0.1-0.83","611","","j","","","","","","","","","","","","","key","j","16.66780000000061","640","356","j","true","img/S_ambi40.png","常人","word_first",""
"","","","","","html-keyboard-response","328","633900","0.0-13.0-1.0-1.0-0.1-1.83","null","<span style='color:GreenYellow; font-size: 70px;'>正确! </span>","null","","","","","","","","","","","","","","","","","","","","","","","feedback_test"
"","","","","","psychophysics","329","635799","0.0-13.0-1.0-1.0-0.1-0.84","746","","j","","","","","","","","","","","","","key","j","16.663982300885202","640","356","j","true","img/S_ambi40.png","常人","word_first",""
"","","","","","html-keyboard-response","330","636104","0.0-13.0-1.0-1.0-0.1-1.84","null","<span style='color:GreenYellow; font-size: 70px;'>正确! </span>","null","","","","","","","","","","","","","","","","","","","","","","","feedback_test"
"","","","","","psychophysics","331","637902","0.0-13.0-1.0-1.0-0.1-0.85","646","","j","","","","","","","","","","","","","key","j","16.666570093458798","640","356","j","true","img/T_ambi40.png","好人","word_first",""
"","","","","","html-keyboard-response","332","638210","0.0-13.0-1.0-1.0-0.1-1.85","null","<span style='color:GreenYellow; font-size: 70px;'>正确! </span>","null","","","","","","","","","","","","","","","","","","","","","","","feedback_test"
"","","","","","psychophysics","333","640092","0.0-13.0-1.0-1.0-0.1-0.86","730","","f","","","","","","","","","","","","","key","f","16.668687500000356","640","356","f","true","img/C_ambi40.png","好人","word_first",""
"","","","","","html-keyboard-response","334","640408","0.0-13.0-1.0-1.0-0.1-1.86","null","<span style='color:GreenYellow; font-size: 70px;'>正确! </span>","null","","","","","","","","","","","","","","","","","","","","","","","feedback_test"
"","","","","","psychophysics","335","642519","0.0-13.0-1.0-1.0-0.1-0.87","959","","f","","","","","","","","","","","","","key","f","16.66747619047676","640","356","f","true","img/S_ambi40.png","好人","word_first",""
"","","","","","html-keyboard-response","336","642821","0.0-13.0-1.0-1.0-0.1-1.87","null","<span style='color:GreenYellow; font-size: 70px;'>正确! </span>","null","","","","","","","","","","","","","","","","","","","","","","","feedback_test"
"","","","","","psychophysics","337","644966","0.0-13.0-1.0-1.0-0.1-0.88","994","","j","","","","","","","","","","","","","key","j","16.665976562499964","640","356","j","true","img/C_ambi40.png","坏人","word_first",""
"","","","","","html-keyboard-response","338","645281","0.0-13.0-1.0-1.0-0.1-1.88","null","<span style='color:GreenYellow; font-size: 70px;'>正确! </span>","null","","","","","","","","","","","","","","","","","","","","","","","feedback_test"
"","","","","","psychophysics","339","647092","0.0-13.0-1.0-1.0-0.1-0.89","659","","j","","","","","","","","","","","","","key","j","16.668476635514036","640","356","j","true","img/T_ambi40.png","好人","word_first",""
"","","","","","html-keyboard-response","340","647405","0.0-13.0-1.0-1.0-0.1-1.89","null","<span style='color:GreenYellow; font-size: 70px;'>正确! </span>","null","","","","","","","","","","","","","","","","","","","","","","","feedback_test"
"","","","","","psychophysics","341","649251","0.0-13.0-1.0-1.0-0.1-0.90","694","","f","","","","","","","","","","","","","key","f","16.666990909091492","640","356","f","true","img/S_ambi40.png","坏人","word_first",""
"","","","","","html-keyboard-response","342","649556","0.0-13.0-1.0-1.0-0.1-1.90","null","<span style='color:GreenYellow; font-size: 70px;'>正确! </span>","null","","","","","","","","","","","","","","","","","","","","","","","feedback_test"
"","","","","","psychophysics","343","651309","0.0-13.0-1.0-1.0-0.1-0.91","601","","j","","","","","","","","","","","","","key","j","16.665788461539286","640","356","j","true","img/S_ambi40.png","常人","word_first",""
"","","","","","html-keyboard-response","344","651622","0.0-13.0-1.0-1.0-0.1-1.91","null","<span style='color:GreenYellow; font-size: 70px;'>正确! </span>","null","","","","","","","","","","","","","","","","","","","","","","","feedback_test"
"","","","","","psychophysics","345","653341","0.0-13.0-1.0-1.0-0.1-0.92","566","","j","","","","","","","","","","","","","key","j","16.66644117647015","640","356","j","true","img/C_ambi40.png","坏人","word_first",""
"","","","","","html-keyboard-response","346","653654","0.0-13.0-1.0-1.0-0.1-1.92","null","<span style='color:GreenYellow; font-size: 70px;'>正确! </span>","null","","","","","","","","","","","","","","","","","","","","","","","feedback_test"
"","","","","","psychophysics","347","655505","0.0-13.0-1.0-1.0-0.1-0.93","699","","f","","","","","","","","","","","","","key","f","16.666700000000525","640","356","f","true","img/T_ambi40.png","坏人","word_first",""
"","","","","","html-keyboard-response","348","655816","0.0-13.0-1.0-1.0-0.1-1.93","null","<span style='color:GreenYellow; font-size: 70px;'>正确! </span>","null","","","","","","","","","","","","","","","","","","","","","","","feedback_test"
"","","","","","psychophysics","349","657472","0.0-13.0-1.0-1.0-0.1-0.94","504","","f","","","","","","","","","","","","","key","f","16.663122448979934","640","356","f","true","img/T_ambi40.png","常人","word_first",""
"","","","","","html-keyboard-response","350","657773","0.0-13.0-1.0-1.0-0.1-1.94","null","<span style='color:GreenYellow; font-size: 70px;'>正确! </span>","null","","","","","","","","","","","","","","","","","","","","","","","feedback_test"
"","","","","","psychophysics","351","659659","0.0-13.0-1.0-1.0-0.1-0.95","734","","f","","","","","","","","","","","","","key","f","16.66536607142812","640","356","f","true","img/C_ambi40.png","常人","word_first",""
"","","","","","html-keyboard-response","352","659974","0.0-13.0-1.0-1.0-0.1-1.95","null","<span style='color:GreenYellow; font-size: 70px;'>正确! </span>","null","","","","","","","","","","","","","","","","","","","","","","","feedback_test"
"","","","","","psychophysics","353","661729","0.0-13.0-1.0-1.0-0.1-0.96","604","","f","","","","","","","","","","","","","key","f","16.667346153845966","640","356","f","true","img/S_ambi40.png","坏人","word_first",""
"","","","","","html-keyboard-response","354","662041","0.0-13.0-1.0-1.0-0.1-1.96","null","<span style='color:GreenYellow; font-size: 70px;'>正确! </span>","null","","","","","","","","","","","","","","","","","","","","","","","feedback_test"
"","","","","","psychophysics","355","663788","0.0-13.0-1.0-1.0-0.1-0.97","596","","j","","","","","","","","","","","","","key","j","16.665538461538606","640","356","j","true","img/C_ambi40.png","坏人","word_first",""
"","","","","","html-keyboard-response","356","664089","0.0-13.0-1.0-1.0-0.1-1.97","null","<span style='color:GreenYellow; font-size: 70px;'>正确! </span>","null","","","","","","","","","","","","","","","","","","","","","","","feedback_test"
"","","","","","psychophysics","357","665819","0.0-13.0-1.0-1.0-0.1-0.98","577","","j","","","","","","","","","","","","","key","j","16.66572815533931","640","356","j","true","img/T_ambi40.png","好人","word_first",""
"","","","","","html-keyboard-response","358","666134","0.0-13.0-1.0-1.0-0.1-1.98","null","<span style='color:GreenYellow; font-size: 70px;'>正确! </span>","null","","","","","","","","","","","","","","","","","","","","","","","feedback_test"
"","","","","","psychophysics","359","668537","0.0-13.0-1.0-1.0-0.1-0.99","1251","","f","","","","","","","","","","","","","key","f","16.666237762237742","640","356","f","true","img/C_ambi40.png","好人","word_first",""
"","","","","","html-keyboard-response","360","668845","0.0-13.0-1.0-1.0-0.1-1.99","null","<span style='color:GreenYellow; font-size: 70px;'>正确! </span>","null","","","","","","","","","","","","","","","","","","","","","","","feedback_test"
"","","","","","psychophysics","361","670658","0.0-13.0-1.0-1.0-0.1-0.100","662","","f","","","","","","","","","","","","","key","f","16.66690740740806","640","356","f","true","img/C_ambi40.png","常人","word_first",""
"","","","","","html-keyboard-response","362","670974","0.0-13.0-1.0-1.0-0.1-1.100","null","<span style='color:GreenYellow; font-size: 70px;'>正确! </span>","null","","","","","","","","","","","","","","","","","","","","","","","feedback_test"
"","","","","","psychophysics","363","672839","0.0-13.0-1.0-1.0-0.1-0.101","714","","f","","","","","","","","","","","","","key","f","16.666918918919365","640","356","f","true","img/T_ambi40.png","坏人","word_first",""
"","","","","","html-keyboard-response","364","673152","0.0-13.0-1.0-1.0-0.1-1.101","null","<span style='color:GreenYellow; font-size: 70px;'>正确! </span>","null","","","","","","","","","","","","","","","","","","","","","","","feedback_test"
"","","","","","psychophysics","365","675009","0.0-13.0-1.0-1.0-0.1-0.102","705","","j","","","","","","","","","","","","","key","j","16.665572727272625","640","356","j","true","img/S_ambi40.png","常人","word_first",""
"","","","","","html-keyboard-response","366","675318","0.0-13.0-1.0-1.0-0.1-1.102","null","<span style='color:GreenYellow; font-size: 70px;'>正确! </span>","null","","","","","","","","","","","","","","","","","","","","","","","feedback_test"
"","","","","","psychophysics","367","677375","0.0-13.0-1.0-1.0-0.1-0.103","905","","j","","","","","","","","","","","","","key","j","16.667336065574077","640","356","j","true","img/C_ambi40.png","坏人","word_first",""
"","","","","","html-keyboard-response","368","677683","0.0-13.0-1.0-1.0-0.1-1.103","null","<span style='color:GreenYellow; font-size: 70px;'>正确! </span>","null","","","","","","","","","","","","","","","","","","","","","","","feedback_test"
"","","","","","psychophysics","369","679829","0.0-13.0-1.0-1.0-0.1-0.104","994","","f","","","","","","","","","","","","","key","f","16.66716535433056","640","356","f","true","img/T_ambi40.png","常人","word_first",""
"","","","","","html-keyboard-response","370","680130","0.0-13.0-1.0-1.0-0.1-1.104","null","<span style='color:GreenYellow; font-size: 70px;'>正确! </span>","null","","","","","","","","","","","","","","","","","","","","","","","feedback_test"
"","","","","","psychophysics","371","681757","0.0-13.0-1.0-1.0-0.1-0.105","477","","j","","","","","","","","","","","","","key","j","16.666135416665686","640","356","j","true","img/S_ambi40.png","常人","word_first",""
"","","","","","html-keyboard-response","372","682069","0.0-13.0-1.0-1.0-0.1-1.105","null","<span style='color:GreenYellow; font-size: 70px;'>正确! </span>","null","","","","","","","","","","","","","","","","","","","","","","","feedback_test"
"","","","","","psychophysics","373","684264","0.0-13.0-1.0-1.0-0.1-0.106","1043","","j","","","","","","","","","","","","","key","j","16.665801526718234","640","356","j","true","img/T_ambi40.png","好人","word_first",""
"","","","","","html-keyboard-response","374","684573","0.0-13.0-1.0-1.0-0.1-1.106","null","<span style='color:GreenYellow; font-size: 70px;'>正确! </span>","null","","","","","","","","","","","","","","","","","","","","","","","feedback_test"
"","","","","","psychophysics","375","686256","0.0-13.0-1.0-1.0-0.1-0.107","532","","f","","","","","","","","","","","","","key","f","16.666940000000178","640","356","f","true","img/S_ambi40.png","好人","word_first",""
"","","","","","html-keyboard-response","376","686564","0.0-13.0-1.0-1.0-0.1-1.107","null","<span style='color:GreenYellow; font-size: 70px;'>正确! </span>","null","","","","","","","","","","","","","","","","","","","","","","","feedback_test"
"","","","","","psychophysics","377","688371","0.0-13.0-1.0-1.0-0.1-0.108","654","","f","","","","","","","","","","","","","key","f","16.66650467289712","640","356","f","true","img/T_ambi40.png","常人","word_first",""
"","","","","","html-keyboard-response","378","688675","0.0-13.0-1.0-1.0-0.1-1.108","null","<span style='color:GreenYellow; font-size: 70px;'>正确! </span>","null","","","","","","","","","","","","","","","","","","","","","","","feedback_test"
"","","","","","psychophysics","379","690380","0.0-13.0-1.0-1.0-0.1-0.109","554","","j","","","","","","","","","","","","","key","j","16.66628431372559","640","356","j","true","img/T_ambi40.png","好人","word_first",""
"","","","","","html-keyboard-response","380","690692","0.0-13.0-1.0-1.0-0.1-1.109","null","<span style='color:GreenYellow; font-size: 70px;'>正确! </span>","null","","","","","","","","","","","","","","","","","","","","","","","feedback_test"
"","","","","","psychophysics","381","692483","0.0-13.0-1.0-1.0-0.1-0.110","637","","f","","","","","","","","","","","","","key","f","16.66670093457998","640","356","f","true","img/C_ambi40.png","常人","word_first",""
"","","","","","html-keyboard-response","382","692796","0.0-13.0-1.0-1.0-0.1-1.110","null","<span style='color:GreenYellow; font-size: 70px;'>正确! </span>","null","","","","","","","","","","","","","","","","","","","","","","","feedback_test"
"","","","","","psychophysics","383","695124","0.0-13.0-1.0-1.0-0.1-0.111","1178","","f","","","","","","","","","","","","","key","f","16.666565217391547","640","356","f","true","img/C_ambi40.png","好人","word_first",""
"","","","","","html-keyboard-response","384","695429","0.0-13.0-1.0-1.0-0.1-1.111","null","<span style='color:GreenYellow; font-size: 70px;'>正确! </span>","null","","","","","","","","","","","","","","","","","","","","","","","feedback_test"
"","","","","","psychophysics","385","697182","0.0-13.0-1.0-1.0-0.1-0.112","600","","j","","","","","","","","","","","","","key","j","16.666557692308114","640","356","j","true","img/C_ambi40.png","坏人","word_first",""
"","","","","","html-keyboard-response","386","697487","0.0-13.0-1.0-1.0-0.1-1.112","null","<span style='color:GreenYellow; font-size: 70px;'>正确! </span>","null","","","","","","","","","","","","","","","","","","","","","","","feedback_test"
"","","","","","psychophysics","387","699991","0.0-13.0-1.0-1.0-0.1-0.113","1353","","f","","","","","","","","","","","","","key","f","16.665912751677983","640","356","f","true","img/S_ambi40.png","坏人","word_first",""
"","","","","","html-keyboard-response","388","700296","0.0-13.0-1.0-1.0-0.1-1.113","null","<span style='color:GreenYellow; font-size: 70px;'>正确! </span>","null","","","","","","","","","","","","","","","","","","","","","","","feedback_test"
"","","","","","psychophysics","389","702023","0.0-13.0-1.0-1.0-0.1-0.114","576","","f","","","","","","","","","","","","","key","f","16.668627450979937","640","356","f","true","img/T_ambi40.png","坏人","word_first",""
"","","","","","html-keyboard-response","390","702327","0.0-13.0-1.0-1.0-0.1-1.114","null","<span style='color:GreenYellow; font-size: 70px;'>正确! </span>","null","","","","","","","","","","","","","","","","","","","","","","","feedback_test"
"","","","","","psychophysics","391","704113","0.0-13.0-1.0-1.0-0.1-0.115","634","","f","","","","","","","","","","","","","key","f","16.66660747663488","640","356","f","true","img/S_ambi40.png","好人","word_first",""
"","","","","","html-keyboard-response","392","704425","0.0-13.0-1.0-1.0-0.1-1.115","null","<span style='color:GreenYellow; font-size: 70px;'>正确! </span>","null","","","","","","","","","","","","","","","","","","","","","","","feedback_test"
"","","","","","psychophysics","393","706159","0.0-13.0-1.0-1.0-0.1-0.116","583","","j","","","","","","","","","","","","","key","j","16.666572815534042","640","356","j","true","img/S_ambi40.png","常人","word_first",""
"","","","","","html-keyboard-response","394","706471","0.0-13.0-1.0-1.0-0.1-1.116","null","<span style='color:GreenYellow; font-size: 70px;'>正确! </span>","null","","","","","","","","","","","","","","","","","","","","","","","feedback_test"
"","","","","","psychophysics","395","708167","0.0-13.0-1.0-1.0-0.1-0.117","544","","j","","","","","","","","","","","","","key","j","16.666603960395367","640","356","j","true","img/C_ambi40.png","坏人","word_first",""
"","","","","","html-keyboard-response","396","708469","0.0-13.0-1.0-1.0-0.1-1.117","null","<span style='color:GreenYellow; font-size: 70px;'>正确! </span>","null","","","","","","","","","","","","","","","","","","","","","","","feedback_test"
"","","","","","psychophysics","397","710195","0.0-13.0-1.0-1.0-0.1-0.118","574","","j","","","","","","","","","","","","","key","j","16.666343137255513","640","356","j","true","img/T_ambi40.png","好人","word_first",""
"","","","","","html-keyboard-response","398","710499","0.0-13.0-1.0-1.0-0.1-1.118","null","<span style='color:GreenYellow; font-size: 70px;'>正确! </span>","null","","","","","","","","","","","","","","","","","","","","","","","feedback_test"
"","","","","","psychophysics","399","712165","0.0-13.0-1.0-1.0-0.1-0.119","515","","j","","","","","","","","","","","","","key","j","16.66370707070643","640","356","j","true","img/S_ambi40.png","常人","word_first",""
"","","","","","html-keyboard-response","400","712466","0.0-13.0-1.0-1.0-0.1-1.119","null","<span style='color:GreenYellow; font-size: 70px;'>正确! </span>","null","","","","","","","","","","","","","","","","","","","","","","","feedback_test"
"","","","","","html-keyboard-response","401","714719","0.0-13.0-1.0-1.0-1.1","2251","<style>.context{color:white; font-size: 35px; line-height:40px}</style>                              <div><p class='context'>您正确回答了97% 的试次。</p><p class='context'>您的平均反应时为728毫秒。</p><p class='context'>请按任意键进入休息</p></div>","arrowdown","","","","","","","","","","","","","","","","","","","","","","",""
"","","","","","html-button-response","402","772029","0.0-13.0-1.0-1.0-2.1","57307","
                      <p>您当前还剩余2组实验</p>
                      <p>现在是休息时间，当您结束休息后，您可以点击 结束休息 按钮 继续</p>
                      <p>建议休息时间还剩余<span id=""iii"">60</span>秒</p>","0","","","","","","","","","","","","","","","","","","","","","","",""
"","","","","","psychophysics","403","773835","0.0-13.0-1.0-1.0-0.2-0.120","650","","j","","","","","","","","","","","","","key","j","16.551542056074897","640","356","j","true","img/S_ambi40.png","常人","word_first",""
"","","","","","html-keyboard-response","404","774149","0.0-13.0-1.0-1.0-0.2-1.120","null","<span style='color:GreenYellow; font-size: 70px;'>正确! </span>","null","","","","","","","","","","","","","","","","","","","","","","","feedback_test"
"","","","","","psychophysics","405","775906","0.0-13.0-1.0-1.0-0.2-0.121","605","","j","","","","","","","","","","","","","key","j","16.669711538461762","640","356","j","true","img/C_ambi40.png","坏人","word_first",""
"","","","","","html-keyboard-response","406","776207","0.0-13.0-1.0-1.0-0.2-1.121","null","<span style='color:GreenYellow; font-size: 70px;'>正确! </span>","null","","","","","","","","","","","","","","","","","","","","","","","feedback_test"
"","","","","","psychophysics","407","777939","0.0-13.0-1.0-1.0-0.2-0.122","581","","f","","","","","","","","","","","","","key","f","16.66705825242657","640","356","f","true","img/T_ambi40.png","坏人","word_first",""
"","","","","","html-keyboard-response","408","778241","0.0-13.0-1.0-1.0-0.2-1.122","null","<span style='color:GreenYellow; font-size: 70px;'>正确! </span>","null","","","","","","","","","","","","","","","","","","","","","","","feedback_test"
"","","","","","psychophysics","409","779968","0.0-13.0-1.0-1.0-0.2-0.123","575","","f","","","","","","","","","","","","","key","f","16.6665436893202","640","356","f","true","img/C_ambi40.png","常人","word_first",""
"","","","","","html-keyboard-response","410","780277","0.0-13.0-1.0-1.0-0.2-1.123","null","<span style='color:GreenYellow; font-size: 70px;'>正确! </span>","null","","","","","","","","","","","","","","","","","","","","","","","feedback_test"
"","","","","","psychophysics","411","782125","0.0-13.0-1.0-1.0-0.2-0.124","697","","f","","","","","","","","","","","","","key","f","16.544009174312116","640","356","f","true","img/T_ambi40.png","常人","word_first",""
"","","","","","html-keyboard-response","412","782438","0.0-13.0-1.0-1.0-0.2-1.124","null","<span style='color:GreenYellow; font-size: 70px;'>正确! </span>","null","","","","","","","","","","","","","","","","","","","","","","","feedback_test"
"","","","","","psychophysics","413","784213","0.0-13.0-1.0-1.0-0.2-0.125","623","","f","","","","","","","","","","","","","key","f","16.665396226415155","640","356","f","true","img/S_ambi40.png","好人","word_first",""
"","","","","","html-keyboard-response","414","784514","0.0-13.0-1.0-1.0-0.2-1.125","null","<span style='color:GreenYellow; font-size: 70px;'>正确! </span>","null","","","","","","","","","","","","","","","","","","","","","","","feedback_test"
"","","","","","psychophysics","415","786125","0.0-13.0-1.0-1.0-0.2-0.126","460","","j","","","","","","","","","","","","","key","j","16.668642105262627","640","356","j","true","img/T_ambi40.png","好人","word_first",""
"","","","","","html-keyboard-response","416","786427","0.0-13.0-1.0-1.0-0.2-1.126","null","<span style='color:GreenYellow; font-size: 70px;'>正确! </span>","null","","","","","","","","","","","","","","","","","","","","","","","feedback_test"
"","","","","","psychophysics","417","788196","0.0-13.0-1.0-1.0-0.2-0.127","619","","f","","","","","","","","","","","","","key","f","16.66527619047556","640","356","f","true","img/C_ambi40.png","好人","word_first",""
"","","","","","html-keyboard-response","418","788504","0.0-13.0-1.0-1.0-0.2-1.127","null","<span style='color:GreenYellow; font-size: 70px;'>正确! </span>","null","","","","","","","","","","","","","","","","","","","","","","","feedback_test"
"","","","","","psychophysics","419","790228","0.0-13.0-1.0-1.0-0.2-0.128","573","","j","","","","","","","","","","","","","key","j","16.666019417475503","640","356","j","true","img/S_ambi40.png","常人","word_first",""
"","","","","","html-keyboard-response","420","790532","0.0-13.0-1.0-1.0-0.2-1.128","null","<span style='color:GreenYellow; font-size: 70px;'>正确! </span>","null","","","","","","","","","","","","","","","","","","","","","","","feedback_test"
"","","","","","psychophysics","421","792356","0.0-13.0-1.0-1.0-0.2-0.129","674","","f","","","","","","","","","","","","","key","f","16.66469444444455","640","356","j","false","img/C_ambi40.png","坏人","word_first",""
"","","","","","html-keyboard-response","422","792657","0.0-13.0-1.0-1.0-0.2-1.129","null","<span style='color:red; font-size: 70px;'>错误! </span>","null","","","","","","","","","","","","","","","","","","","","","","","feedback_test"
"","","","","","psychophysics","423","794989","0.0-13.0-1.0-1.0-0.2-0.130","1181","","f","","","","","","","","","","","","","key","f","16.6668776978417","640","356","f","true","img/S_ambi40.png","坏人","word_first",""
"","","","","","html-keyboard-response","424","795290","0.0-13.0-1.0-1.0-0.2-1.130","null","<span style='color:GreenYellow; font-size: 70px;'>正确! </span>","null","","","","","","","","","","","","","","","","","","","","","","","feedback_test"
"","","","","","psychophysics","425","796908","0.0-13.0-1.0-1.0-0.2-0.131","467","","j","","","","","","","","","","","","","key","j","16.666614583333285","640","356","j","true","img/T_ambi40.png","好人","word_first",""
"","","","","","html-keyboard-response","426","797215","0.0-13.0-1.0-1.0-0.2-1.131","null","<span style='color:GreenYellow; font-size: 70px;'>正确! </span>","null","","","","","","","","","","","","","","","","","","","","","","","feedback_test"
"","","","","","psychophysics","427","798831","0.0-13.0-1.0-1.0-0.2-0.132","464","","j","","","","","","","","","","","","","key","j","16.66248958333381","640","356","j","true","img/S_ambi40.png","常人","word_first",""
"","","","","","html-keyboard-response","428","799132","0.0-13.0-1.0-1.0-0.2-1.132","null","<span style='color:GreenYellow; font-size: 70px;'>正确! </span>","null","","","","","","","","","","","","","","","","","","","","","","","feedback_test"
"","","","","","psychophysics","429","801294","0.0-13.0-1.0-1.0-0.2-0.133","1012","","f","","","","","","","","","","","","","key","f","16.666162790697204","640","356","f","true","img/S_ambi40.png","坏人","word_first",""
"","","","","","html-keyboard-response","430","801595","0.0-13.0-1.0-1.0-0.2-1.133","null","<span style='color:GreenYellow; font-size: 70px;'>正确! </span>","null","","","","","","","","","","","","","","","","","","","","","","","feedback_test"
"","","","","","psychophysics","431","803510","0.0-13.0-1.0-1.0-0.2-0.134","764","","f","","","","","","","","","","","","","key","f","16.66392982456212","640","356","f","true","img/S_ambi40.png","好人","word_first",""
"","","","","","html-keyboard-response","432","803813","0.0-13.0-1.0-1.0-0.2-1.134","null","<span style='color:GreenYellow; font-size: 70px;'>正确! </span>","null","","","","","","","","","","","","","","","","","","","","","","","feedback_test"
