"success","timeout","failed_images","failed_audio","failed_video","trial_type","trial_index","time_elapsed","internal_node_id","rt","stimulus","response","value","item_width_mm","item_height_mm","item_width_px","px2mm","view_dist_mm","item_width_deg","px2deg","scale_factor","win_width_deg","win_height_deg","view_history","response_type","key_press","avg_frame_time","center_x","center_y","correct_response","correct","Image","word","condition","screen_id"
"true","false","[]","[]","[]","preload","0","21580","0.0-0.0","","","","","","","","","","","","","","","","","","","","","","","","","",""
"","","","","","html-keyboard-response","1","27214","0.0-1.0","5632","
     <p>您好，欢迎参加本次实验。</p>
     <p>为充分保障您的权利，请确保您已经知晓并同意《参与实验同意书》以及《数据公开知情同意书》。</p>
     <p>如果您未见过上述内容，请咨询实验员。</p>
     <p>如果您选择继续实验，则表示您已经清楚两份知情同意书的内容并同意。</p>
     <p> <div style = ""color: green""><按任意键至下页></div> </p>
     "," ","","","","","","","","","","","","","","","","","","","","","","",""
"","","","","","html-keyboard-response","2","28768","0.0-2.0","1553","
     <p>本实验首先需要您填写一些基本个人信息。</p>
     <p> <div style = ""color: green""><按任意键至下页></div></p>
     "," ","","","","","","","","","","","","","","","","","","","","","","",""
"","","","","","call-function","3","28771","0.0-3.0-0.0","","","","","","","","","","","","","","","","","","","","","","","","","",""
"","","","","","survey-html-form","4","33626","0.0-3.0-1.0","4850","","{""Q0"":""8""}","","","","","","","","","","","","","","","","","","","","","","",""
"","","","","","html-button-response","5","35342","0.0-3.0-2.0","1714","<p style = 'color : white'>您的性别</p>","0","","","","","","","","","","","","","","","","","","","","","","",""
"","","","","","survey-html-form","6","43944","0.0-3.0-3.0","8600","","{""Q0"":""2000""}","","","","","","","","","","","","","","","","","","","","","","",""
"","","","","","survey-html-form","7","48466","0.0-3.0-4.0","4521","","{""Q0"":""5""}","","","","","","","","","","","","","","","","","","","","","","",""
"","","","","","virtual-chinrest","8","122673","0.0-4.0","74204","","","","85.6","53.98","444.0197878278181","5.1863722105199495","551.18","8.880395756556362","49.99999999999999","1.085537206253767","37.24","18.840000000000003","","","","","","","","","","","",""
"true","","","","","fullscreen","9","126612","0.0-5.0","","","","","","","","","","","","","","","","","","","","","","","","","",""
"","","","","","instructions","10","176642","0.0-6.0","50029","","","","","","","","","","","","","","[{""page_index"":0,""viewing_time"":5177},{""page_index"":1,""viewing_time"":28415},{""page_index"":2,""viewing_time"":11494},{""page_index"":3,""viewing_time"":4943}]","","","","","","","","","","",""
"","","","","","psychophysics","11","178428","0.0-7.0-0.0-0.0","624","","j","","","","","","","","","","","","","key","j","16.686104761904737","960","536","j","true","img/T_ambi40.png","常人","prac_image_first",""
"","","","","","html-keyboard-response","12","178746","0.0-7.0-0.0-1.0","null","<span style='color:GreenYellow; font-size: 70px;'>正确! </span>","null","","","","","","","","","","","","","","","","","","","","","","","feedback_test"
"","","","","","psychophysics","13","180605","0.0-7.0-0.0-0.1","704","","j","","","","","","","","","","","","","key","j","16.685490909090994","960","536","f","false","img/T_ambi40.png","坏人","prac_image_first",""
"","","","","","html-keyboard-response","14","180914","0.0-7.0-0.0-1.1","null","<span style='color:red; font-size: 70px;'>错误! </span>","null","","","","","","","","","","","","","","","","","","","","","","","feedback_test"
"","","","","","psychophysics","15","182710","0.0-7.0-0.0-0.2","642","","j","","","","","","","","","","","","","key","j","16.685102803738424","960","536","j","true","img/S_ambi40.png","常人","prac_image_first",""
"","","","","","html-keyboard-response","16","183022","0.0-7.0-0.0-1.2","null","<span style='color:GreenYellow; font-size: 70px;'>正确! </span>","null","","","","","","","","","","","","","","","","","","","","","","","feedback_test"
"","","","","","psychophysics","17","184856","0.0-7.0-0.0-0.3","680","","j","","","","","","","","","","","","","key","j","16.562898148147926","960","536","j","true","img/C_ambi40.png","坏人","prac_image_first",""
"","","","","","html-keyboard-response","18","185164","0.0-7.0-0.0-1.3","null","<span style='color:GreenYellow; font-size: 70px;'>正确! </span>","null","","","","","","","","","","","","","","","","","","","","","","","feedback_test"
"","","","","","psychophysics","19","186911","0.0-7.0-0.0-0.4","595","","j","","","","","","","","","","","","","key","j","16.685495145631066","960","536","f","false","img/C_ambi40.png","常人","prac_image_first",""
"","","","","","html-keyboard-response","20","187227","0.0-7.0-0.0-1.4","null","<span style='color:red; font-size: 70px;'>错误! </span>","null","","","","","","","","","","","","","","","","","","","","","","","feedback_test"
"","","","","","psychophysics","21","189095","0.0-7.0-0.0-0.5","716","","j","","","","","","","","","","","","","key","j","16.568936363636485","960","536","f","false","img/T_ambi40.png","坏人","prac_image_first",""
"","","","","","html-keyboard-response","22","189413","0.0-7.0-0.0-1.5","null","<span style='color:red; font-size: 70px;'>错误! </span>","null","","","","","","","","","","","","","","","","","","","","","","","feedback_test"
"","","","","","psychophysics","23","191446","0.0-7.0-0.0-0.6","880","","j","","","","","","","","","","","","","key","j","16.566466666666624","960","536","j","true","img/T_ambi40.png","好人","prac_image_first",""
"","","","","","html-keyboard-response","24","191767","0.0-7.0-0.0-1.6","null","<span style='color:GreenYellow; font-size: 70px;'>正确! </span>","null","","","","","","","","","","","","","","","","","","","","","","","feedback_test"
"","","","","","psychophysics","25","193719","0.0-7.0-0.0-0.7","800","","j","","","","","","","","","","","","","key","j","16.684939130434877","960","536","f","false","img/S_ambi40.png","好人","prac_image_first",""
"","","","","","html-keyboard-response","26","194039","0.0-7.0-0.0-1.7","null","<span style='color:red; font-size: 70px;'>错误! </span>","null","","","","","","","","","","","","","","","","","","","","","","","feedback_test"
"","","","","","psychophysics","27","196072","0.0-7.0-0.0-0.8","881","","f","","","","","","","","","","","","","key","f","16.685599999999976","960","536","f","true","img/S_ambi40.png","好人","prac_image_first",""
"","","","","","html-keyboard-response","28","196394","0.0-7.0-0.0-1.8","null","<span style='color:GreenYellow; font-size: 70px;'>正确! </span>","null","","","","","","","","","","","","","","","","","","","","","","","feedback_test"
"","","","","","psychophysics","29","198197","0.0-7.0-0.0-0.9","651","","j","","","","","","","","","","","","","key","j","16.68497196261697","960","536","j","true","img/S_ambi40.png","坏人","prac_image_first",""
"","","","","","html-keyboard-response","30","198513","0.0-7.0-0.0-1.9","null","<span style='color:GreenYellow; font-size: 70px;'>正确! </span>","null","","","","","","","","","","","","","","","","","","","","","","","feedback_test"
"","","","","","psychophysics","31","200374","0.0-7.0-0.0-0.10","706","","f","","","","","","","","","","","","","key","f","16.685390909090746","960","536","f","true","img/C_ambi40.png","常人","prac_image_first",""
"","","","","","html-keyboard-response","32","200681","0.0-7.0-0.0-1.10","null","<span style='color:GreenYellow; font-size: 70px;'>正确! </span>","null","","","","","","","","","","","","","","","","","","","","","","","feedback_test"
"","","","","","psychophysics","33","202644","0.0-7.0-0.0-0.11","810","","j","","","","","","","","","","","","","key","j","16.685456896551777","960","536","j","true","img/C_ambi40.png","好人","prac_image_first",""
"","","","","","html-keyboard-response","34","202958","0.0-7.0-0.0-1.11","null","<span style='color:GreenYellow; font-size: 70px;'>正确! </span>","null","","","","","","","","","","","","","","","","","","","","","","","feedback_test"
"","","","","","psychophysics","35","204902","0.0-7.0-0.0-0.12","787","","j","","","","","","","","","","","","","key","j","16.686232758620715","960","536","f","false","img/T_ambi40.png","坏人","prac_image_first",""
"","","","","","html-keyboard-response","36","205224","0.0-7.0-0.0-1.12","null","<span style='color:red; font-size: 70px;'>错误! </span>","null","","","","","","","","","","","","","","","","","","","","","","","feedback_test"
"","","","","","psychophysics","37","207158","0.0-7.0-0.0-0.13","779","","j","","","","","","","","","","","","","key","j","16.685417391304384","960","536","f","false","img/C_ambi40.png","常人","prac_image_first",""
"","","","","","html-keyboard-response","38","207472","0.0-7.0-0.0-1.13","null","<span style='color:red; font-size: 70px;'>错误! </span>","null","","","","","","","","","","","","","","","","","","","","","","","feedback_test"
"","","","","","psychophysics","39","209457","0.0-7.0-0.0-0.14","831","","f","","","","","","","","","","","","","key","f","16.684888888888995","960","536","f","true","img/C_ambi40.png","常人","prac_image_first",""
"","","","","","html-keyboard-response","40","209767","0.0-7.0-0.0-1.14","null","<span style='color:GreenYellow; font-size: 70px;'>正确! </span>","null","","","","","","","","","","","","","","","","","","","","","","","feedback_test"
"","","","","","psychophysics","41","211719","0.0-7.0-0.0-0.15","797","","j","","","","","","","","","","","","","key","j","16.68531896551727","960","536","f","false","img/S_ambi40.png","好人","prac_image_first",""
"","","","","","html-keyboard-response","42","212031","0.0-7.0-0.0-1.15","null","<span style='color:red; font-size: 70px;'>错误! </span>","null","","","","","","","","","","","","","","","","","","","","","","","feedback_test"
"","","","","","psychophysics","43","214124","0.0-7.0-0.0-0.16","937","","j","","","","","","","","","","","","","key","j","16.684967741935612","960","536","j","true","img/S_ambi40.png","常人","prac_image_first",""
"","","","","","html-keyboard-response","44","214433","0.0-7.0-0.0-1.16","null","<span style='color:GreenYellow; font-size: 70px;'>正确! </span>","null","","","","","","","","","","","","","","","","","","","","","","","feedback_test"
"","","","","","psychophysics","45","216479","0.0-7.0-0.0-0.17","891","","f","","","","","","","","","","","","","key","f","16.685760330578624","960","536","f","true","img/S_ambi40.png","好人","prac_image_first",""
"","","","","","html-keyboard-response","46","216803","0.0-7.0-0.0-1.17","null","<span style='color:GreenYellow; font-size: 70px;'>正确! </span>","null","","","","","","","","","","","","","","","","","","","","","","","feedback_test"
"","","","","","psychophysics","47","218874","0.0-7.0-0.0-0.18","917","","f","","","","","","","","","","","","","key","f","16.685991869918762","960","536","f","true","img/T_ambi40.png","坏人","prac_image_first",""
"","","","","","html-keyboard-response","48","219188","0.0-7.0-0.0-1.18","null","<span style='color:GreenYellow; font-size: 70px;'>正确! </span>","null","","","","","","","","","","","","","","","","","","","","","","","feedback_test"
"","","","","","psychophysics","49","221189","0.0-7.0-0.0-0.19","842","","j","","","","","","","","","","","","","key","j","16.685840336134376","960","536","j","true","img/C_ambi40.png","好人","prac_image_first",""
"","","","","","html-keyboard-response","50","221496","0.0-7.0-0.0-1.19","null","<span style='color:GreenYellow; font-size: 70px;'>正确! </span>","null","","","","","","","","","","","","","","","","","","","","","","","feedback_test"
"","","","","","psychophysics","51","223654","0.0-7.0-0.0-0.20","1002","","j","","","","","","","","","","","","","key","j","16.686062499999935","960","536","j","true","img/C_ambi40.png","坏人","prac_image_first",""
"","","","","","html-keyboard-response","52","223978","0.0-7.0-0.0-1.20","null","<span style='color:GreenYellow; font-size: 70px;'>正确! </span>","null","","","","","","","","","","","","","","","","","","","","","","","feedback_test"
"","","","","","psychophysics","53","226052","0.0-7.0-0.0-0.21","920","","j","","","","","","","","","","","","","key","j","16.6846910569106","960","536","j","true","img/T_ambi40.png","常人","prac_image_first",""
"","","","","","html-keyboard-response","54","226364","0.0-7.0-0.0-1.21","null","<span style='color:GreenYellow; font-size: 70px;'>正确! </span>","null","","","","","","","","","","","","","","","","","","","","","","","feedback_test"
"","","","","","psychophysics","55","228466","0.0-7.0-0.0-0.22","943","","j","","","","","","","","","","","","","key","j","16.685391999999993","960","536","j","true","img/T_ambi40.png","好人","prac_image_first",""
"","","","","","html-keyboard-response","56","228773","0.0-7.0-0.0-1.22","null","<span style='color:GreenYellow; font-size: 70px;'>正确! </span>","null","","","","","","","","","","","","","","","","","","","","","","","feedback_test"
"","","","","","psychophysics","57","230885","0.0-7.0-0.0-0.23","959","","j","","","","","","","","","","","","","key","j","16.685159999999915","960","536","j","true","img/S_ambi40.png","坏人","prac_image_first",""
"","","","","","html-keyboard-response","58","231192","0.0-7.0-0.0-1.23","null","<span style='color:GreenYellow; font-size: 70px;'>正确! </span>","null","","","","","","","","","","","","","","","","","","","","","","","feedback_test"
"","","","","","html-keyboard-response","59","237193","0.0-8.0","5997","<style>.context{color:white; font-size: 35px; line-height:40px}</style>                              <div><p class='context'>您正确回答了71% 的试次。</p><p class='context'>您的平均反应时为830毫秒。</p><p class='context'>恭喜您完成这一阶段的练习。按任意键进入<span style='color: yellow;'>先文字后图形条件</span>的练习。</p></div>"," ","","","","","","","","","","","","","","","","","","","","","","",""
"","","","","","psychophysics","60","239863","0.0-9.0-0.0-0.0","null","","null","","","","","","","","","","","","","key","null","16.685157232704235","960","536","j","false","img/T_ambi40.png","好人","prac_word_first",""
"","","","","","html-keyboard-response","61","240174","0.0-9.0-0.0-1.0","null","<span class='add_' style='color:yellow; font-size: 70px;'> 太慢! </span>","null","","","","","","","","","","","","","","","","","","","","","","","feedback_test"
"","","","","","psychophysics","62","242245","0.0-9.0-0.0-0.1","918","","j","","","","","","","","","","","","","key","j","16.68464227642285","960","536","f","false","img/C_ambi40.png","常人","prac_word_first",""
"","","","","","html-keyboard-response","63","242556","0.0-9.0-0.0-1.1","null","<span style='color:red; font-size: 70px;'>错误! </span>","null","","","","","","","","","","","","","","","","","","","","","","","feedback_test"
"","","","","","psychophysics","64","244397","0.0-9.0-0.0-0.2","684","","j","","","","","","","","","","","","","key","j","16.684388888888794","960","536","j","true","img/S_ambi40.png","常人","prac_word_first",""
"","","","","","html-keyboard-response","65","244714","0.0-9.0-0.0-1.2","null","<span style='color:GreenYellow; font-size: 70px;'>正确! </span>","null","","","","","","","","","","","","","","","","","","","","","","","feedback_test"
"","","","","","psychophysics","66","246641","0.0-9.0-0.0-0.3","774","","j","","","","","","","","","","","","","key","j","16.68360526315774","960","536","f","false","img/S_ambi40.png","好人","prac_word_first",""
"","","","","","html-keyboard-response","67","246955","0.0-9.0-0.0-1.3","null","<span style='color:red; font-size: 70px;'>错误! </span>","null","","","","","","","","","","","","","","","","","","","","","","","feedback_test"
"","","","","","psychophysics","68","248896","0.0-9.0-0.0-0.4","788","","j","","","","","","","","","","","","","key","j","16.686113043478183","960","536","j","true","img/T_ambi40.png","常人","prac_word_first",""
"","","","","","html-keyboard-response","69","249208","0.0-9.0-0.0-1.4","null","<span style='color:GreenYellow; font-size: 70px;'>正确! </span>","null","","","","","","","","","","","","","","","","","","","","","","","feedback_test"
"","","","","","psychophysics","70","251074","0.0-9.0-0.0-0.5","709","","f","","","","","","","","","","","","","key","f","16.685828828828637","960","536","j","false","img/C_ambi40.png","好人","prac_word_first",""
"","","","","","html-keyboard-response","71","251393","0.0-9.0-0.0-1.5","null","<span style='color:red; font-size: 70px;'>错误! </span>","null","","","","","","","","","","","","","","","","","","","","","","","feedback_test"
"","","","","","psychophysics","72","253451","0.0-9.0-0.0-0.6","899","","f","","","","","","","","","","","","","key","f","16.68430327868841","960","536","f","true","img/T_ambi40.png","坏人","prac_word_first",""
"","","","","","html-keyboard-response","73","253768","0.0-9.0-0.0-1.6","null","<span style='color:GreenYellow; font-size: 70px;'>正确! </span>","null","","","","","","","","","","","","","","","","","","","","","","","feedback_test"
"","","","","","psychophysics","74","255564","0.0-9.0-0.0-0.7","644","","j","","","","","","","","","","","","","key","j","16.685273584905342","960","536","f","false","img/C_ambi40.png","常人","prac_word_first",""
"","","","","","html-keyboard-response","75","255875","0.0-9.0-0.0-1.7","null","<span style='color:red; font-size: 70px;'>错误! </span>","null","","","","","","","","","","","","","","","","","","","","","","","feedback_test"
"","","","","","psychophysics","76","257814","0.0-9.0-0.0-0.8","786","","j","","","","","","","","","","","","","key","j","16.685930434782463","960","536","j","true","img/S_ambi40.png","坏人","prac_word_first",""
"","","","","","html-keyboard-response","77","258137","0.0-9.0-0.0-1.8","null","<span style='color:GreenYellow; font-size: 70px;'>正确! </span>","null","","","","","","","","","","","","","","","","","","","","","","","feedback_test"
"","","","","","psychophysics","78","259997","0.0-9.0-0.0-0.9","706","","j","","","","","","","","","","","","","key","j","16.68539639639664","960","536","j","true","img/C_ambi40.png","坏人","prac_word_first",""
"","","","","","html-keyboard-response","79","260306","0.0-9.0-0.0-1.9","null","<span style='color:GreenYellow; font-size: 70px;'>正确! </span>","null","","","","","","","","","","","","","","","","","","","","","","","feedback_test"
"","","","","","psychophysics","80","262440","0.0-9.0-0.0-0.10","979","","f","","","","","","","","","","","","","key","f","16.68501574803129","960","536","f","true","img/T_ambi40.png","坏人","prac_word_first",""
"","","","","","html-keyboard-response","81","262749","0.0-9.0-0.0-1.10","null","<span style='color:GreenYellow; font-size: 70px;'>正确! </span>","null","","","","","","","","","","","","","","","","","","","","","","","feedback_test"
"","","","","","psychophysics","82","264888","0.0-9.0-0.0-0.11","985","","f","","","","","","","","","","","","","key","f","16.686062992125564","960","536","f","true","img/S_ambi40.png","好人","prac_word_first",""
"","","","","","html-keyboard-response","83","265203","0.0-9.0-0.0-1.11","null","<span style='color:GreenYellow; font-size: 70px;'>正确! </span>","null","","","","","","","","","","","","","","","","","","","","","","","feedback_test"
"","","","","","psychophysics","84","267109","0.0-9.0-0.0-0.12","746","","j","","","","","","","","","","","","","key","j","16.689123893805174","960","536","j","true","img/S_ambi40.png","坏人","prac_word_first",""
"","","","","","html-keyboard-response","85","267427","0.0-9.0-0.0-1.12","null","<span style='color:GreenYellow; font-size: 70px;'>正确! </span>","null","","","","","","","","","","","","","","","","","","","","","","","feedback_test"
"","","","","","psychophysics","86","269459","0.0-9.0-0.0-0.13","880","","f","","","","","","","","","","","","","key","f","16.68485950413189","960","536","f","true","img/S_ambi40.png","好人","prac_word_first",""
"","","","","","html-keyboard-response","87","269769","0.0-9.0-0.0-1.13","null","<span style='color:GreenYellow; font-size: 70px;'>正确! </span>","null","","","","","","","","","","","","","","","","","","","","","","","feedback_test"
"","","","","","psychophysics","88","271834","0.0-9.0-0.0-0.14","913","","f","","","","","","","","","","","","","key","f","16.6848524590166","960","536","f","true","img/T_ambi40.png","坏人","prac_word_first",""
"","","","","","html-keyboard-response","89","272150","0.0-9.0-0.0-1.14","null","<span style='color:GreenYellow; font-size: 70px;'>正确! </span>","null","","","","","","","","","","","","","","","","","","","","","","","feedback_test"
"","","","","","psychophysics","90","274013","0.0-9.0-0.0-0.15","706","","j","","","","","","","","","","","","","key","j","16.685423423423376","960","536","f","false","img/S_ambi40.png","好人","prac_word_first",""
"","","","","","html-keyboard-response","91","274323","0.0-9.0-0.0-1.15","null","<span style='color:red; font-size: 70px;'>错误! </span>","null","","","","","","","","","","","","","","","","","","","","","","","feedback_test"
"","","","","","psychophysics","92","276542","0.0-9.0-0.0-0.16","1067","","f","","","","","","","","","","","","","key","f","16.570122137404482","960","536","f","true","img/C_ambi40.png","常人","prac_word_first",""
"","","","","","html-keyboard-response","93","276850","0.0-9.0-0.0-1.16","null","<span style='color:GreenYellow; font-size: 70px;'>正确! </span>","null","","","","","","","","","","","","","","","","","","","","","","","feedback_test"
"","","","","","psychophysics","94","279134","0.0-9.0-0.0-0.17","1130","","j","","","","","","","","","","","","","key","j","16.685103703703714","960","536","j","true","img/C_ambi40.png","好人","prac_word_first",""
"","","","","","html-keyboard-response","95","279454","0.0-9.0-0.0-1.17","null","<span style='color:GreenYellow; font-size: 70px;'>正确! </span>","null","","","","","","","","","","","","","","","","","","","","","","","feedback_test"
"","","","","","psychophysics","96","281471","0.0-9.0-0.0-0.18","866","","j","","","","","","","","","","","","","key","j","16.68426050420189","960","536","j","true","img/T_ambi40.png","好人","prac_word_first",""
"","","","","","html-keyboard-response","97","281794","0.0-9.0-0.0-1.18","null","<span style='color:GreenYellow; font-size: 70px;'>正确! </span>","null","","","","","","","","","","","","","","","","","","","","","","","feedback_test"
"","","","","","psychophysics","98","283745","0.0-9.0-0.0-0.19","796","","j","","","","","","","","","","","","","key","j","16.83055652173884","960","536","j","true","img/T_ambi40.png","常人","prac_word_first",""
"","","","","","html-keyboard-response","99","284057","0.0-9.0-0.0-1.19","null","<span style='color:GreenYellow; font-size: 70px;'>正确! </span>","null","","","","","","","","","","","","","","","","","","","","","","","feedback_test"
"","","","","","psychophysics","100","286231","0.0-9.0-0.0-0.20","1022","","f","","","","","","","","","","","","","key","f","17.083277777777912","960","536","f","true","img/C_ambi40.png","常人","prac_word_first",""
"","","","","","html-keyboard-response","101","286539","0.0-9.0-0.0-1.20","null","<span style='color:GreenYellow; font-size: 70px;'>正确! </span>","null","","","","","","","","","","","","","","","","","","","","","","","feedback_test"
"","","","","","psychophysics","102","288484","0.0-9.0-0.0-0.21","792","","f","","","","","","","","","","","","","key","f","16.686417391304047","960","536","f","true","img/T_ambi40.png","坏人","prac_word_first",""
"","","","","","html-keyboard-response","103","288797","0.0-9.0-0.0-1.21","null","<span style='color:GreenYellow; font-size: 70px;'>正确! </span>","null","","","","","","","","","","","","","","","","","","","","","","","feedback_test"
"","","","","","psychophysics","104","290852","0.0-9.0-0.0-0.22","894","","f","","","","","","","","","","","","","key","f","16.685336065574045","960","536","j","false","img/S_ambi40.png","常人","prac_word_first",""
"","","","","","html-keyboard-response","105","291158","0.0-9.0-0.0-1.22","null","<span style='color:red; font-size: 70px;'>错误! </span>","null","","","","","","","","","","","","","","","","","","","","","","","feedback_test"
"","","","","","psychophysics","106","293131","0.0-9.0-0.0-0.23","820","","j","","","","","","","","","","","","","key","j","16.56872413793111","960","536","j","true","img/C_ambi40.png","坏人","prac_word_first",""
"","","","","","html-keyboard-response","107","293442","0.0-9.0-0.0-1.23","null","<span style='color:GreenYellow; font-size: 70px;'>正确! </span>","null","","","","","","","","","","","","","","","","","","","","","","","feedback_test"
"","","","","","html-keyboard-response","108","300610","0.0-10.0","7165","<style>.context{color:white; font-size: 35px; line-height:40px}</style>                              <div><p class='context'>您正确回答了71% 的试次。</p><p class='context'>您的平均反应时为874毫秒。</p><p class='context'>恭喜您完成练习。按任意键进入<span style='color: yellow;'>图形和文字同时呈现条件</span>的练习。</p></div>","j","","","","","","","","","","","","","","","","","","","","","","",""
"","","","","","psychophysics","109","302335","0.0-11.0-0.0-0.0","710","","j","","","","","","","","","","","","","key","j","16.684862745097753","960","536","f","false","img/T_ambi40.png","坏人","prac_simultaneous",""
"","","","","","html-keyboard-response","110","302650","0.0-11.0-0.0-1.0","null","<span style='color:red; font-size: 70px;'>错误! </span>","null","","","","","","","","","","","","","","","","","","","","","","","feedback_test"
"","","","","","psychophysics","111","304502","0.0-11.0-0.0-0.1","848","","j","","","","","","","","","","","","","key","j","16.6883818181819","960","536","f","false","img/S_ambi40.png","好人","prac_simultaneous",""
"","","","","","html-keyboard-response","112","304811","0.0-11.0-0.0-1.1","null","<span style='color:red; font-size: 70px;'>错误! </span>","null","","","","","","","","","","","","","","","","","","","","","","","feedback_test"
"","","","","","psychophysics","113","306935","0.0-11.0-0.0-0.2","1119","","j","","","","","","","","","","","","","key","j","16.685365079365308","960","536","j","true","img/T_ambi40.png","常人","prac_simultaneous",""
"","","","","","html-keyboard-response","114","307253","0.0-11.0-0.0-1.2","null","<span style='color:GreenYellow; font-size: 70px;'>正确! </span>","null","","","","","","","","","","","","","","","","","","","","","","","feedback_test"
"","","","","","psychophysics","115","309178","0.0-11.0-0.0-0.3","919","","j","","","","","","","","","","","","","key","j","16.684175438596355","960","536","j","true","img/T_ambi40.png","好人","prac_simultaneous",""
"","","","","","html-keyboard-response","116","309498","0.0-11.0-0.0-1.3","null","<span style='color:GreenYellow; font-size: 70px;'>正确! </span>","null","","","","","","","","","","","","","","","","","","","","","","","feedback_test"
"","","","","","psychophysics","117","311562","0.0-11.0-0.0-0.4","1058","","j","","","","","","","","","","","","","key","j","16.685647540983407","960","536","j","true","img/C_ambi40.png","坏人","prac_simultaneous",""
"","","","","","html-keyboard-response","118","311879","0.0-11.0-0.0-1.4","null","<span style='color:GreenYellow; font-size: 70px;'>正确! </span>","null","","","","","","","","","","","","","","","","","","","","","","","feedback_test"
"","","","","","psychophysics","119","313947","0.0-11.0-0.0-0.5","1062","","f","","","","","","","","","","","","","key","f","16.6853414634148","960","536","f","true","img/C_ambi40.png","常人","prac_simultaneous",""
"","","","","","html-keyboard-response","120","314260","0.0-11.0-0.0-1.5","null","<span style='color:GreenYellow; font-size: 70px;'>正确! </span>","null","","","","","","","","","","","","","","","","","","","","","","","feedback_test"
"","","","","","psychophysics","121","316061","0.0-11.0-0.0-0.6","800","","j","","","","","","","","","","","","","key","j","16.685906542056006","960","536","j","true","img/S_ambi40.png","坏人","prac_simultaneous",""
"","","","","","html-keyboard-response","122","316370","0.0-11.0-0.0-1.6","null","<span style='color:GreenYellow; font-size: 70px;'>正确! </span>","null","","","","","","","","","","","","","","","","","","","","","","","feedback_test"
"","","","","","psychophysics","123","318263","0.0-11.0-0.0-0.7","890","","f","","","","","","","","","","","","","key","f","16.684589285714278","960","536","f","true","img/S_ambi40.png","好人","prac_simultaneous",""
"","","","","","html-keyboard-response","124","318575","0.0-11.0-0.0-1.7","null","<span style='color:GreenYellow; font-size: 70px;'>正确! </span>","null","","","","","","","","","","","","","","","","","","","","","","","feedback_test"
"","","","","","psychophysics","125","320649","0.0-11.0-0.0-0.8","1072","","f","","","","","","","","","","","","","key","f","16.684495934959582","960","536","f","true","img/C_ambi40.png","常人","prac_simultaneous",""
"","","","","","html-keyboard-response","126","320963","0.0-11.0-0.0-1.8","null","<span style='color:GreenYellow; font-size: 70px;'>正确! </span>","null","","","","","","","","","","","","","","","","","","","","","","","feedback_test"
"","","","","","psychophysics","127","322786","0.0-11.0-0.0-0.9","821","","f","","","","","","","","","","","","","key","f","16.684574074074153","960","536","j","false","img/C_ambi40.png","好人","prac_simultaneous",""
"","","","","","html-keyboard-response","128","323103","0.0-11.0-0.0-1.9","null","<span style='color:red; font-size: 70px;'>错误! </span>","null","","","","","","","","","","","","","","","","","","","","","","","feedback_test"
"","","","","","psychophysics","129","325329","0.0-11.0-0.0-0.10","1221","","j","","","","","","","","","","","","","key","j","16.685977272727264","960","536","j","true","img/S_ambi40.png","常人","prac_simultaneous",""
"","","","","","html-keyboard-response","130","325638","0.0-11.0-0.0-1.10","null","<span style='color:GreenYellow; font-size: 70px;'>正确! </span>","null","","","","","","","","","","","","","","","","","","","","","","","feedback_test"
"","","","","","psychophysics","131","327424","0.0-11.0-0.0-0.11","779","","f","","","","","","","","","","","","","key","f","16.68416981132073","960","536","f","true","img/T_ambi40.png","坏人","prac_simultaneous",""
"","","","","","html-keyboard-response","132","327738","0.0-11.0-0.0-1.11","null","<span style='color:GreenYellow; font-size: 70px;'>正确! </span>","null","","","","","","","","","","","","","","","","","","","","","","","feedback_test"
"","","","","","psychophysics","133","329971","0.0-11.0-0.0-0.12","1223","","j","","","","","","","","","","","","","key","j","16.68490977443604","960","536","f","false","img/T_ambi40.png","坏人","prac_simultaneous",""
"","","","","","html-keyboard-response","134","330285","0.0-11.0-0.0-1.12","null","<span style='color:red; font-size: 70px;'>错误! </span>","null","","","","","","","","","","","","","","","","","","","","","","","feedback_test"
"","","","","","psychophysics","135","332239","0.0-11.0-0.0-0.13","951","","j","","","","","","","","","","","","","key","j","16.573695652174216","960","536","j","true","img/S_ambi40.png","常人","prac_simultaneous",""
"","","","","","html-keyboard-response","136","332560","0.0-11.0-0.0-1.13","null","<span style='color:GreenYellow; font-size: 70px;'>正确! </span>","null","","","","","","","","","","","","","","","","","","","","","","","feedback_test"
"","","","","","psychophysics","137","334612","0.0-11.0-0.0-0.14","1048","","j","","","","","","","","","","","","","key","j","16.685925619834975","960","536","f","false","img/C_ambi40.png","常人","prac_simultaneous",""
"","","","","","html-keyboard-response","138","334926","0.0-11.0-0.0-1.14","null","<span style='color:red; font-size: 70px;'>错误! </span>","null","","","","","","","","","","","","","","","","","","","","","","","feedback_test"
"","","","","","psychophysics","139","337109","0.0-11.0-0.0-0.15","1177","","j","","","","","","","","","","","","","key","j","16.684565891472932","960","536","j","true","img/T_ambi40.png","常人","prac_simultaneous",""
"","","","","","html-keyboard-response","140","337425","0.0-11.0-0.0-1.15","null","<span style='color:GreenYellow; font-size: 70px;'>正确! </span>","null","","","","","","","","","","","","","","","","","","","","","","","feedback_test"
"","","","","","psychophysics","141","339176","0.0-11.0-0.0-0.16","747","","f","","","","","","","","","","","","","key","f","16.685624999999934","960","536","f","true","img/C_ambi40.png","常人","prac_simultaneous",""
"","","","","","html-keyboard-response","142","339492","0.0-11.0-0.0-1.16","null","<span style='color:GreenYellow; font-size: 70px;'>正确! </span>","null","","","","","","","","","","","","","","","","","","","","","","","feedback_test"
"","","","","","psychophysics","143","341202","0.0-11.0-0.0-0.17","704","","j","","","","","","","","","","","","","key","j","16.685794117647067","960","536","j","true","img/C_ambi40.png","坏人","prac_simultaneous",""
"","","","","","html-keyboard-response","144","341524","0.0-11.0-0.0-1.17","null","<span style='color:GreenYellow; font-size: 70px;'>正确! </span>","null","","","","","","","","","","","","","","","","","","","","","","","feedback_test"
"","","","","","psychophysics","145","343472","0.0-11.0-0.0-0.18","940","","j","","","","","","","","","","","","","key","j","16.686008695652202","960","536","j","true","img/S_ambi40.png","坏人","prac_simultaneous",""
"","","","","","html-keyboard-response","146","343791","0.0-11.0-0.0-1.18","null","<span style='color:GreenYellow; font-size: 70px;'>正确! </span>","null","","","","","","","","","","","","","","","","","","","","","","","feedback_test"
"","","","","","psychophysics","147","345745","0.0-11.0-0.0-0.19","952","","j","","","","","","","","","","","","","key","j","16.68437068965507","960","536","j","true","img/C_ambi40.png","好人","prac_simultaneous",""
"","","","","","html-keyboard-response","148","346067","0.0-11.0-0.0-1.19","null","<span style='color:GreenYellow; font-size: 70px;'>正确! </span>","null","","","","","","","","","","","","","","","","","","","","","","","feedback_test"
"","","","","","psychophysics","149","347934","0.0-11.0-0.0-0.20","862","","f","","","","","","","","","","","","","key","f","16.687477477477458","960","536","f","true","img/S_ambi40.png","好人","prac_simultaneous",""
"","","","","","html-keyboard-response","150","348247","0.0-11.0-0.0-1.20","null","<span style='color:GreenYellow; font-size: 70px;'>正确! </span>","null","","","","","","","","","","","","","","","","","","","","","","","feedback_test"
"","","","","","psychophysics","151","350131","0.0-11.0-0.0-0.21","882","","j","","","","","","","","","","","","","key","j","16.685900900900986","960","536","j","true","img/T_ambi40.png","好人","prac_simultaneous",""
"","","","","","html-keyboard-response","152","350449","0.0-11.0-0.0-1.21","null","<span style='color:GreenYellow; font-size: 70px;'>正确! </span>","null","","","","","","","","","","","","","","","","","","","","","","","feedback_test"
"","","","","","psychophysics","153","352249","0.0-11.0-0.0-0.22","797","","f","","","","","","","","","","","","","key","f","16.68493396226418","960","536","f","true","img/S_ambi40.png","好人","prac_simultaneous",""
"","","","","","html-keyboard-response","154","352557","0.0-11.0-0.0-1.22","null","<span style='color:GreenYellow; font-size: 70px;'>正确! </span>","null","","","","","","","","","","","","","","","","","","","","","","","feedback_test"
"","","","","","psychophysics","155","354608","0.0-11.0-0.0-0.23","1046","","f","","","","","","","","","","","","","key","f","16.68481147540953","960","536","f","true","img/T_ambi40.png","坏人","prac_simultaneous",""
"","","","","","html-keyboard-response","156","354927","0.0-11.0-0.0-1.23","null","<span style='color:GreenYellow; font-size: 70px;'>正确! </span>","null","","","","","","","","","","","","","","","","","","","","","","","feedback_test"
"","","","","","html-keyboard-response","157","372873","0.0-12.0","17943","<style>.context{color:white; font-size: 35px; line-height:40px}</style>                              <div><p class='context'>您正确回答了79% 的试次。</p><p class='context'>您的平均反应时为946毫秒。</p><p class='context'>恭喜您完成练习。按任意键进入正式实验。</p><p class='footer' style='font-size: 35px; line-height:40px;'>请在进入正式实验实验之前将您的<span style='color: lightgreen;'>食指</span>放在电脑键盘的相应键位上进行按键。</p>"," ","","","","","","","","","","","","","","","","","","","","","","",""
"","","","","","html-keyboard-response","158","381728","0.0-13.0-0.0-0.0","8845","
      <p>请您将手指放在按键上，准备进入呈现顺序为<span style='color: yellow;'>先图形后文字条件</span>的正式匹配任务</p>
      <p> <div style = ""color: green""><按任意键进入下一阶段的匹配任务></div></p>
      ","f","","","","","","","","","","","","","","","","","","","","","","",""
"","","","","","psychophysics","159","383656","0.0-13.0-0.0-1.0-0.0-0.0","777","","f","","","","","","","","","","","","","key","f","16.68570175438582","960","536","f","true","img/C_ambi40.png","常人","image_first",""
"","","","","","html-keyboard-response","160","383969","0.0-13.0-0.0-1.0-0.0-1.0","null","<span style='color:GreenYellow; font-size: 70px;'>正确! </span>","null","","","","","","","","","","","","","","","","","","","","","","","feedback_test"
"","","","","","psychophysics","161","385855","0.0-13.0-0.0-1.0-0.0-0.1","732","","j","","","","","","","","","","","","","key","j","16.68398214285688","960","536","j","true","img/S_ambi40.png","坏人","image_first",""
"","","","","","html-keyboard-response","162","386171","0.0-13.0-0.0-1.0-0.0-1.1","null","<span style='color:GreenYellow; font-size: 70px;'>正确! </span>","null","","","","","","","","","","","","","","","","","","","","","","","feedback_test"
"","","","","","psychophysics","163","388146","0.0-13.0-0.0-1.0-0.0-0.2","823","","j","","","","","","","","","","","","","key","j","16.68488034188029","960","536","j","true","img/T_ambi40.png","好人","image_first",""
"","","","","","html-keyboard-response","164","388464","0.0-13.0-0.0-1.0-0.0-1.2","null","<span style='color:GreenYellow; font-size: 70px;'>正确! </span>","null","","","","","","","","","","","","","","","","","","","","","","","feedback_test"
"","","","","","psychophysics","165","390430","0.0-13.0-0.0-1.0-0.0-0.3","812","","j","","","","","","","","","","","","","key","j","16.686119658119765","960","536","j","true","img/C_ambi40.png","坏人","image_first",""
"","","","","","html-keyboard-response","166","390753","0.0-13.0-0.0-1.0-0.0-1.3","null","<span style='color:GreenYellow; font-size: 70px;'>正确! </span>","null","","","","","","","","","","","","","","","","","","","","","","","feedback_test"
"","","","","","psychophysics","167","392562","0.0-13.0-0.0-1.0-0.0-0.4","657","","f","","","","","","","","","","","","","key","f","16.685411214953067","960","536","f","true","img/S_ambi40.png","好人","image_first",""
"","","","","","html-keyboard-response","168","392871","0.0-13.0-0.0-1.0-0.0-1.4","null","<span style='color:GreenYellow; font-size: 70px;'>正确! </span>","null","","","","","","","","","","","","","","","","","","","","","","","feedback_test"
"","","","","","psychophysics","169","394922","0.0-13.0-0.0-1.0-0.0-0.5","899","","f","","","","","","","","","","","","","key","f","16.684834710743726","960","536","f","true","img/T_ambi40.png","坏人","image_first",""
"","","","","","html-keyboard-response","170","395231","0.0-13.0-0.0-1.0-0.0-1.5","null","<span style='color:GreenYellow; font-size: 70px;'>正确! </span>","null","","","","","","","","","","","","","","","","","","","","","","","feedback_test"
"","","","","","psychophysics","171","397150","0.0-13.0-0.0-1.0-0.0-0.6","763","","f","","","","","","","","","","","","","key","f","16.685482456140516","960","536","j","false","img/S_ambi40.png","常人","image_first",""
"","","","","","html-keyboard-response","172","397475","0.0-13.0-0.0-1.0-0.0-1.6","null","<span style='color:red; font-size: 70px;'>错误! </span>","null","","","","","","","","","","","","","","","","","","","","","","","feedback_test"
"","","","","","psychophysics","173","399616","0.0-13.0-0.0-1.0-0.0-0.7","987","","j","","","","","","","","","","","","","key","j","16.57885714285704","960","536","j","true","img/T_ambi40.png","常人","image_first",""
"","","","","","html-keyboard-response","174","399927","0.0-13.0-0.0-1.0-0.0-1.7","null","<span style='color:GreenYellow; font-size: 70px;'>正确! </span>","null","","","","","","","","","","","","","","","","","","","","","","","feedback_test"
"","","","","","psychophysics","175","402058","0.0-13.0-0.0-1.0-0.0-0.8","977","","f","","","","","","","","","","","","","key","f","16.685771653543256","960","536","f","true","img/T_ambi40.png","坏人","image_first",""
"","","","","","html-keyboard-response","176","402366","0.0-13.0-0.0-1.0-0.0-1.8","null","<span style='color:GreenYellow; font-size: 70px;'>正确! </span>","null","","","","","","","","","","","","","","","","","","","","","","","feedback_test"
"","","","","","psychophysics","177","404414","0.0-13.0-0.0-1.0-0.0-0.9","896","","f","","","","","","","","","","","","","key","f","16.684958677685508","960","536","f","true","img/S_ambi40.png","好人","image_first",""
"","","","","","html-keyboard-response","178","404728","0.0-13.0-0.0-1.0-0.0-1.9","null","<span style='color:GreenYellow; font-size: 70px;'>正确! </span>","null","","","","","","","","","","","","","","","","","","","","","","","feedback_test"
"","","","","","psychophysics","179","406728","0.0-13.0-0.0-1.0-0.0-0.10","843","","f","","","","","","","","","","","","","key","f","16.68647899159657","960","536","f","true","img/C_ambi40.png","常人","image_first",""
"","","","","","html-keyboard-response","180","407037","0.0-13.0-0.0-1.0-0.0-1.10","null","<span style='color:GreenYellow; font-size: 70px;'>正确! </span>","null","","","","","","","","","","","","","","","","","","","","","","","feedback_test"
"","","","","","psychophysics","181","408999","0.0-13.0-0.0-1.0-0.0-0.11","810","","j","","","","","","","","","","","","","key","j","16.685525862069035","960","536","j","true","img/C_ambi40.png","好人","image_first",""
"","","","","","html-keyboard-response","182","409320","0.0-13.0-0.0-1.0-0.0-1.11","null","<span style='color:GreenYellow; font-size: 70px;'>正确! </span>","null","","","","","","","","","","","","","","","","","","","","","","","feedback_test"
"","","","","","psychophysics","183","411269","0.0-13.0-0.0-1.0-0.0-0.12","795","","f","","","","","","","","","","","","","key","f","16.685603448276105","960","536","f","true","img/T_ambi40.png","坏人","image_first",""
"","","","","","html-keyboard-response","184","411579","0.0-13.0-0.0-1.0-0.0-1.12","null","<span style='color:GreenYellow; font-size: 70px;'>正确! </span>","null","","","","","","","","","","","","","","","","","","","","","","","feedback_test"
"","","","","","psychophysics","185","413433","0.0-13.0-0.0-1.0-0.0-0.13","702","","f","","","","","","","","","","","","","key","f","16.68604545454516","960","536","f","true","img/C_ambi40.png","常人","image_first",""
"","","","","","html-keyboard-response","186","413748","0.0-13.0-0.0-1.0-0.0-1.13","null","<span style='color:GreenYellow; font-size: 70px;'>正确! </span>","null","","","","","","","","","","","","","","","","","","","","","","","feedback_test"
"","","","","","psychophysics","187","415807","0.0-13.0-0.0-1.0-0.0-0.14","907","","j","","","","","","","","","","","","","key","j","16.685385245901866","960","536","j","true","img/T_ambi40.png","好人","image_first",""
"","","","","","html-keyboard-response","188","416122","0.0-13.0-0.0-1.0-0.0-1.14","null","<span style='color:GreenYellow; font-size: 70px;'>正确! </span>","null","","","","","","","","","","","","","","","","","","","","","","","feedback_test"
"","","","","","psychophysics","189","418458","0.0-13.0-0.0-1.0-0.0-0.15","1182","","j","","","","","","","","","","","","","key","j","16.686215827337854","960","536","j","true","img/S_ambi40.png","常人","image_first",""
"","","","","","html-keyboard-response","190","418778","0.0-13.0-0.0-1.0-0.0-1.15","null","<span style='color:GreenYellow; font-size: 70px;'>正确! </span>","null","","","","","","","","","","","","","","","","","","","","","","","feedback_test"
"","","","","","psychophysics","191","420832","0.0-13.0-0.0-1.0-0.0-0.16","900","","f","","","","","","","","","","","","","key","f","16.686196721311596","960","536","f","true","img/C_ambi40.png","常人","image_first",""
"","","","","","html-keyboard-response","192","421140","0.0-13.0-0.0-1.0-0.0-1.16","null","<span style='color:GreenYellow; font-size: 70px;'>正确! </span>","null","","","","","","","","","","","","","","","","","","","","","","","feedback_test"
"","","","","","psychophysics","193","423086","0.0-13.0-0.0-1.0-0.0-0.17","795","","j","","","","","","","","","","","","","key","j","16.6855304347827","960","536","j","true","img/T_ambi40.png","常人","image_first",""
"","","","","","html-keyboard-response","194","423401","0.0-13.0-0.0-1.0-0.0-1.17","null","<span style='color:GreenYellow; font-size: 70px;'>正确! </span>","null","","","","","","","","","","","","","","","","","","","","","","","feedback_test"
"","","","","","psychophysics","195","425386","0.0-13.0-0.0-1.0-0.0-0.18","829","","j","","","","","","","","","","","","","key","j","16.685720338982872","960","536","j","true","img/C_ambi40.png","坏人","image_first",""
"","","","","","html-keyboard-response","196","425694","0.0-13.0-0.0-1.0-0.0-1.18","null","<span style='color:GreenYellow; font-size: 70px;'>正确! </span>","null","","","","","","","","","","","","","","","","","","","","","","","feedback_test"
"","","","","","psychophysics","197","427620","0.0-13.0-0.0-1.0-0.0-0.19","774","","j","","","","","","","","","","","","","key","j","16.685956140351074","960","536","j","true","img/C_ambi40.png","好人","image_first",""
"","","","","","html-keyboard-response","198","427929","0.0-13.0-0.0-1.0-0.0-1.19","null","<span style='color:GreenYellow; font-size: 70px;'>正确! </span>","null","","","","","","","","","","","","","","","","","","","","","","","feedback_test"
"","","","","","psychophysics","199","429941","0.0-13.0-0.0-1.0-0.0-0.20","859","","f","","","","","","","","","","","","","key","f","16.685394957982993","960","536","f","true","img/T_ambi40.png","坏人","image_first",""
"","","","","","html-keyboard-response","200","430244","0.0-13.0-0.0-1.0-0.0-1.20","null","<span style='color:GreenYellow; font-size: 70px;'>正确! </span>","null","","","","","","","","","","","","","","","","","","","","","","","feedback_test"
"","","","","","psychophysics","201","432438","0.0-13.0-0.0-1.0-0.0-0.21","1040","","f","","","","","","","","","","","","","key","f","16.68562595419833","960","536","f","true","img/S_ambi40.png","好人","image_first",""
"","","","","","html-keyboard-response","202","432742","0.0-13.0-0.0-1.0-0.0-1.21","null","<span style='color:GreenYellow; font-size: 70px;'>正确! </span>","null","","","","","","","","","","","","","","","","","","","","","","","feedback_test"
"","","","","","psychophysics","203","434566","0.0-13.0-0.0-1.0-0.0-0.22","666","","f","","","","","","","","","","","","","key","f","16.68268518518501","960","536","f","true","img/S_ambi40.png","好人","image_first",""
"","","","","","html-keyboard-response","204","434875","0.0-13.0-0.0-1.0-0.0-1.22","null","<span style='color:GreenYellow; font-size: 70px;'>正确! </span>","null","","","","","","","","","","","","","","","","","","","","","","","feedback_test"
"","","","","","psychophysics","205","436617","0.0-13.0-0.0-1.0-0.0-0.23","591","","j","","","","","","","","","","","","","key","j","16.685980582523875","960","536","j","true","img/S_ambi40.png","坏人","image_first",""
"","","","","","html-keyboard-response","206","436933","0.0-13.0-0.0-1.0-0.0-1.23","null","<span style='color:GreenYellow; font-size: 70px;'>正确! </span>","null","","","","","","","","","","","","","","","","","","","","","","","feedback_test"
"","","","","","psychophysics","207","438717","0.0-13.0-0.0-1.0-0.0-0.24","628","","f","","","","","","","","","","","","","key","f","16.685783018867642","960","536","f","true","img/S_ambi40.png","好人","image_first",""
"","","","","","html-keyboard-response","208","439020","0.0-13.0-0.0-1.0-0.0-1.24","null","<span style='color:GreenYellow; font-size: 70px;'>正确! </span>","null","","","","","","","","","","","","","","","","","","","","","","","feedback_test"
"","","","","","psychophysics","209","440884","0.0-13.0-0.0-1.0-0.0-0.25","710","","j","","","","","","","","","","","","","key","j","16.685954954954983","960","536","f","false","img/T_ambi40.png","坏人","image_first",""
"","","","","","html-keyboard-response","210","441191","0.0-13.0-0.0-1.0-0.0-1.25","null","<span style='color:red; font-size: 70px;'>错误! </span>","null","","","","","","","","","","","","","","","","","","","","","","","feedback_test"
"","","","","","psychophysics","211","443532","0.0-13.0-0.0-1.0-0.0-0.26","1188","","j","","","","","","","","","","","","","key","j","16.68431159420288","960","536","f","false","img/C_ambi40.png","常人","image_first",""
"","","","","","html-keyboard-response","212","443836","0.0-13.0-0.0-1.0-0.0-1.26","null","<span style='color:red; font-size: 70px;'>错误! </span>","null","","","","","","","","","","","","","","","","","","","","","","","feedback_test"
"","","","","","psychophysics","213","445755","0.0-13.0-0.0-1.0-0.0-0.27","759","","f","","","","","","","","","","","","","key","f","16.686061403508862","960","536","j","false","img/S_ambi40.png","坏人","image_first",""
"","","","","","html-keyboard-response","214","446062","0.0-13.0-0.0-1.0-0.0-1.27","null","<span style='color:red; font-size: 70px;'>错误! </span>","null","","","","","","","","","","","","","","","","","","","","","","","feedback_test"
"","","","","","psychophysics","215","448277","0.0-13.0-0.0-1.0-0.0-0.28","1062","","j","","","","","","","","","","","","","key","j","16.580549618320802","960","536","j","true","img/T_ambi40.png","常人","image_first",""
"","","","","","html-keyboard-response","216","448589","0.0-13.0-0.0-1.0-0.0-1.28","null","<span style='color:GreenYellow; font-size: 70px;'>正确! </span>","null","","","","","","","","","","","","","","","","","","","","","","","feedback_test"
"","","","","","psychophysics","217","450461","0.0-13.0-0.0-1.0-0.0-0.29","714","","f","","","","","","","","","","","","","key","f","16.688216216216148","960","536","f","true","img/T_ambi40.png","坏人","image_first",""
"","","","","","html-keyboard-response","218","450772","0.0-13.0-0.0-1.0-0.0-1.29","null","<span style='color:GreenYellow; font-size: 70px;'>正确! </span>","null","","","","","","","","","","","","","","","","","","","","","","","feedback_test"
"","","","","","psychophysics","219","452562","0.0-13.0-0.0-1.0-0.0-0.30","636","","j","","","","","","","","","","","","","key","j","16.685726415094116","960","536","j","true","img/C_ambi40.png","坏人","image_first",""
"","","","","","html-keyboard-response","220","452877","0.0-13.0-0.0-1.0-0.0-1.30","null","<span style='color:GreenYellow; font-size: 70px;'>正确! </span>","null","","","","","","","","","","","","","","","","","","","","","","","feedback_test"
"","","","","","psychophysics","221","454633","0.0-13.0-0.0-1.0-0.0-0.31","597","","f","","","","","","","","","","","","","key","f","16.685557692307786","960","536","f","true","img/C_ambi40.png","常人","image_first",""
"","","","","","html-keyboard-response","222","454950","0.0-13.0-0.0-1.0-0.0-1.31","null","<span style='color:GreenYellow; font-size: 70px;'>正确! </span>","null","","","","","","","","","","","","","","","","","","","","","","","feedback_test"
"","","","","","psychophysics","223","456998","0.0-13.0-0.0-1.0-0.0-0.32","890","","j","","","","","","","","","","","","","key","j","16.68604132231404","960","536","j","true","img/C_ambi40.png","好人","image_first",""
"","","","","","html-keyboard-response","224","457301","0.0-13.0-0.0-1.0-0.0-1.32","null","<span style='color:GreenYellow; font-size: 70px;'>正确! </span>","null","","","","","","","","","","","","","","","","","","","","","","","feedback_test"
"","","","","","psychophysics","225","459259","0.0-13.0-0.0-1.0-0.0-0.33","800","","j","","","","","","","","","","","","","key","j","16.685741379310613","960","536","j","true","img/T_ambi40.png","好人","image_first",""
"","","","","","html-keyboard-response","226","459575","0.0-13.0-0.0-1.0-0.0-1.33","null","<span style='color:GreenYellow; font-size: 70px;'>正确! </span>","null","","","","","","","","","","","","","","","","","","","","","","","feedback_test"
"","","","","","psychophysics","227","461334","0.0-13.0-0.0-1.0-0.0-0.34","604","","f","","","","","","","","","","","","","key","f","16.68438095238082","960","536","f","true","img/S_ambi40.png","好人","image_first",""
"","","","","","html-keyboard-response","228","461651","0.0-13.0-0.0-1.0-0.0-1.34","null","<span style='color:GreenYellow; font-size: 70px;'>正确! </span>","null","","","","","","","","","","","","","","","","","","","","","","","feedback_test"
"","","","","","psychophysics","229","463632","0.0-13.0-0.0-1.0-0.0-0.35","827","","j","","","","","","","","","","","","","key","j","16.686538461538063","960","536","j","true","img/S_ambi40.png","常人","image_first",""
"","","","","","html-keyboard-response","230","463941","0.0-13.0-0.0-1.0-0.0-1.35","null","<span style='color:GreenYellow; font-size: 70px;'>正确! </span>","null","","","","","","","","","","","","","","","","","","","","","","","feedback_test"
"","","","","","psychophysics","231","465774","0.0-13.0-0.0-1.0-0.0-0.36","675","","f","","","","","","","","","","","","","key","f","16.685706422018068","960","536","f","true","img/S_ambi40.png","好人","image_first",""
"","","","","","html-keyboard-response","232","466099","0.0-13.0-0.0-1.0-0.0-1.36","null","<span style='color:GreenYellow; font-size: 70px;'>正确! </span>","null","","","","","","","","","","","","","","","","","","","","","","","feedback_test"
"","","","","","psychophysics","233","468025","0.0-13.0-0.0-1.0-0.0-0.37","771","","j","","","","","","","","","","","","","key","j","16.68550434782595","960","536","j","true","img/S_ambi40.png","常人","image_first",""
"","","","","","html-keyboard-response","234","468326","0.0-13.0-0.0-1.0-0.0-1.37","null","<span style='color:GreenYellow; font-size: 70px;'>正确! </span>","null","","","","","","","","","","","","","","","","","","","","","","","feedback_test"
"","","","","","psychophysics","235","470222","0.0-13.0-0.0-1.0-0.0-0.38","745","","j","","","","","","","","","","","","","key","j","16.68806250000021","960","536","f","false","img/C_ambi40.png","常人","image_first",""
"","","","","","html-keyboard-response","236","470537","0.0-13.0-0.0-1.0-0.0-1.38","null","<span style='color:red; font-size: 70px;'>错误! </span>","null","","","","","","","","","","","","","","","","","","","","","","","feedback_test"
"","","","","","psychophysics","237","472366","0.0-13.0-0.0-1.0-0.0-0.39","669","","f","","","","","","","","","","","","","key","f","16.685045871559485","960","536","f","true","img/C_ambi40.png","常人","image_first",""
"","","","","","html-keyboard-response","238","472680","0.0-13.0-0.0-1.0-0.0-1.39","null","<span style='color:GreenYellow; font-size: 70px;'>正确! </span>","null","","","","","","","","","","","","","","","","","","","","","","","feedback_test"
"","","","","","psychophysics","239","474543","0.0-13.0-0.0-1.0-0.0-0.40","707","","f","","","","","","","","","","","","","key","f","16.685072727272797","960","536","f","true","img/T_ambi40.png","坏人","image_first",""
"","","","","","html-keyboard-response","240","474864","0.0-13.0-0.0-1.0-0.0-1.40","null","<span style='color:GreenYellow; font-size: 70px;'>正确! </span>","null","","","","","","","","","","","","","","","","","","","","","","","feedback_test"
"","","","","","psychophysics","241","476785","0.0-13.0-0.0-1.0-0.0-0.41","766","","f","","","","","","","","","","","","","key","f","16.686079646017717","960","536","f","true","img/S_ambi40.png","好人","image_first",""
"","","","","","html-keyboard-response","242","477095","0.0-13.0-0.0-1.0-0.0-1.41","null","<span style='color:GreenYellow; font-size: 70px;'>正确! </span>","null","","","","","","","","","","","","","","","","","","","","","","","feedback_test"
"","","","","","psychophysics","243","478941","0.0-13.0-0.0-1.0-0.0-0.42","692","","f","","","","","","","","","","","","","key","f","16.685827272727195","960","536","j","false","img/C_ambi40.png","好人","image_first",""
"","","","","","html-keyboard-response","244","479252","0.0-13.0-0.0-1.0-0.0-1.42","null","<span style='color:red; font-size: 70px;'>错误! </span>","null","","","","","","","","","","","","","","","","","","","","","","","feedback_test"
"","","","","","psychophysics","245","481102","0.0-13.0-0.0-1.0-0.0-0.43","699","","f","","","","","","","","","","","","","key","f","16.685220183486358","960","536","f","true","img/T_ambi40.png","坏人","image_first",""
"","","","","","html-keyboard-response","246","481412","0.0-13.0-0.0-1.0-0.0-1.43","null","<span style='color:GreenYellow; font-size: 70px;'>正确! </span>","null","","","","","","","","","","","","","","","","","","","","","","","feedback_test"
"","","","","","psychophysics","247","483111","0.0-13.0-0.0-1.0-0.0-0.44","540","","j","","","","","","","","","","","","","key","j","16.685732673267523","960","536","j","true","img/C_ambi40.png","坏人","image_first",""
"","","","","","html-keyboard-response","248","483420","0.0-13.0-0.0-1.0-0.0-1.44","null","<span style='color:GreenYellow; font-size: 70px;'>正确! </span>","null","","","","","","","","","","","","","","","","","","","","","","","feedback_test"
"","","","","","psychophysics","249","485513","0.0-13.0-0.0-1.0-0.0-0.45","940","","f","","","","","","","","","","","","","key","f","16.68531451612897","960","536","j","false","img/T_ambi40.png","好人","image_first",""
"","","","","","html-keyboard-response","250","485830","0.0-13.0-0.0-1.0-0.0-1.45","null","<span style='color:red; font-size: 70px;'>错误! </span>","null","","","","","","","","","","","","","","","","","","","","","","","feedback_test"
"","","","","","psychophysics","251","487735","0.0-13.0-0.0-1.0-0.0-0.46","753","","j","","","","","","","","","","","","","key","j","16.684991150442304","960","536","j","true","img/T_ambi40.png","常人","image_first",""
"","","","","","html-keyboard-response","252","488055","0.0-13.0-0.0-1.0-0.0-1.46","null","<span style='color:GreenYellow; font-size: 70px;'>正确! </span>","null","","","","","","","","","","","","","","","","","","","","","","","feedback_test"
"","","","","","psychophysics","253","490255","0.0-13.0-0.0-1.0-0.0-0.47","1044","","j","","","","","","","","","","","","","key","j","16.686160305343417","960","536","j","true","img/S_ambi40.png","坏人","image_first",""
"","","","","","html-keyboard-response","254","490566","0.0-13.0-0.0-1.0-0.0-1.47","null","<span style='color:GreenYellow; font-size: 70px;'>正确! </span>","null","","","","","","","","","","","","","","","","","","","","","","","feedback_test"
"","","","","","psychophysics","255","492367","0.0-13.0-0.0-1.0-0.0-0.48","649","","f","","","","","","","","","","","","","key","f","16.684358490566186","960","536","f","true","img/C_ambi40.png","常人","image_first",""
"","","","","","html-keyboard-response","256","492678","0.0-13.0-0.0-1.0-0.0-1.48","null","<span style='color:GreenYellow; font-size: 70px;'>正确! </span>","null","","","","","","","","","","","","","","","","","","","","","","","feedback_test"
"","","","","","psychophysics","257","494569","0.0-13.0-0.0-1.0-0.0-0.49","734","","j","","","","","","","","","","","","","key","j","16.685473214285594","960","536","j","true","img/T_ambi40.png","常人","image_first",""
"","","","","","html-keyboard-response","258","494877","0.0-13.0-0.0-1.0-0.0-1.49","null","<span style='color:GreenYellow; font-size: 70px;'>正确! </span>","null","","","","","","","","","","","","","","","","","","","","","","","feedback_test"
"","","","","","psychophysics","259","496710","0.0-13.0-0.0-1.0-0.0-0.50","674","","f","","","","","","","","","","","","","key","f","16.685018348623466","960","536","j","false","img/C_ambi40.png","好人","image_first",""
"","","","","","html-keyboard-response","260","497025","0.0-13.0-0.0-1.0-0.0-1.50","null","<span style='color:red; font-size: 70px;'>错误! </span>","null","","","","","","","","","","","","","","","","","","","","","","","feedback_test"
"","","","","","psychophysics","261","498881","0.0-13.0-0.0-1.0-0.0-0.51","704","","j","","","","","","","","","","","","","key","j","17.152551401868923","960","536","f","false","img/S_ambi40.png","好人","image_first",""
"","","","","","html-keyboard-response","262","499199","0.0-13.0-0.0-1.0-0.0-1.51","null","<span style='color:red; font-size: 70px;'>错误! </span>","null","","","","","","","","","","","","","","","","","","","","","","","feedback_test"
"","","","","","psychophysics","263","501013","0.0-13.0-0.0-1.0-0.0-0.52","656","","j","","","","","","","","","","","","","key","j","16.68470370370401","960","536","j","true","img/T_ambi40.png","好人","image_first",""
"","","","","","html-keyboard-response","264","501322","0.0-13.0-0.0-1.0-0.0-1.52","null","<span style='color:GreenYellow; font-size: 70px;'>正确! </span>","null","","","","","","","","","","","","","","","","","","","","","","","feedback_test"
"","","","","","psychophysics","265","503073","0.0-13.0-0.0-1.0-0.0-0.53","596","","f","","","","","","","","","","","","","key","f","16.685086538461082","960","536","f","true","img/C_ambi40.png","常人","image_first",""
"","","","","","html-keyboard-response","266","503387","0.0-13.0-0.0-1.0-0.0-1.53","null","<span style='color:GreenYellow; font-size: 70px;'>正确! </span>","null","","","","","","","","","","","","","","","","","","","","","","","feedback_test"
"","","","","","psychophysics","267","505227","0.0-13.0-0.0-1.0-0.0-0.54","682","","j","","","","","","","","","","","","","key","j","16.686275229357832","960","536","j","true","img/S_ambi40.png","常人","image_first",""
"","","","","","html-keyboard-response","268","505544","0.0-13.0-0.0-1.0-0.0-1.54","null","<span style='color:GreenYellow; font-size: 70px;'>正确! </span>","null","","","","","","","","","","","","","","","","","","","","","","","feedback_test"
"","","","","","psychophysics","269","507578","0.0-13.0-0.0-1.0-0.0-0.55","880","","f","","","","","","","","","","","","","key","f","16.579891666666178","960","536","f","true","img/T_ambi40.png","坏人","image_first",""
"","","","","","html-keyboard-response","270","507888","0.0-13.0-0.0-1.0-0.0-1.55","null","<span style='color:GreenYellow; font-size: 70px;'>正确! </span>","null","","","","","","","","","","","","","","","","","","","","","","","feedback_test"
"","","","","","psychophysics","271","509547","0.0-13.0-0.0-1.0-0.0-0.56","503","","f","","","","","","","","","","","","","key","f","16.683500000000077","960","536","f","true","img/T_ambi40.png","坏人","image_first",""
"","","","","","html-keyboard-response","272","509853","0.0-13.0-0.0-1.0-0.0-1.56","null","<span style='color:GreenYellow; font-size: 70px;'>正确! </span>","null","","","","","","","","","","","","","","","","","","","","","","","feedback_test"
"","","","","","psychophysics","273","511744","0.0-13.0-0.0-1.0-0.0-0.57","736","","j","","","","","","","","","","","","","key","j","16.6849910714279","960","536","f","false","img/S_ambi40.png","好人","image_first",""
"","","","","","html-keyboard-response","274","512054","0.0-13.0-0.0-1.0-0.0-1.57","null","<span style='color:red; font-size: 70px;'>错误! </span>","null","","","","","","","","","","","","","","","","","","","","","","","feedback_test"
"","","","","","psychophysics","275","513900","0.0-13.0-0.0-1.0-0.0-0.58","694","","j","","","","","","","","","","","","","key","j","16.68565137614603","960","536","j","true","img/C_ambi40.png","坏人","image_first",""
"","","","","","html-keyboard-response","276","514213","0.0-13.0-0.0-1.0-0.0-1.58","null","<span style='color:GreenYellow; font-size: 70px;'>正确! </span>","null","","","","","","","","","","","","","","","","","","","","","","","feedback_test"
"","","","","","psychophysics","277","516079","0.0-13.0-0.0-1.0-0.0-0.59","706","","f","","","","","","","","","","","","","key","f","16.686036363635637","960","536","j","false","img/S_ambi40.png","坏人","image_first",""
"","","","","","html-keyboard-response","278","516393","0.0-13.0-0.0-1.0-0.0-1.59","null","<span style='color:red; font-size: 70px;'>错误! </span>","null","","","","","","","","","","","","","","","","","","","","","","","feedback_test"
"","","","","","html-keyboard-response","279","518903","0.0-13.0-0.0-1.0-1.0","2507","<style>.context{color:white; font-size: 35px; line-height:40px}</style>                              <div><p class='context'>您正确回答了82% 的试次。</p><p class='context'>您的平均反应时为776毫秒。</p><p class='context'>请按任意键进入休息</p></div>"," ","","","","","","","","","","","","","","","","","","","","","","",""
"","","","","","html-button-response","280","585637","0.0-13.0-0.0-1.0-2.0","66727","
                      <p>您当前还剩余3组实验</p>
                      <p>现在是休息时间，当您结束休息后，您可以点击 结束休息 按钮 继续</p>
                      <p>建议休息时间还剩余<span id=""iii"">60</span>秒</p>","0","","","","","","","","","","","","","","","","","","","","","","",""
"","","","","","psychophysics","281","587611","0.0-13.0-0.0-1.0-0.1-0.60","818","","j","","","","","","","","","","","","","key","j","16.686632478632568","960","536","f","false","img/C_ambi40.png","常人","image_first",""
"","","","","","html-keyboard-response","282","587921","0.0-13.0-0.0-1.0-0.1-1.60","null","<span style='color:red; font-size: 70px;'>错误! </span>","null","","","","","","","","","","","","","","","","","","","","","","","feedback_test"
"","","","","","psychophysics","283","589864","0.0-13.0-0.0-1.0-0.1-0.61","791","","j","","","","","","","","","","","","","key","j","16.68530434782556","960","536","j","true","img/S_ambi40.png","坏人","image_first",""
"","","","","","html-keyboard-response","284","590180","0.0-13.0-0.0-1.0-0.1-1.61","null","<span style='color:GreenYellow; font-size: 70px;'>正确! </span>","null","","","","","","","","","","","","","","","","","","","","","","","feedback_test"
"","","","","","psychophysics","285","592086","0.0-13.0-0.0-1.0-0.1-0.62","745","","f","","","","","","","","","","","","","key","f","16.68556637168075","960","536","f","true","img/T_ambi40.png","坏人","image_first",""
"","","","","","html-keyboard-response","286","592397","0.0-13.0-0.0-1.0-0.1-1.62","null","<span style='color:GreenYellow; font-size: 70px;'>正确! </span>","null","","","","","","","","","","","","","","","","","","","","","","","feedback_test"
"","","","","","psychophysics","287","594329","0.0-13.0-0.0-1.0-0.1-0.63","780","","f","","","","","","","","","","","","","key","f","16.684815789473838","960","536","f","true","img/S_ambi40.png","好人","image_first",""
"","","","","","html-keyboard-response","288","594637","0.0-13.0-0.0-1.0-0.1-1.63","null","<span style='color:GreenYellow; font-size: 70px;'>正确! </span>","null","","","","","","","","","","","","","","","","","","","","","","","feedback_test"
"","","","","","psychophysics","289","596626","0.0-13.0-0.0-1.0-0.1-0.64","830","","f","","","","","","","","","","","","","key","f","16.68447863247791","960","536","f","true","img/S_ambi40.png","好人","image_first",""
"","","","","","html-keyboard-response","290","596941","0.0-13.0-0.0-1.0-0.1-1.64","null","<span style='color:GreenYellow; font-size: 70px;'>正确! </span>","null","","","","","","","","","","","","","","","","","","","","","","","feedback_test"
"","","","","","psychophysics","291","598786","0.0-13.0-0.0-1.0-0.1-0.65","687","","f","","","","","","","","","","","","","key","f","16.685600000000772","960","536","f","true","img/C_ambi40.png","常人","image_first",""
"","","","","","html-keyboard-response","292","599093","0.0-13.0-0.0-1.0-0.1-1.65","null","<span style='color:GreenYellow; font-size: 70px;'>正确! </span>","null","","","","","","","","","","","","","","","","","","","","","","","feedback_test"
"","","","","","psychophysics","293","601079","0.0-13.0-0.0-1.0-0.1-0.66","829","","j","","","","","","","","","","","","","key","j","16.685237288135657","960","536","j","true","img/S_ambi40.png","常人","image_first",""
"","","","","","html-keyboard-response","294","601390","0.0-13.0-0.0-1.0-0.1-1.66","null","<span style='color:GreenYellow; font-size: 70px;'>正确! </span>","null","","","","","","","","","","","","","","","","","","","","","","","feedback_test"
"","","","","","psychophysics","295","603261","0.0-13.0-0.0-1.0-0.1-0.67","720","","f","","","","","","","","","","","","","key","f","16.684369369369076","960","536","f","true","img/T_ambi40.png","坏人","image_first",""
"","","","","","html-keyboard-response","296","603577","0.0-13.0-0.0-1.0-0.1-1.67","null","<span style='color:GreenYellow; font-size: 70px;'>正确! </span>","null","","","","","","","","","","","","","","","","","","","","","","","feedback_test"
"","","","","","psychophysics","297","605653","0.0-13.0-0.0-1.0-0.1-0.68","925","","f","","","","","","","","","","","","","key","f","16.68551219512171","960","536","j","false","img/C_ambi40.png","坏人","image_first",""
"","","","","","html-keyboard-response","298","605964","0.0-13.0-0.0-1.0-0.1-1.68","null","<span style='color:red; font-size: 70px;'>错误! </span>","null","","","","","","","","","","","","","","","","","","","","","","","feedback_test"
"","","","","","psychophysics","299","607946","0.0-13.0-0.0-1.0-0.1-0.69","827","","j","","","","","","","","","","","","","key","j","16.685271186440378","960","536","j","true","img/T_ambi40.png","好人","image_first",""
"","","","","","html-keyboard-response","300","608256","0.0-13.0-0.0-1.0-0.1-1.69","null","<span style='color:GreenYellow; font-size: 70px;'>正确! </span>","null","","","","","","","","","","","","","","","","","","","","","","","feedback_test"
"","","","","","psychophysics","301","610150","0.0-13.0-0.0-1.0-0.1-0.70","738","","f","","","","","","","","","","","","","key","f","16.688424778761203","960","536","j","false","img/C_ambi40.png","好人","image_first",""
"","","","","","html-keyboard-response","302","610472","0.0-13.0-0.0-1.0-0.1-1.70","null","<span style='color:red; font-size: 70px;'>错误! </span>","null","","","","","","","","","","","","","","","","","","","","","","","feedback_test"
"","","","","","psychophysics","303","612434","0.0-13.0-0.0-1.0-0.1-0.71","806","","j","","","","","","","","","","","","","key","j","16.685387931034523","960","536","j","true","img/T_ambi40.png","常人","image_first",""
"","","","","","html-keyboard-response","304","612755","0.0-13.0-0.0-1.0-0.1-1.71","null","<span style='color:GreenYellow; font-size: 70px;'>正确! </span>","null","","","","","","","","","","","","","","","","","","","","","","","feedback_test"
"","","","","","psychophysics","305","614715","0.0-13.0-0.0-1.0-0.1-0.72","806","","j","","","","","","","","","","","","","key","j","16.684862068964666","960","536","j","true","img/C_ambi40.png","好人","image_first",""
"","","","","","html-keyboard-response","306","615024","0.0-13.0-0.0-1.0-0.1-1.72","null","<span style='color:GreenYellow; font-size: 70px;'>正确! </span>","null","","","","","","","","","","","","","","","","","","","","","","","feedback_test"
"","","","","","psychophysics","307","616881","0.0-13.0-0.0-1.0-0.1-0.73","700","","f","","","","","","","","","","","","","key","f","16.6857818181817","960","536","f","true","img/S_ambi40.png","好人","image_first",""
"","","","","","html-keyboard-response","308","617185","0.0-13.0-0.0-1.0-0.1-1.73","null","<span style='color:GreenYellow; font-size: 70px;'>正确! </span>","null","","","","","","","","","","","","","","","","","","","","","","","feedback_test"
"","","","","","psychophysics","309","619229","0.0-13.0-0.0-1.0-0.1-0.74","891","","f","","","","","","","","","","","","","key","f","16.68480991735604","960","536","f","true","img/T_ambi40.png","坏人","image_first",""
"","","","","","html-keyboard-response","310","619547","0.0-13.0-0.0-1.0-0.1-1.74","null","<span style='color:GreenYellow; font-size: 70px;'>正确! </span>","null","","","","","","","","","","","","","","","","","","","","","","","feedback_test"
"","","","","","psychophysics","311","621790","0.0-13.0-0.0-1.0-0.1-0.75","1088","","j","","","","","","","","","","","","","key","j","16.68550375939865","960","536","j","true","img/S_ambi40.png","常人","image_first",""
"","","","","","html-keyboard-response","312","622105","0.0-13.0-0.0-1.0-0.1-1.75","null","<span style='color:GreenYellow; font-size: 70px;'>正确! </span>","null","","","","","","","","","","","","","","","","","","","","","","","feedback_test"
"","","","","","psychophysics","313","624098","0.0-13.0-0.0-1.0-0.1-0.76","839","","f","","","","","","","","","","","","","key","f","16.685008403360882","960","536","f","true","img/C_ambi40.png","常人","image_first",""
"","","","","","html-keyboard-response","314","624416","0.0-13.0-0.0-1.0-0.1-1.76","null","<span style='color:GreenYellow; font-size: 70px;'>正确! </span>","null","","","","","","","","","","","","","","","","","","","","","","","feedback_test"
"","","","","","psychophysics","315","626184","0.0-13.0-0.0-1.0-0.1-0.77","612","","j","","","","","","","","","","","","","key","j","16.686199999999786","960","536","j","true","img/C_ambi40.png","坏人","image_first",""
"","","","","","html-keyboard-response","316","626493","0.0-13.0-0.0-1.0-0.1-1.77","null","<span style='color:GreenYellow; font-size: 70px;'>正确! </span>","null","","","","","","","","","","","","","","","","","","","","","","","feedback_test"
"","","","","","psychophysics","317","628721","0.0-13.0-0.0-1.0-0.1-0.78","1073","","j","","","","","","","","","","","","","key","j","16.686759398496513","960","536","j","true","img/T_ambi40.png","常人","image_first",""
"","","","","","html-keyboard-response","318","629036","0.0-13.0-0.0-1.0-0.1-1.78","null","<span style='color:GreenYellow; font-size: 70px;'>正确! </span>","null","","","","","","","","","","","","","","","","","","","","","","","feedback_test"
"","","","","","psychophysics","319","631073","0.0-13.0-0.0-1.0-0.1-0.79","886","","f","","","","","","","","","","","","","key","f","16.68584297520632","960","536","f","true","img/S_ambi40.png","好人","image_first",""
"","","","","","html-keyboard-response","320","631392","0.0-13.0-0.0-1.0-0.1-1.79","null","<span style='color:GreenYellow; font-size: 70px;'>正确! </span>","null","","","","","","","","","","","","","","","","","","","","","","","feedback_test"
"","","","","","psychophysics","321","633225","0.0-13.0-0.0-1.0-0.1-0.80","677","","j","","","","","","","","","","","","","key","j","16.68589814814752","960","536","j","true","img/T_ambi40.png","好人","image_first",""
"","","","","","html-keyboard-response","322","633545","0.0-13.0-0.0-1.0-0.1-1.80","null","<span style='color:GreenYellow; font-size: 70px;'>正确! </span>","null","","","","","","","","","","","","","","","","","","","","","","","feedback_test"
"","","","","","psychophysics","323","635642","0.0-13.0-0.0-1.0-0.1-0.81","941","","j","","","","","","","","","","","","","key","j","16.68573387096835","960","536","j","true","img/S_ambi40.png","坏人","image_first",""
"","","","","","html-keyboard-response","324","635960","0.0-13.0-0.0-1.0-0.1-1.81","null","<span style='color:GreenYellow; font-size: 70px;'>正确! </span>","null","","","","","","","","","","","","","","","","","","","","","","","feedback_test"
"","","","","","psychophysics","325","637738","0.0-13.0-0.0-1.0-0.1-0.82","623","","j","","","","","","","","","","","","","key","j","16.685485714285946","960","536","f","false","img/T_ambi40.png","坏人","image_first",""
"","","","","","html-keyboard-response","326","638052","0.0-13.0-0.0-1.0-0.1-1.82","null","<span style='color:red; font-size: 70px;'>错误! </span>","null","","","","","","","","","","","","","","","","","","","","","","","feedback_test"
"","","","","","psychophysics","327","639842","0.0-13.0-0.0-1.0-0.1-0.83","639","","f","","","","","","","","","","","","","key","f","16.685283018868056","960","536","f","true","img/C_ambi40.png","常人","image_first",""
"","","","","","html-keyboard-response","328","640144","0.0-13.0-0.0-1.0-0.1-1.83","null","<span style='color:GreenYellow; font-size: 70px;'>正确! </span>","null","","","","","","","","","","","","","","","","","","","","","","","feedback_test"
"","","","","","psychophysics","329","641902","0.0-13.0-0.0-1.0-0.1-0.84","606","","j","","","","","","","","","","","","","key","j","16.684528846153764","960","536","j","true","img/S_ambi40.png","坏人","image_first",""
"","","","","","html-keyboard-response","330","642209","0.0-13.0-0.0-1.0-0.1-1.84","null","<span style='color:GreenYellow; font-size: 70px;'>正确! </span>","null","","","","","","","","","","","","","","","","","","","","","","","feedback_test"
"","","","","","psychophysics","331","643873","0.0-13.0-0.0-1.0-0.1-0.85","508","","f","","","","","","","","","","","","","key","f","16.687040404040328","960","536","j","false","img/C_ambi40.png","好人","image_first",""
"","","","","","html-keyboard-response","332","644175","0.0-13.0-0.0-1.0-0.1-1.85","null","<span style='color:red; font-size: 70px;'>错误! </span>","null","","","","","","","","","","","","","","","","","","","","","","","feedback_test"
"","","","","","psychophysics","333","645949","0.0-13.0-0.0-1.0-0.1-0.86","616","","j","","","","","","","","","","","","","key","j","16.684819047618657","960","536","j","true","img/T_ambi40.png","好人","image_first",""
"","","","","","html-keyboard-response","334","646264","0.0-13.0-0.0-1.0-0.1-1.86","null","<span style='color:GreenYellow; font-size: 70px;'>正确! </span>","null","","","","","","","","","","","","","","","","","","","","","","","feedback_test"
"","","","","","psychophysics","335","648079","0.0-13.0-0.0-1.0-0.1-0.87","660","","f","","","","","","","","","","","","","key","f","16.686175925926634","960","536","f","true","img/C_ambi40.png","常人","image_first",""
"","","","","","html-keyboard-response","336","648391","0.0-13.0-0.0-1.0-0.1-1.87","null","<span style='color:GreenYellow; font-size: 70px;'>正确! </span>","null","","","","","","","","","","","","","","","","","","","","","","","feedback_test"
"","","","","","psychophysics","337","650126","0.0-13.0-0.0-1.0-0.1-0.88","583","","j","","","","","","","","","","","","","key","j","16.68602912621437","960","536","j","true","img/C_ambi40.png","坏人","image_first",""
"","","","","","html-keyboard-response","338","650436","0.0-13.0-0.0-1.0-0.1-1.88","null","<span style='color:GreenYellow; font-size: 70px;'>正确! </span>","null","","","","","","","","","","","","","","","","","","","","","","","feedback_test"
"","","","","","psychophysics","339","652191","0.0-13.0-0.0-1.0-0.1-0.89","600","","f","","","","","","","","","","","","","key","f","16.685269230769617","960","536","f","true","img/C_ambi40.png","常人","image_first",""
"","","","","","html-keyboard-response","340","652508","0.0-13.0-0.0-1.0-0.1-1.89","null","<span style='color:GreenYellow; font-size: 70px;'>正确! </span>","null","","","","","","","","","","","","","","","","","","","","","","","feedback_test"
"","","","","","psychophysics","341","654565","0.0-13.0-0.0-1.0-0.1-0.90","903","","j","","","","","","","","","","","","","key","j","16.685516393442875","960","536","f","false","img/S_ambi40.png","好人","image_first",""
"","","","","","html-keyboard-response","342","654870","0.0-13.0-0.0-1.0-0.1-1.90","null","<span style='color:red; font-size: 70px;'>错误! </span>","null","","","","","","","","","","","","","","","","","","","","","","","feedback_test"
"","","","","","psychophysics","343","656761","0.0-13.0-0.0-1.0-0.1-0.91","733","","j","","","","","","","","","","","","","key","j","16.68520535714301","960","536","j","true","img/S_ambi40.png","常人","image_first",""
"","","","","","html-keyboard-response","344","657083","0.0-13.0-0.0-1.0-0.1-1.91","null","<span style='color:GreenYellow; font-size: 70px;'>正确! </span>","null","","","","","","","","","","","","","","","","","","","","","","","feedback_test"
"","","","","","psychophysics","345","659051","0.0-13.0-0.0-1.0-0.1-0.92","815","","f","","","","","","","","","","","","","key","f","16.68535344827627","960","536","f","true","img/T_ambi40.png","坏人","image_first",""
"","","","","","html-keyboard-response","346","659361","0.0-13.0-0.0-1.0-0.1-1.92","null","<span style='color:GreenYellow; font-size: 70px;'>正确! </span>","null","","","","","","","","","","","","","","","","","","","","","","","feedback_test"
"","","","","","psychophysics","347","661326","0.0-13.0-0.0-1.0-0.1-0.93","809","","f","","","","","","","","","","","","","key","f","16.685504273504506","960","536","f","true","img/T_ambi40.png","坏人","image_first",""
"","","","","","html-keyboard-response","348","661636","0.0-13.0-0.0-1.0-0.1-1.93","null","<span style='color:GreenYellow; font-size: 70px;'>正确! </span>","null","","","","","","","","","","","","","","","","","","","","","","","feedback_test"
"","","","","","psychophysics","349","663353","0.0-13.0-0.0-1.0-0.1-0.94","565","","j","","","","","","","","","","","","","key","j","16.684316831682395","960","536","j","true","img/T_ambi40.png","常人","image_first",""
"","","","","","html-keyboard-response","350","663666","0.0-13.0-0.0-1.0-0.1-1.94","null","<span style='color:GreenYellow; font-size: 70px;'>正确! </span>","null","","","","","","","","","","","","","","","","","","","","","","","feedback_test"
"","","","","","psychophysics","351","665461","0.0-13.0-0.0-1.0-0.1-0.95","641","","f","","","","","","","","","","","","","key","f","16.686383177569816","960","536","f","true","img/S_ambi40.png","好人","image_first",""
"","","","","","html-keyboard-response","352","665775","0.0-13.0-0.0-1.0-0.1-1.95","null","<span style='color:GreenYellow; font-size: 70px;'>正确! </span>","null","","","","","","","","","","","","","","","","","","","","","","","feedback_test"
"","","","","","psychophysics","353","667394","0.0-13.0-0.0-1.0-0.1-0.96","466","","f","","","","","","","","","","","","","key","f","16.685260416667006","960","536","f","true","img/S_ambi40.png","好人","image_first",""
"","","","","","html-keyboard-response","354","667709","0.0-13.0-0.0-1.0-0.1-1.96","null","<span style='color:GreenYellow; font-size: 70px;'>正确! </span>","null","","","","","","","","","","","","","","","","","","","","","","","feedback_test"
"","","","","","psychophysics","355","669566","0.0-13.0-0.0-1.0-0.1-0.97","705","","j","","","","","","","","","","","","","key","j","16.68466363636332","960","536","j","true","img/C_ambi40.png","好人","image_first",""
"","","","","","html-keyboard-response","356","669876","0.0-13.0-0.0-1.0-0.1-1.97","null","<span style='color:GreenYellow; font-size: 70px;'>正确! </span>","null","","","","","","","","","","","","","","","","","","","","","","","feedback_test"
"","","","","","psychophysics","357","671722","0.0-13.0-0.0-1.0-0.1-0.98","693","","f","","","","","","","","","","","","","key","f","16.686018348623435","960","536","f","true","img/C_ambi40.png","常人","image_first",""
"","","","","","html-keyboard-response","358","672034","0.0-13.0-0.0-1.0-0.1-1.98","null","<span style='color:GreenYellow; font-size: 70px;'>正确! </span>","null","","","","","","","","","","","","","","","","","","","","","","","feedback_test"
"","","","","","psychophysics","359","674034","0.0-13.0-0.0-1.0-0.1-0.99","848","","j","","","","","","","","","","","","","key","j","16.684118644068","960","536","j","true","img/S_ambi40.png","常人","image_first",""
"","","","","","html-keyboard-response","360","674354","0.0-13.0-0.0-1.0-0.1-1.99","null","<span style='color:GreenYellow; font-size: 70px;'>正确! </span>","null","","","","","","","","","","","","","","","","","","","","","","","feedback_test"
"","","","","","psychophysics","361","676146","0.0-13.0-0.0-1.0-0.1-0.100","640","","j","","","","","","","","","","","","","key","j","17.00603846153871","960","536","j","true","img/S_ambi40.png","坏人","image_first",""
"","","","","","html-keyboard-response","362","676467","0.0-13.0-0.0-1.0-0.1-1.100","null","<span style='color:GreenYellow; font-size: 70px;'>正确! </span>","null","","","","","","","","","","","","","","","","","","","","","","","feedback_test"
"","","","","","psychophysics","363","678434","0.0-13.0-0.0-1.0-0.1-0.101","814","","f","","","","","","","","","","","","","key","f","16.685043103447995","960","536","f","true","img/C_ambi40.png","常人","image_first",""
"","","","","","html-keyboard-response","364","678739","0.0-13.0-0.0-1.0-0.1-1.101","null","<span style='color:GreenYellow; font-size: 70px;'>正确! </span>","null","","","","","","","","","","","","","","","","","","","","","","","feedback_test"
"","","","","","psychophysics","365","680567","0.0-13.0-0.0-1.0-0.1-0.102","677","","j","","","","","","","","","","","","","key","j","16.684342592592454","960","536","j","true","img/T_ambi40.png","常人","image_first",""
"","","","","","html-keyboard-response","366","680878","0.0-13.0-0.0-1.0-0.1-1.102","null","<span style='color:GreenYellow; font-size: 70px;'>正确! </span>","null","","","","","","","","","","","","","","","","","","","","","","","feedback_test"
"","","","","","psychophysics","367","682795","0.0-13.0-0.0-1.0-0.1-0.103","765","","j","","","","","","","","","","","","","key","j","16.683911504424838","960","536","j","true","img/T_ambi40.png","好人","image_first",""
"","","","","","html-keyboard-response","368","683113","0.0-13.0-0.0-1.0-0.1-1.103","null","<span style='color:GreenYellow; font-size: 70px;'>正确! </span>","null","","","","","","","","","","","","","","","","","","","","","","","feedback_test"
"","","","","","psychophysics","369","684985","0.0-13.0-0.0-1.0-0.1-0.104","720","","f","","","","","","","","","","","","","key","f","16.68759459459437","960","536","f","true","img/T_ambi40.png","坏人","image_first",""
"","","","","","html-keyboard-response","370","685294","0.0-13.0-0.0-1.0-0.1-1.104","null","<span style='color:GreenYellow; font-size: 70px;'>正确! </span>","null","","","","","","","","","","","","","","","","","","","","","","","feedback_test"
"","","","","","psychophysics","371","687215","0.0-13.0-0.0-1.0-0.1-0.105","769","","j","","","","","","","","","","","","","key","j","16.68519298245583","960","536","j","true","img/C_ambi40.png","坏人","image_first",""
"","","","","","html-keyboard-response","372","687538","0.0-13.0-0.0-1.0-0.1-1.105","null","<span style='color:GreenYellow; font-size: 70px;'>正确! </span>","null","","","","","","","","","","","","","","","","","","","","","","","feedback_test"
"","","","","","psychophysics","373","689507","0.0-13.0-0.0-1.0-0.1-0.106","816","","f","","","","","","","","","","","","","key","f","16.685239316238903","960","536","f","true","img/T_ambi40.png","坏人","image_first",""
"","","","","","html-keyboard-response","374","689819","0.0-13.0-0.0-1.0-0.1-1.106","null","<span style='color:GreenYellow; font-size: 70px;'>正确! </span>","null","","","","","","","","","","","","","","","","","","","","","","","feedback_test"
"","","","","","psychophysics","375","691546","0.0-13.0-0.0-1.0-0.1-0.107","574","","j","","","","","","","","","","","","","key","j","16.685941176470735","960","536","f","false","img/S_ambi40.png","好人","image_first",""
"","","","","","html-keyboard-response","376","691863","0.0-13.0-0.0-1.0-0.1-1.107","null","<span style='color:red; font-size: 70px;'>错误! </span>","null","","","","","","","","","","","","","","","","","","","","","","","feedback_test"
"","","","","","psychophysics","377","693714","0.0-13.0-0.0-1.0-0.1-0.108","694","","f","","","","","","","","","","","","","key","f","16.68565454545473","960","536","f","true","img/C_ambi40.png","常人","image_first",""
"","","","","","html-keyboard-response","378","694033","0.0-13.0-0.0-1.0-0.1-1.108","null","<span style='color:GreenYellow; font-size: 70px;'>正确! </span>","null","","","","","","","","","","","","","","","","","","","","","","","feedback_test"
"","","","","","psychophysics","379","695819","0.0-13.0-0.0-1.0-0.1-0.109","630","","j","","","","","","","","","","","","","key","j","16.68554716981082","960","536","j","true","img/T_ambi40.png","好人","image_first",""
"","","","","","html-keyboard-response","380","696131","0.0-13.0-0.0-1.0-0.1-1.109","null","<span style='color:GreenYellow; font-size: 70px;'>正确! </span>","null","","","","","","","","","","","","","","","","","","","","","","","feedback_test"
"","","","","","psychophysics","381","697904","0.0-13.0-0.0-1.0-0.1-0.110","620","","j","","","","","","","","","","","","","key","j","16.685800000000746","960","536","j","true","img/C_ambi40.png","坏人","image_first",""
"","","","","","html-keyboard-response","382","698216","0.0-13.0-0.0-1.0-0.1-1.110","null","<span style='color:GreenYellow; font-size: 70px;'>正确! </span>","null","","","","","","","","","","","","","","","","","","","","","","","feedback_test"
"","","","","","psychophysics","383","700611","0.0-13.0-0.0-1.0-0.1-0.111","1238","","j","","","","","","","","","","","","","key","j","16.685373239436444","960","536","j","true","img/C_ambi40.png","好人","image_first",""
"","","","","","html-keyboard-response","384","700926","0.0-13.0-0.0-1.0-0.1-1.111","null","<span style='color:GreenYellow; font-size: 70px;'>正确! </span>","null","","","","","","","","","","","","","","","","","","","","","","","feedback_test"
"","","","","","psychophysics","385","702874","0.0-13.0-0.0-1.0-0.1-0.112","795","","f","","","","","","","","","","","","","key","f","16.575269565217035","960","536","f","true","img/S_ambi40.png","好人","image_first",""
"","","","","","html-keyboard-response","386","703195","0.0-13.0-0.0-1.0-0.1-1.112","null","<span style='color:GreenYellow; font-size: 70px;'>正确! </span>","null","","","","","","","","","","","","","","","","","","","","","","","feedback_test"
"","","","","","psychophysics","387","704976","0.0-13.0-0.0-1.0-0.1-0.113","629","","j","","","","","","","","","","","","","key","j","16.5672095238087","960","536","j","true","img/S_ambi40.png","坏人","image_first",""
"","","","","","html-keyboard-response","388","705297","0.0-13.0-0.0-1.0-0.1-1.113","null","<span style='color:GreenYellow; font-size: 70px;'>正确! </span>","null","","","","","","","","","","","","","","","","","","","","","","","feedback_test"
"","","","","","psychophysics","389","707208","0.0-13.0-0.0-1.0-0.1-0.114","757","","f","","","","","","","","","","","","","key","f","16.57199115044256","960","536","f","true","img/T_ambi40.png","坏人","image_first",""
"","","","","","html-keyboard-response","390","707522","0.0-13.0-0.0-1.0-0.1-1.114","null","<span style='color:GreenYellow; font-size: 70px;'>正确! </span>","null","","","","","","","","","","","","","","","","","","","","","","","feedback_test"
"","","","","","psychophysics","391","709251","0.0-13.0-0.0-1.0-0.1-0.115","577","","j","","","","","","","","","","","","","key","j","16.685205882353543","960","536","j","true","img/T_ambi40.png","常人","image_first",""
"","","","","","html-keyboard-response","392","709563","0.0-13.0-0.0-1.0-0.1-1.115","null","<span style='color:GreenYellow; font-size: 70px;'>正确! </span>","null","","","","","","","","","","","","","","","","","","","","","","","feedback_test"
"","","","","","psychophysics","393","711347","0.0-13.0-0.0-1.0-0.1-0.116","630","","f","","","","","","","","","","","","","key","f","16.68514150943396","960","536","f","true","img/C_ambi40.png","常人","image_first",""
"","","","","","html-keyboard-response","394","711658","0.0-13.0-0.0-1.0-0.1-1.116","null","<span style='color:GreenYellow; font-size: 70px;'>正确! </span>","null","","","","","","","","","","","","","","","","","","","","","","","feedback_test"
"","","","","","psychophysics","395","713645","0.0-13.0-0.0-1.0-0.1-0.117","832","","j","","","","","","","","","","","","","key","j","16.683401709401576","960","536","j","true","img/S_ambi40.png","常人","image_first",""
"","","","","","html-keyboard-response","396","713953","0.0-13.0-0.0-1.0-0.1-1.117","null","<span style='color:GreenYellow; font-size: 70px;'>正确! </span>","null","","","","","","","","","","","","","","","","","","","","","","","feedback_test"
"","","","","","psychophysics","397","715920","0.0-13.0-0.0-1.0-0.1-0.118","812","","f","","","","","","","","","","","","","key","f","16.685307692307543","960","536","f","true","img/T_ambi40.png","坏人","image_first",""
"","","","","","html-keyboard-response","398","716233","0.0-13.0-0.0-1.0-0.1-1.118","null","<span style='color:GreenYellow; font-size: 70px;'>正确! </span>","null","","","","","","","","","","","","","","","","","","","","","","","feedback_test"
"","","","","","psychophysics","399","718187","0.0-13.0-0.0-1.0-0.1-0.119","802","","j","","","","","","","","","","","","","key","j","16.68468103448234","960","536","f","false","img/S_ambi40.png","好人","image_first",""
"","","","","","html-keyboard-response","400","718499","0.0-13.0-0.0-1.0-0.1-1.119","null","<span style='color:red; font-size: 70px;'>错误! </span>","null","","","","","","","","","","","","","","","","","","","","","","","feedback_test"
"","","","","","html-keyboard-response","401","723649","0.0-13.0-0.0-1.0-1.1","5146","<style>.context{color:white; font-size: 35px; line-height:40px}</style>                              <div><p class='context'>您正确回答了87% 的试次。</p><p class='context'>您的平均反应时为749毫秒。</p><p class='context'>请按任意键进入休息</p></div>"," ","","","","","","","","","","","","","","","","","","","","","","",""
"","","","","","html-button-response","402","793697","0.0-13.0-0.0-1.0-2.1","70039","
                      <p>您当前还剩余2组实验</p>
                      <p>现在是休息时间，当您结束休息后，您可以点击 结束休息 按钮 继续</p>
                      <p>建议休息时间还剩余<span id=""iii"">60</span>秒</p>","0","","","","","","","","","","","","","","","","","","","","","","",""
"","","","","","psychophysics","403","795648","0.0-13.0-0.0-1.0-0.2-0.120","796","","f","","","","","","","","","","","","","key","f","16.684353448275942","960","536","f","true","img/C_ambi40.png","常人","image_first",""
"","","","","","html-keyboard-response","404","795951","0.0-13.0-0.0-1.0-0.2-1.120","null","<span style='color:GreenYellow; font-size: 70px;'>正确! </span>","null","","","","","","","","","","","","","","","","","","","","","","","feedback_test"
"","","","","","psychophysics","405","797745","0.0-13.0-0.0-1.0-0.2-0.121","643","","j","","","","","","","","","","","","","key","j","16.685726415094663","960","536","j","true","img/T_ambi40.png","好人","image_first",""
"","","","","","html-keyboard-response","406","798060","0.0-13.0-0.0-1.0-0.2-1.121","null","<span style='color:GreenYellow; font-size: 70px;'>正确! </span>","null","","","","","","","","","","","","","","","","","","","","","","","feedback_test"
"","","","","","psychophysics","407","800247","0.0-13.0-0.0-1.0-0.2-0.122","1033","","j","","","","","","","","","","","","","key","j","16.68519230769195","960","536","j","true","img/C_ambi40.png","坏人","image_first",""
"","","","","","html-keyboard-response","408","800567","0.0-13.0-0.0-1.0-0.2-1.122","null","<span style='color:GreenYellow; font-size: 70px;'>正确! </span>","null","","","","","","","","","","","","","","","","","","","","","","","feedback_test"
"","","","","","psychophysics","409","802413","0.0-13.0-0.0-1.0-0.2-0.123","690","","f","","","","","","","","","","","","","key","f","16.686618181817572","960","536","f","true","img/T_ambi40.png","坏人","image_first",""
"","","","","","html-keyboard-response","410","802718","0.0-13.0-0.0-1.0-0.2-1.123","null","<span style='color:GreenYellow; font-size: 70px;'>正确! </span>","null","","","","","","","","","","","","","","","","","","","","","","","feedback_test"
"","","","","","psychophysics","411","804534","0.0-13.0-0.0-1.0-0.2-0.124","659","","f","","","","","","","","","","","","","key","f","16.685490740740164","960","536","f","true","img/C_ambi40.png","常人","image_first",""
"","","","","","html-keyboard-response","412","804855","0.0-13.0-0.0-1.0-0.2-1.124","null","<span style='color:GreenYellow; font-size: 70px;'>正确! </span>","null","","","","","","","","","","","","","","","","","","","","","","","feedback_test"
"","","","","","psychophysics","413","806587","0.0-13.0-0.0-1.0-0.2-0.125","576","","j","","","","","","","","","","","","","key","j","16.685485436893025","960","536","j","true","img/S_ambi40.png","坏人","image_first",""
"","","","","","html-keyboard-response","414","806906","0.0-13.0-0.0-1.0-0.2-1.125","null","<span style='color:GreenYellow; font-size: 70px;'>正确! </span>","null","","","","","","","","","","","","","","","","","","","","","","","feedback_test"
"","","","","","psychophysics","415","808536","0.0-13.0-0.0-1.0-0.2-0.126","476","","f","","","","","","","","","","","","","key","f","16.685298969072637","960","536","j","false","img/C_ambi40.png","好人","image_first",""
"","","","","","html-keyboard-response","416","808846","0.0-13.0-0.0-1.0-0.2-1.126","null","<span style='color:red; font-size: 70px;'>错误! </span>","null","","","","","","","","","","","","","","","","","","","","","","","feedback_test"
"","","","","","psychophysics","417","810774","0.0-13.0-0.0-1.0-0.2-0.127","776","","j","","","","","","","","","","","","","key","j","16.686008771930478","960","536","j","true","img/T_ambi40.png","常人","image_first",""
"","","","","","html-keyboard-response","418","811094","0.0-13.0-0.0-1.0-0.2-1.127","null","<span style='color:GreenYellow; font-size: 70px;'>正确! </span>","null","","","","","","","","","","","","","","","","","","","","","","","feedback_test"
"","","","","","psychophysics","419","813094","0.0-13.0-0.0-1.0-0.2-0.128","843","","j","","","","","","","","","","","","","key","j","16.686680672269613","960","536","j","true","img/S_ambi40.png","常人","image_first",""
"","","","","","html-keyboard-response","420","813410","0.0-13.0-0.0-1.0-0.2-1.128","null","<span style='color:GreenYellow; font-size: 70px;'>正确! </span>","null","","","","","","","","","","","","","","","","","","","","","","","feedback_test"
"","","","","","psychophysics","421","815265","0.0-13.0-0.0-1.0-0.2-0.129","701","","f","","","","","","","","","","","","","key","f","16.685427272727246","960","536","f","true","img/S_ambi40.png","好人","image_first",""
"","","","","","html-keyboard-response","422","815579","0.0-13.0-0.0-1.0-0.2-1.129","null","<span style='color:GreenYellow; font-size: 70px;'>正确! </span>","null","","","","","","","","","","","","","","","","","","","","","","","feedback_test"
"","","","","","psychophysics","423","817382","0.0-13.0-0.0-1.0-0.2-0.130","648","","f","","","","","","","","","","","","","key","f","16.68534579439302","960","536","f","true","img/T_ambi40.png","坏人","image_first",""
"","","","","","html-keyboard-response","424","817706","0.0-13.0-0.0-1.0-0.2-1.130","null","<span style='color:GreenYellow; font-size: 70px;'>正确! </span>","null","","","","","","","","","","","","","","","","","","","","","","","feedback_test"
"","","","","","psychophysics","425","819447","0.0-13.0-0.0-1.0-0.2-0.131","588","","f","","","","","","","","","","","","","key","f","16.68479611650471","960","536","f","true","img/S_ambi40.png","好人","image_first",""
"","","","","","html-keyboard-response","426","819766","0.0-13.0-0.0-1.0-0.2-1.131","null","<span style='color:GreenYellow; font-size: 70px;'>正确! </span>","null","","","","","","","","","","","","","","","","","","","","","","","feedback_test"
"","","","","","psychophysics","427","821542","0.0-13.0-0.0-1.0-0.2-0.132","615","","j","","","","","","","","","","","","","key","j","16.685304761905268","960","536","f","false","img/T_ambi40.png","坏人","image_first",""
"","","","","","html-keyboard-response","428","821856","0.0-13.0-0.0-1.0-0.2-1.132","null","<span style='color:red; font-size: 70px;'>错误! </span>","null","","","","","","","","","","","","","","","","","","","","","","","feedback_test"
"","","","","","psychophysics","429","823511","0.0-13.0-0.0-1.0-0.2-0.133","498","","f","","","","","","","","","","","","","key","f","16.685071428571305","960","536","f","true","img/T_ambi40.png","坏人","image_first",""
"","","","","","html-keyboard-response","430","823833","0.0-13.0-0.0-1.0-0.2-1.133","null","<span style='color:GreenYellow; font-size: 70px;'>正确! </span>","null","","","","","","","","","","","","","","","","","","","","","","","feedback_test"
"","","","","","psychophysics","431","825549","0.0-13.0-0.0-1.0-0.2-0.134","565","","j","","","","","","","","","","","","","key","j","16.683584158416","960","536","j","true","img/T_ambi40.png","常人","image_first",""
"","","","","","html-keyboard-response","432","825860","0.0-13.0-0.0-1.0-0.2-1.134","null","<span style='color:GreenYellow; font-size: 70px;'>正确! </span>","null","","","","","","","","","","","","","","","","","","","","","","","feedback_test"
