"success","timeout","failed_images","failed_audio","failed_video","trial_type","trial_index","time_elapsed","internal_node_id","rt","stimulus","response","value","item_width_mm","item_height_mm","item_width_px","px2mm","view_dist_mm","item_width_deg","px2deg","scale_factor","win_width_deg","win_height_deg","view_history","response_type","key_press","avg_frame_time","center_x","center_y","correct_response","correct","Image","word","condition","screen_id"
"true","false","[]","[]","[]","preload","0","3387","0.0-0.0","","","","","","","","","","","","","","","","","","","","","","","","","",""
"","","","","","html-keyboard-response","1","8072","0.0-1.0","4684","
     <p>您好，欢迎参加本次实验。</p>
     <p>为充分保障您的权利，请确保您已经知晓并同意《参与实验同意书》以及《数据公开知情同意书》。</p>
     <p>如果您未见过上述内容，请咨询实验员。</p>
     <p>如果您选择继续实验，则表示您已经清楚两份知情同意书的内容并同意。</p>
     <p> <div style = ""color: green""><按任意键至下页></div> </p>
     ","arrowleft","","","","","","","","","","","","","","","","","","","","","","",""
"","","","","","html-keyboard-response","2","10012","0.0-2.0","1940","
     <p>本实验首先需要您填写一些基本个人信息。</p>
     <p> <div style = ""color: green""><按任意键至下页></div></p>
     ","arrowright","","","","","","","","","","","","","","","","","","","","","","",""
"","","","","","call-function","3","10013","0.0-3.0-0.0","","","","","","","","","","","","","","","","","","","","","","","","","",""
"","","","","","survey-html-form","4","14798","0.0-3.0-1.0","4783","","{""Q0"":""7""}","","","","","","","","","","","","","","","","","","","","","","",""
"","","","","","html-button-response","5","15782","0.0-3.0-2.0","983","<p style = 'color : white'>您的性别</p>","0","","","","","","","","","","","","","","","","","","","","","","",""
"","","","","","survey-html-form","6","18830","0.0-3.0-3.0","3047","","{""Q0"":""2001""}","","","","","","","","","","","","","","","","","","","","","","",""
"","","","","","survey-html-form","7","21686","0.0-3.0-4.0","2855","","{""Q0"":""5""}","","","","","","","","","","","","","","","","","","","","","","",""
"","","","","","virtual-chinrest","8","71934","0.0-4.0","50247","","","","85.6","53.98","543.396191374954","6.353773175191519","449.93","10.86792382749908","50","0.7066667122350744","27.24","15.08","","","","","","","","","","","",""
"true","","","","","fullscreen","9","74738","0.0-5.0","","","","","","","","","","","","","","","","","","","","","","","","","",""
"","","","","","instructions","10","108798","0.0-6.0","34058","","","","","","","","","","","","","","[{""page_index"":0,""viewing_time"":4962},{""page_index"":1,""viewing_time"":14769},{""page_index"":2,""viewing_time"":9319},{""page_index"":3,""viewing_time"":5008}]","","","","","","","","","","",""
"","","","","","psychophysics","11","110663","0.0-7.0-0.0-0.0","711","","j","","","","","","","","","","","","","key","j","8.328436936936939","768","428","j","true","img/T_ambi40.png","常人","prac_image_first",""
"","","","","","html-keyboard-response","12","110983","0.0-7.0-0.0-1.0","null","<span style='color:GreenYellow; font-size: 70px;'>正确! </span>","null","","","","","","","","","","","","","","","","","","","","","","","feedback_test"
"","","","","","psychophysics","13","112603","0.0-7.0-0.0-0.1","469","","j","","","","","","","","","","","","","key","j","8.327015463917483","768","428","j","true","img/T_ambi40.png","常人","prac_image_first",""
"","","","","","html-keyboard-response","14","112909","0.0-7.0-0.0-1.1","null","<span style='color:GreenYellow; font-size: 70px;'>正确! </span>","null","","","","","","","","","","","","","","","","","","","","","","","feedback_test"
"","","","","","psychophysics","15","114712","0.0-7.0-0.0-0.2","648","","f","","","","","","","","","","","","","key","f","8.326613953488346","768","428","f","true","img/S_ambi40.png","常人","prac_image_first",""
"","","","","","html-keyboard-response","16","115020","0.0-7.0-0.0-1.2","null","<span style='color:GreenYellow; font-size: 70px;'>正确! </span>","null","","","","","","","","","","","","","","","","","","","","","","","feedback_test"
"","","","","","psychophysics","17","116831","0.0-7.0-0.0-0.3","658","","f","","","","","","","","","","","","","key","f","8.326926267281102","768","428","f","true","img/C_ambi40.png","坏人","prac_image_first",""
"","","","","","html-keyboard-response","18","117142","0.0-7.0-0.0-1.3","null","<span style='color:GreenYellow; font-size: 70px;'>正确! </span>","null","","","","","","","","","","","","","","","","","","","","","","","feedback_test"
"","","","","","psychophysics","19","118982","0.0-7.0-0.0-0.4","686","","j","","","","","","","","","","","","","key","j","8.327527272727258","768","428","j","true","img/S_ambi40.png","坏人","prac_image_first",""
"","","","","","html-keyboard-response","20","119292","0.0-7.0-0.0-1.4","null","<span style='color:GreenYellow; font-size: 70px;'>正确! </span>","null","","","","","","","","","","","","","","","","","","","","","","","feedback_test"
"","","","","","psychophysics","21","120946","0.0-7.0-0.0-0.5","501","","j","","","","","","","","","","","","","key","j","8.328429292929341","768","428","j","true","img/C_ambi40.png","好人","prac_image_first",""
"","","","","","html-keyboard-response","22","121262","0.0-7.0-0.0-1.5","null","<span style='color:GreenYellow; font-size: 70px;'>正确! </span>","null","","","","","","","","","","","","","","","","","","","","","","","feedback_test"
"","","","","","psychophysics","23","122841","0.0-7.0-0.0-0.6","425","","j","","","","","","","","","","","","","key","j","8.326643617021274","768","428","j","true","img/C_ambi40.png","好人","prac_image_first",""
"","","","","","html-keyboard-response","24","123158","0.0-7.0-0.0-1.6","null","<span style='color:GreenYellow; font-size: 70px;'>正确! </span>","null","","","","","","","","","","","","","","","","","","","","","","","feedback_test"
"","","","","","psychophysics","25","124871","0.0-7.0-0.0-0.7","559","","f","","","","","","","","","","","","","key","f","8.328436274509823","768","428","f","true","img/T_ambi40.png","好人","prac_image_first",""
"","","","","","html-keyboard-response","26","125177","0.0-7.0-0.0-1.7","null","<span style='color:GreenYellow; font-size: 70px;'>正确! </span>","null","","","","","","","","","","","","","","","","","","","","","","","feedback_test"
"","","","","","psychophysics","27","127274","0.0-7.0-0.0-0.8","944","","j","","","","","","","","","","","","","key","j","8.327836653386498","768","428","j","true","img/S_ambi40.png","坏人","prac_image_first",""
"","","","","","html-keyboard-response","28","127588","0.0-7.0-0.0-1.8","null","<span style='color:GreenYellow; font-size: 70px;'>正确! </span>","null","","","","","","","","","","","","","","","","","","","","","","","feedback_test"
"","","","","","psychophysics","29","129299","0.0-7.0-0.0-0.9","555","","f","","","","","","","","","","","","","key","f","8.328078431372477","768","428","f","true","img/C_ambi40.png","常人","prac_image_first",""
"","","","","","html-keyboard-response","30","129609","0.0-7.0-0.0-1.9","null","<span style='color:GreenYellow; font-size: 70px;'>正确! </span>","null","","","","","","","","","","","","","","","","","","","","","","","feedback_test"
"","","","","","psychophysics","31","131662","0.0-7.0-0.0-0.10","901","","j","","","","","","","","","","","","","key","j","8.30289387755103","768","428","f","false","img/T_ambi40.png","坏人","prac_image_first",""
"","","","","","html-keyboard-response","32","131968","0.0-7.0-0.0-1.10","null","<span style='color:red; font-size: 70px;'>错误! </span>","null","","","","","","","","","","","","","","","","","","","","","","","feedback_test"
"","","","","","psychophysics","33","133922","0.0-7.0-0.0-0.11","801","","f","","","","","","","","","","","","","key","f","8.328562231759626","768","428","f","true","img/S_ambi40.png","好人","prac_image_first",""
"","","","","","html-keyboard-response","34","134227","0.0-7.0-0.0-1.11","null","<span style='color:GreenYellow; font-size: 70px;'>正确! </span>","null","","","","","","","","","","","","","","","","","","","","","","","feedback_test"
"","","","","","psychophysics","35","136169","0.0-7.0-0.0-0.12","786","","j","","","","","","","","","","","","","key","j","8.32815086206894","768","428","j","true","img/C_ambi40.png","好人","prac_image_first",""
"","","","","","html-keyboard-response","36","136478","0.0-7.0-0.0-1.12","null","<span style='color:GreenYellow; font-size: 70px;'>正确! </span>","null","","","","","","","","","","","","","","","","","","","","","","","feedback_test"
"","","","","","psychophysics","37","138141","0.0-7.0-0.0-0.13","510","","j","","","","","","","","","","","","","key","j","8.369212121212229","768","428","j","true","img/S_ambi40.png","坏人","prac_image_first",""
"","","","","","html-keyboard-response","38","138451","0.0-7.0-0.0-1.13","null","<span style='color:GreenYellow; font-size: 70px;'>正确! </span>","null","","","","","","","","","","","","","","","","","","","","","","","feedback_test"
"","","","","","psychophysics","39","140183","0.0-7.0-0.0-0.14","579","","f","","","","","","","","","","","","","key","f","8.327285024154692","768","428","f","true","img/T_ambi40.png","好人","prac_image_first",""
"","","","","","html-keyboard-response","40","140489","0.0-7.0-0.0-1.14","null","<span style='color:GreenYellow; font-size: 70px;'>正确! </span>","null","","","","","","","","","","","","","","","","","","","","","","","feedback_test"
"","","","","","psychophysics","41","142604","0.0-7.0-0.0-0.15","959","","f","","","","","","","","","","","","","key","f","8.327071146244986","768","428","f","true","img/T_ambi40.png","坏人","prac_image_first",""
"","","","","","html-keyboard-response","42","142924","0.0-7.0-0.0-1.15","null","<span style='color:GreenYellow; font-size: 70px;'>正确! </span>","null","","","","","","","","","","","","","","","","","","","","","","","feedback_test"
"","","","","","psychophysics","43","144757","0.0-7.0-0.0-0.16","681","","j","","","","","","","","","","","","","key","j","8.32815981735159","768","428","j","true","img/T_ambi40.png","常人","prac_image_first",""
"","","","","","html-keyboard-response","44","145076","0.0-7.0-0.0-1.16","null","<span style='color:GreenYellow; font-size: 70px;'>正确! </span>","null","","","","","","","","","","","","","","","","","","","","","","","feedback_test"
"","","","","","psychophysics","45","146913","0.0-7.0-0.0-0.17","681","","f","","","","","","","","","","","","","key","f","8.327420091324276","768","428","f","true","img/S_ambi40.png","好人","prac_image_first",""
"","","","","","html-keyboard-response","46","147227","0.0-7.0-0.0-1.17","null","<span style='color:GreenYellow; font-size: 70px;'>正确! </span>","null","","","","","","","","","","","","","","","","","","","","","","","feedback_test"
"","","","","","psychophysics","47","149061","0.0-7.0-0.0-0.18","680","","f","","","","","","","","","","","","","key","f","8.32718264840192","768","428","f","true","img/S_ambi40.png","常人","prac_image_first",""
"","","","","","html-keyboard-response","48","149368","0.0-7.0-0.0-1.18","null","<span style='color:GreenYellow; font-size: 70px;'>正确! </span>","null","","","","","","","","","","","","","","","","","","","","","","","feedback_test"
"","","","","","psychophysics","49","151056","0.0-7.0-0.0-0.19","536","","f","","","","","","","","","","","","","key","f","8.326742574257464","768","428","f","true","img/C_ambi40.png","坏人","prac_image_first",""
"","","","","","html-keyboard-response","50","151373","0.0-7.0-0.0-1.19","null","<span style='color:GreenYellow; font-size: 70px;'>正确! </span>","null","","","","","","","","","","","","","","","","","","","","","","","feedback_test"
"","","","","","psychophysics","51","153021","0.0-7.0-0.0-0.20","493","","f","","","","","","","","","","","","","key","f","8.326705583756368","768","428","j","false","img/T_ambi40.png","常人","prac_image_first",""
"","","","","","html-keyboard-response","52","153336","0.0-7.0-0.0-1.20","null","<span style='color:red; font-size: 70px;'>错误! </span>","null","","","","","","","","","","","","","","","","","","","","","","","feedback_test"
"","","","","","psychophysics","53","155140","0.0-7.0-0.0-0.21","652","","f","","","","","","","","","","","","","key","f","8.326879069767486","768","428","f","true","img/C_ambi40.png","常人","prac_image_first",""
"","","","","","html-keyboard-response","54","155453","0.0-7.0-0.0-1.21","null","<span style='color:GreenYellow; font-size: 70px;'>正确! </span>","null","","","","","","","","","","","","","","","","","","","","","","","feedback_test"
"","","","","","psychophysics","55","157161","0.0-7.0-0.0-0.22","553","","j","","","","","","","","","","","","","key","j","8.326955882353051","768","428","j","true","img/S_ambi40.png","坏人","prac_image_first",""
"","","","","","html-keyboard-response","56","157478","0.0-7.0-0.0-1.22","null","<span style='color:GreenYellow; font-size: 70px;'>正确! </span>","null","","","","","","","","","","","","","","","","","","","","","","","feedback_test"
"","","","","","psychophysics","57","159025","0.0-7.0-0.0-0.23","394","","j","","","","","","","","","","","","","key","j","8.326902702702776","768","428","j","true","img/C_ambi40.png","好人","prac_image_first",""
"","","","","","html-keyboard-response","58","159335","0.0-7.0-0.0-1.23","null","<span style='color:GreenYellow; font-size: 70px;'>正确! </span>","null","","","","","","","","","","","","","","","","","","","","","","","feedback_test"
"","","","","","html-keyboard-response","59","162665","0.0-8.0","3326","<style>.context{color:white; font-size: 35px; line-height:40px}</style>                              <div><p class='context'>您正确回答了92% 的试次。</p><p class='context'>您的平均反应时为635毫秒。</p><p class='context'>恭喜您完成这一阶段的练习。按任意键进入<span style='color: yellow;'>先文字后图形条件</span>的练习。</p></div>"," ","","","","","","","","","","","","","","","","","","","","","","",""
"","","","","","psychophysics","60","164345","0.0-9.0-0.0-0.0","526","","j","","","","","","","","","","","","","key","j","8.326900497512558","768","428","j","true","img/T_ambi40.png","常人","prac_word_first",""
"","","","","","html-keyboard-response","61","164656","0.0-9.0-0.0-1.0","null","<span style='color:GreenYellow; font-size: 70px;'>正确! </span>","null","","","","","","","","","","","","","","","","","","","","","","","feedback_test"
"","","","","","psychophysics","62","166340","0.0-9.0-0.0-0.1","532","","f","","","","","","","","","","","","","key","f","8.327119402985021","768","428","f","true","img/T_ambi40.png","坏人","prac_word_first",""
"","","","","","html-keyboard-response","63","166651","0.0-9.0-0.0-1.1","null","<span style='color:GreenYellow; font-size: 70px;'>正确! </span>","null","","","","","","","","","","","","","","","","","","","","","","","feedback_test"
"","","","","","psychophysics","64","168410","0.0-9.0-0.0-0.2","603","","f","","","","","","","","","","","","","key","f","8.326457142857059","768","428","f","true","img/S_ambi40.png","好人","prac_word_first",""
"","","","","","html-keyboard-response","65","168725","0.0-9.0-0.0-1.2","null","<span style='color:GreenYellow; font-size: 70px;'>正确! </span>","null","","","","","","","","","","","","","","","","","","","","","","","feedback_test"
"","","","","","psychophysics","66","170504","0.0-9.0-0.0-0.3","623","","f","","","","","","","","","","","","","key","f","8.326603773584862","768","428","f","true","img/S_ambi40.png","常人","prac_word_first",""
"","","","","","html-keyboard-response","67","170822","0.0-9.0-0.0-1.3","null","<span style='color:GreenYellow; font-size: 70px;'>正确! </span>","null","","","","","","","","","","","","","","","","","","","","","","","feedback_test"
"","","","","","psychophysics","68","172556","0.0-9.0-0.0-0.4","580","","j","","","","","","","","","","","","","key","j","8.327222222222154","768","428","j","true","img/C_ambi40.png","好人","prac_word_first",""
"","","","","","html-keyboard-response","69","172862","0.0-9.0-0.0-1.4","null","<span style='color:GreenYellow; font-size: 70px;'>正确! </span>","null","","","","","","","","","","","","","","","","","","","","","","","feedback_test"
"","","","","","psychophysics","70","174440","0.0-9.0-0.0-0.5","424","","j","","","","","","","","","","","","","key","j","8.326085106383","768","428","j","true","img/C_ambi40.png","好人","prac_word_first",""
"","","","","","html-keyboard-response","71","174759","0.0-9.0-0.0-1.5","null","<span style='color:GreenYellow; font-size: 70px;'>正确! </span>","null","","","","","","","","","","","","","","","","","","","","","","","feedback_test"
"","","","","","psychophysics","72","176454","0.0-9.0-0.0-0.6","543","","f","","","","","","","","","","","","","key","f","8.297861386138495","768","428","f","true","img/C_ambi40.png","坏人","prac_word_first",""
"","","","","","html-keyboard-response","73","176767","0.0-9.0-0.0-1.6","null","<span style='color:GreenYellow; font-size: 70px;'>正确! </span>","null","","","","","","","","","","","","","","","","","","","","","","","feedback_test"
"","","","","","psychophysics","74","178383","0.0-9.0-0.0-0.7","463","","j","","","","","","","","","","","","","key","j","8.327056994818669","768","428","j","true","img/T_ambi40.png","常人","prac_word_first",""
"","","","","","html-keyboard-response","75","178696","0.0-9.0-0.0-1.7","null","<span style='color:GreenYellow; font-size: 70px;'>正确! </span>","null","","","","","","","","","","","","","","","","","","","","","","","feedback_test"
"","","","","","psychophysics","76","180629","0.0-9.0-0.0-0.8","782","","j","","","","","","","","","","","","","key","j","8.32722510822514","768","428","j","true","img/S_ambi40.png","坏人","prac_word_first",""
"","","","","","html-keyboard-response","77","180938","0.0-9.0-0.0-1.8","null","<span style='color:GreenYellow; font-size: 70px;'>正确! </span>","null","","","","","","","","","","","","","","","","","","","","","","","feedback_test"
"","","","","","psychophysics","78","182705","0.0-9.0-0.0-0.9","617","","j","","","","","","","","","","","","","key","j","8.325014150943355","768","428","j","true","img/S_ambi40.png","坏人","prac_word_first",""
"","","","","","html-keyboard-response","79","183018","0.0-9.0-0.0-1.9","null","<span style='color:GreenYellow; font-size: 70px;'>正确! </span>","null","","","","","","","","","","","","","","","","","","","","","","","feedback_test"
"","","","","","psychophysics","80","184730","0.0-9.0-0.0-0.10","561","","j","","","","","","","","","","","","","key","j","8.304240196078442","768","428","f","false","img/T_ambi40.png","好人","prac_word_first",""
"","","","","","html-keyboard-response","81","185036","0.0-9.0-0.0-1.10","null","<span style='color:red; font-size: 70px;'>错误! </span>","null","","","","","","","","","","","","","","","","","","","","","","","feedback_test"
"","","","","","psychophysics","82","186849","0.0-9.0-0.0-0.11","657","","f","","","","","","","","","","","","","key","f","8.32722685185177","768","428","f","true","img/C_ambi40.png","常人","prac_word_first",""
"","","","","","html-keyboard-response","83","187156","0.0-9.0-0.0-1.11","null","<span style='color:GreenYellow; font-size: 70px;'>正确! </span>","null","","","","","","","","","","","","","","","","","","","","","","","feedback_test"
"","","","","","psychophysics","84","189024","0.0-9.0-0.0-0.12","716","","j","","","","","","","","","","","","","key","j","8.32760538116597","768","428","j","true","img/S_ambi40.png","坏人","prac_word_first",""
"","","","","","html-keyboard-response","85","189334","0.0-9.0-0.0-1.12","null","<span style='color:GreenYellow; font-size: 70px;'>正确! </span>","null","","","","","","","","","","","","","","","","","","","","","","","feedback_test"
"","","","","","psychophysics","86","191014","0.0-9.0-0.0-0.13","525","","j","","","","","","","","","","","","","key","j","8.327300000000104","768","428","j","true","img/C_ambi40.png","好人","prac_word_first",""
"","","","","","html-keyboard-response","87","191327","0.0-9.0-0.0-1.13","null","<span style='color:GreenYellow; font-size: 70px;'>正确! </span>","null","","","","","","","","","","","","","","","","","","","","","","","feedback_test"
"","","","","","psychophysics","88","193044","0.0-9.0-0.0-0.14","565","","f","","","","","","","","","","","","","key","f","8.327507317073291","768","428","f","true","img/T_ambi40.png","好人","prac_word_first",""
"","","","","","html-keyboard-response","89","193359","0.0-9.0-0.0-1.14","null","<span style='color:GreenYellow; font-size: 70px;'>正确! </span>","null","","","","","","","","","","","","","","","","","","","","","","","feedback_test"
"","","","","","psychophysics","90","195084","0.0-9.0-0.0-0.15","573","","f","","","","","","","","","","","","","key","f","8.304887804878087","768","428","f","true","img/C_ambi40.png","坏人","prac_word_first",""
"","","","","","html-keyboard-response","91","195392","0.0-9.0-0.0-1.15","null","<span style='color:GreenYellow; font-size: 70px;'>正确! </span>","null","","","","","","","","","","","","","","","","","","","","","","","feedback_test"
"","","","","","psychophysics","92","197045","0.0-9.0-0.0-0.16","501","","j","","","","","","","","","","","","","key","j","8.328507614213127","768","428","j","true","img/T_ambi40.png","常人","prac_word_first",""
"","","","","","html-keyboard-response","93","197364","0.0-9.0-0.0-1.16","null","<span style='color:GreenYellow; font-size: 70px;'>正确! </span>","null","","","","","","","","","","","","","","","","","","","","","","","feedback_test"
"","","","","","psychophysics","94","199128","0.0-9.0-0.0-0.17","612","","j","","","","","","","","","","","","","key","j","8.328815165876799","768","428","j","true","img/C_ambi40.png","好人","prac_word_first",""
"","","","","","html-keyboard-response","95","199437","0.0-9.0-0.0-1.17","null","<span style='color:GreenYellow; font-size: 70px;'>正确! </span>","null","","","","","","","","","","","","","","","","","","","","","","","feedback_test"
"","","","","","psychophysics","96","201104","0.0-9.0-0.0-0.18","515","","f","","","","","","","","","","","","","key","f","8.328336683417122","768","428","f","true","img/S_ambi40.png","常人","prac_word_first",""
"","","","","","html-keyboard-response","97","201413","0.0-9.0-0.0-1.18","null","<span style='color:GreenYellow; font-size: 70px;'>正确! </span>","null","","","","","","","","","","","","","","","","","","","","","","","feedback_test"
"","","","","","psychophysics","98","203353","0.0-9.0-0.0-0.19","785","","j","","","","","","","","","","","","","key","j","8.326757575757576","768","428","j","true","img/S_ambi40.png","坏人","prac_word_first",""
"","","","","","html-keyboard-response","99","203663","0.0-9.0-0.0-1.19","null","<span style='color:GreenYellow; font-size: 70px;'>正确! </span>","null","","","","","","","","","","","","","","","","","","","","","","","feedback_test"
"","","","","","psychophysics","100","205340","0.0-9.0-0.0-0.20","523","","f","","","","","","","","","","","","","key","f","8.327354999999953","768","428","f","true","img/S_ambi40.png","好人","prac_word_first",""
"","","","","","html-keyboard-response","101","205655","0.0-9.0-0.0-1.20","null","<span style='color:GreenYellow; font-size: 70px;'>正确! </span>","null","","","","","","","","","","","","","","","","","","","","","","","feedback_test"
"","","","","","psychophysics","102","207358","0.0-9.0-0.0-0.21","550","","f","","","","","","","","","","","","","key","f","8.326600985221761","768","428","f","true","img/C_ambi40.png","常人","prac_word_first",""
"","","","","","html-keyboard-response","103","207659","0.0-9.0-0.0-1.21","null","<span style='color:GreenYellow; font-size: 70px;'>正确! </span>","null","","","","","","","","","","","","","","","","","","","","","","","feedback_test"
"","","","","","psychophysics","104","209597","0.0-9.0-0.0-0.22","787","","j","","","","","","","","","","","","","key","j","8.326952380952436","768","428","j","true","img/T_ambi40.png","常人","prac_word_first",""
"","","","","","html-keyboard-response","105","209906","0.0-9.0-0.0-1.22","null","<span style='color:GreenYellow; font-size: 70px;'>正确! </span>","null","","","","","","","","","","","","","","","","","","","","","","","feedback_test"
"","","","","","psychophysics","106","211534","0.0-9.0-0.0-0.23","477","","f","","","","","","","","","","","","","key","f","8.328471794871774","768","428","f","true","img/T_ambi40.png","坏人","prac_word_first",""
"","","","","","html-keyboard-response","107","211844","0.0-9.0-0.0-1.23","null","<span style='color:GreenYellow; font-size: 70px;'>正确! </span>","null","","","","","","","","","","","","","","","","","","","","","","","feedback_test"
"","","","","","html-keyboard-response","108","214062","0.0-10.0","2216","<style>.context{color:white; font-size: 35px; line-height:40px}</style>                              <div><p class='context'>您正确回答了96% 的试次。</p><p class='context'>您的平均反应时为586毫秒。</p><p class='context'>恭喜您完成练习。按任意键进入<span style='color: yellow;'>图形和文字同时呈现条件</span>的练习。</p></div>"," ","","","","","","","","","","","","","","","","","","","","","","",""
"","","","","","psychophysics","109","215773","0.0-11.0-0.0-0.0","703","","j","","","","","","","","","","","","","key","j","8.321364532019674","768","428","j","true","img/C_ambi40.png","好人","prac_simultaneous",""
"","","","","","html-keyboard-response","110","216092","0.0-11.0-0.0-1.0","null","<span style='color:GreenYellow; font-size: 70px;'>正确! </span>","null","","","","","","","","","","","","","","","","","","","","","","","feedback_test"
"","","","","","psychophysics","111","217629","0.0-11.0-0.0-0.1","535","","f","","","","","","","","","","","","","key","f","8.33048369565222","768","428","f","true","img/C_ambi40.png","常人","prac_simultaneous",""
"","","","","","html-keyboard-response","112","217941","0.0-11.0-0.0-1.1","null","<span style='color:GreenYellow; font-size: 70px;'>正确! </span>","null","","","","","","","","","","","","","","","","","","","","","","","feedback_test"
"","","","","","psychophysics","113","219719","0.0-11.0-0.0-0.2","776","","j","","","","","","","","","","","","","key","j","8.299372641509454","768","428","j","true","img/T_ambi40.png","常人","prac_simultaneous",""
"","","","","","html-keyboard-response","114","220032","0.0-11.0-0.0-1.2","null","<span style='color:GreenYellow; font-size: 70px;'>正确! </span>","null","","","","","","","","","","","","","","","","","","","","","","","feedback_test"
"","","","","","psychophysics","115","221763","0.0-11.0-0.0-0.3","730","","f","","","","","","","","","","","","","key","f","8.32615458937196","768","428","j","false","img/T_ambi40.png","常人","prac_simultaneous",""
"","","","","","html-keyboard-response","116","222064","0.0-11.0-0.0-1.3","null","<span style='color:red; font-size: 70px;'>错误! </span>","null","","","","","","","","","","","","","","","","","","","","","","","feedback_test"
"","","","","","psychophysics","117","223842","0.0-11.0-0.0-0.4","777","","f","","","","","","","","","","","","","key","f","8.326589622641617","768","428","f","true","img/C_ambi40.png","坏人","prac_simultaneous",""
"","","","","","html-keyboard-response","118","224147","0.0-11.0-0.0-1.4","null","<span style='color:GreenYellow; font-size: 70px;'>正确! </span>","null","","","","","","","","","","","","","","","","","","","","","","","feedback_test"
"","","","","","psychophysics","119","225790","0.0-11.0-0.0-0.5","638","","f","","","","","","","","","","","","","key","f","8.327372448979633","768","428","j","false","img/S_ambi40.png","坏人","prac_simultaneous",""
"","","","","","html-keyboard-response","120","226097","0.0-11.0-0.0-1.5","null","<span style='color:red; font-size: 70px;'>错误! </span>","null","","","","","","","","","","","","","","","","","","","","","","","feedback_test"
"","","","","","psychophysics","121","227604","0.0-11.0-0.0-0.6","501","","j","","","","","","","","","","","","","key","j","8.326788888888808","768","428","j","true","img/C_ambi40.png","好人","prac_simultaneous",""
"","","","","","html-keyboard-response","122","227912","0.0-11.0-0.0-1.6","null","<span style='color:GreenYellow; font-size: 70px;'>正确! </span>","null","","","","","","","","","","","","","","","","","","","","","","","feedback_test"
"","","","","","psychophysics","123","229545","0.0-11.0-0.0-0.7","626","","f","","","","","","","","","","","","","key","f","8.327020512820514","768","428","f","true","img/T_ambi40.png","好人","prac_simultaneous",""
"","","","","","html-keyboard-response","124","229855","0.0-11.0-0.0-1.7","null","<span style='color:GreenYellow; font-size: 70px;'>正确! </span>","null","","","","","","","","","","","","","","","","","","","","","","","feedback_test"
"","","","","","psychophysics","125","231601","0.0-11.0-0.0-0.8","743","","j","","","","","","","","","","","","","key","j","8.328779904306204","768","428","j","true","img/S_ambi40.png","坏人","prac_simultaneous",""
"","","","","","html-keyboard-response","126","231916","0.0-11.0-0.0-1.8","null","<span style='color:GreenYellow; font-size: 70px;'>正确! </span>","null","","","","","","","","","","","","","","","","","","","","","","","feedback_test"
"","","","","","psychophysics","127","233471","0.0-11.0-0.0-0.9","550","","f","","","","","","","","","","","","","key","f","8.325843243243336","768","428","f","true","img/T_ambi40.png","坏人","prac_simultaneous",""
"","","","","","html-keyboard-response","128","233786","0.0-11.0-0.0-1.9","null","<span style='color:GreenYellow; font-size: 70px;'>正确! </span>","null","","","","","","","","","","","","","","","","","","","","","","","feedback_test"
"","","","","","psychophysics","129","235610","0.0-11.0-0.0-0.10","822","","f","","","","","","","","","","","","","key","f","8.305511520737337","768","428","f","true","img/S_ambi40.png","好人","prac_simultaneous",""
"","","","","","html-keyboard-response","130","235913","0.0-11.0-0.0-1.10","null","<span style='color:GreenYellow; font-size: 70px;'>正确! </span>","null","","","","","","","","","","","","","","","","","","","","","","","feedback_test"
"","","","","","psychophysics","131","237637","0.0-11.0-0.0-0.11","717","","f","","","","","","","","","","","","","key","f","8.327082524271919","768","428","f","true","img/S_ambi40.png","常人","prac_simultaneous",""
"","","","","","html-keyboard-response","132","237947","0.0-11.0-0.0-1.11","null","<span style='color:GreenYellow; font-size: 70px;'>正确! </span>","null","","","","","","","","","","","","","","","","","","","","","","","feedback_test"
"","","","","","psychophysics","133","239641","0.0-11.0-0.0-0.12","689","","f","","","","","","","","","","","","","key","f","8.326693069306923","768","428","f","true","img/C_ambi40.png","坏人","prac_simultaneous",""
"","","","","","html-keyboard-response","134","239950","0.0-11.0-0.0-1.12","null","<span style='color:GreenYellow; font-size: 70px;'>正确! </span>","null","","","","","","","","","","","","","","","","","","","","","","","feedback_test"
"","","","","","psychophysics","135","241553","0.0-11.0-0.0-0.13","593","","f","","","","","","","","","","","","","key","f","8.32734031413611","768","428","f","true","img/S_ambi40.png","常人","prac_simultaneous",""
"","","","","","html-keyboard-response","136","241861","0.0-11.0-0.0-1.13","null","<span style='color:GreenYellow; font-size: 70px;'>正确! </span>","null","","","","","","","","","","","","","","","","","","","","","","","feedback_test"
"","","","","","psychophysics","137","243384","0.0-11.0-0.0-0.14","519","","j","","","","","","","","","","","","","key","j","8.326956043956011","768","428","j","true","img/C_ambi40.png","好人","prac_simultaneous",""
"","","","","","html-keyboard-response","138","243697","0.0-11.0-0.0-1.14","null","<span style='color:GreenYellow; font-size: 70px;'>正确! </span>","null","","","","","","","","","","","","","","","","","","","","","","","feedback_test"
"","","","","","psychophysics","139","245364","0.0-11.0-0.0-0.15","666","","f","","","","","","","","","","","","","key","f","8.32722110552763","768","428","f","true","img/T_ambi40.png","好人","prac_simultaneous",""
"","","","","","html-keyboard-response","140","245679","0.0-11.0-0.0-1.15","null","<span style='color:GreenYellow; font-size: 70px;'>正确! </span>","null","","","","","","","","","","","","","","","","","","","","","","","feedback_test"
"","","","","","psychophysics","141","247350","0.0-11.0-0.0-0.16","670","","f","","","","","","","","","","","","","key","f","8.32768341708544","768","428","f","true","img/C_ambi40.png","常人","prac_simultaneous",""
"","","","","","html-keyboard-response","142","247657","0.0-11.0-0.0-1.16","null","<span style='color:GreenYellow; font-size: 70px;'>正确! </span>","null","","","","","","","","","","","","","","","","","","","","","","","feedback_test"
"","","","","","psychophysics","143","249235","0.0-11.0-0.0-0.17","574","","j","","","","","","","","","","","","","key","j","8.327340425531958","768","428","j","true","img/S_ambi40.png","坏人","prac_simultaneous",""
"","","","","","html-keyboard-response","144","249543","0.0-11.0-0.0-1.17","null","<span style='color:GreenYellow; font-size: 70px;'>正确! </span>","null","","","","","","","","","","","","","","","","","","","","","","","feedback_test"
"","","","","","psychophysics","145","251369","0.0-11.0-0.0-0.18","818","","j","","","","","","","","","","","","","key","j","8.327564220183552","768","428","j","true","img/T_ambi40.png","常人","prac_simultaneous",""
"","","","","","html-keyboard-response","146","251683","0.0-11.0-0.0-1.18","null","<span style='color:GreenYellow; font-size: 70px;'>正确! </span>","null","","","","","","","","","","","","","","","","","","","","","","","feedback_test"
"","","","","","psychophysics","147","253451","0.0-11.0-0.0-0.19","759","","j","","","","","","","","","","","","","key","j","8.328052132701478","768","428","j","true","img/S_ambi40.png","坏人","prac_simultaneous",""
"","","","","","html-keyboard-response","148","253755","0.0-11.0-0.0-1.19","null","<span style='color:GreenYellow; font-size: 70px;'>正确! </span>","null","","","","","","","","","","","","","","","","","","","","","","","feedback_test"
"","","","","","psychophysics","149","255550","0.0-11.0-0.0-0.20","794","","f","","","","","","","","","","","","","key","f","8.305196261682267","768","428","j","false","img/T_ambi40.png","常人","prac_simultaneous",""
"","","","","","html-keyboard-response","150","255864","0.0-11.0-0.0-1.20","null","<span style='color:red; font-size: 70px;'>错误! </span>","null","","","","","","","","","","","","","","","","","","","","","","","feedback_test"
"","","","","","psychophysics","151","257531","0.0-11.0-0.0-0.21","659","","f","","","","","","","","","","","","","key","f","8.327879396985033","768","428","f","true","img/T_ambi40.png","坏人","prac_simultaneous",""
"","","","","","html-keyboard-response","152","257850","0.0-11.0-0.0-1.21","null","<span style='color:GreenYellow; font-size: 70px;'>正确! </span>","null","","","","","","","","","","","","","","","","","","","","","","","feedback_test"
"","","","","","psychophysics","153","259623","0.0-11.0-0.0-0.22","770","","f","","","","","","","","","","","","","key","f","8.328476415094283","768","428","f","true","img/S_ambi40.png","好人","prac_simultaneous",""
"","","","","","html-keyboard-response","154","259943","0.0-11.0-0.0-1.22","null","<span style='color:GreenYellow; font-size: 70px;'>正确! </span>","null","","","","","","","","","","","","","","","","","","","","","","","feedback_test"
"","","","","","psychophysics","155","261570","0.0-11.0-0.0-0.23","627","","j","","","","","","","","","","","","","key","j","8.293314432989645","768","428","j","true","img/C_ambi40.png","好人","prac_simultaneous",""
"","","","","","html-keyboard-response","156","261872","0.0-11.0-0.0-1.23","null","<span style='color:GreenYellow; font-size: 70px;'>正确! </span>","null","","","","","","","","","","","","","","","","","","","","","","","feedback_test"
"","","","","","html-keyboard-response","157","265202","0.0-12.0","3329","<style>.context{color:white; font-size: 35px; line-height:40px}</style>                              <div><p class='context'>您正确回答了88% 的试次。</p><p class='context'>您的平均反应时为671毫秒。</p><p class='context'>恭喜您完成练习。按任意键进入正式实验。</p><p class='footer' style='font-size: 35px; line-height:40px;'>请在进入正式实验实验之前将您的<span style='color: lightgreen;'>食指</span>放在电脑键盘的相应键位上进行按键。</p>"," ","","","","","","","","","","","","","","","","","","","","","","",""
"","","","","","html-keyboard-response","158","269651","0.0-13.0-1.0-0.0","4442","
      <p>请您将手指放在按键上，准备进入呈现顺序为<span style='color: yellow;'>先文字后图形条件</span>的正式匹配任务</p>
      <p> <div style = ""color: green""><按任意键进入下一阶段的匹配任务></div></p>
      "," ","","","","","","","","","","","","","","","","","","","","","","",""
"","","","","","psychophysics","159","271357","0.0-13.0-1.0-1.0-0.0-0.0","555","","j","","","","","","","","","","","","","key","j","8.307202970296995","768","428","j","true","img/T_ambi40.png","常人","word_first",""
"","","","","","html-keyboard-response","160","271678","0.0-13.0-1.0-1.0-0.0-1.0","null","<span style='color:GreenYellow; font-size: 70px;'>正确! </span>","null","","","","","","","","","","","","","","","","","","","","","","","feedback_test"
"","","","","","psychophysics","161","273512","0.0-13.0-1.0-1.0-0.0-0.1","680","","f","","","","","","","","","","","","","key","f","8.32704566210029","768","428","f","true","img/C_ambi40.png","常人","word_first",""
"","","","","","html-keyboard-response","162","273825","0.0-13.0-1.0-1.0-0.0-1.1","null","<span style='color:GreenYellow; font-size: 70px;'>正确! </span>","null","","","","","","","","","","","","","","","","","","","","","","","feedback_test"
"","","","","","psychophysics","163","275642","0.0-13.0-1.0-1.0-0.0-0.2","660","","f","","","","","","","","","","","","","key","f","8.327336405529984","768","428","f","true","img/S_ambi40.png","常人","word_first",""
"","","","","","html-keyboard-response","164","275957","0.0-13.0-1.0-1.0-0.0-1.2","null","<span style='color:GreenYellow; font-size: 70px;'>正确! </span>","null","","","","","","","","","","","","","","","","","","","","","","","feedback_test"
"","","","","","psychophysics","165","277841","0.0-13.0-1.0-1.0-0.0-0.3","729","","f","","","","","","","","","","","","","key","f","8.32803999999978","768","428","f","true","img/C_ambi40.png","坏人","word_first",""
"","","","","","html-keyboard-response","166","278151","0.0-13.0-1.0-1.0-0.0-1.3","null","<span style='color:GreenYellow; font-size: 70px;'>正确! </span>","null","","","","","","","","","","","","","","","","","","","","","","","feedback_test"
"","","","","","psychophysics","167","279951","0.0-13.0-1.0-1.0-0.0-0.4","647","","f","","","","","","","","","","","","","key","f","8.328572093023443","768","428","f","true","img/T_ambi40.png","好人","word_first",""
"","","","","","html-keyboard-response","168","280268","0.0-13.0-1.0-1.0-0.0-1.4","null","<span style='color:GreenYellow; font-size: 70px;'>正确! </span>","null","","","","","","","","","","","","","","","","","","","","","","","feedback_test"
"","","","","","psychophysics","169","282046","0.0-13.0-1.0-1.0-0.0-0.5","627","","j","","","","","","","","","","","","","key","j","8.297193396226437","768","428","j","true","img/C_ambi40.png","好人","word_first",""
"","","","","","html-keyboard-response","170","282365","0.0-13.0-1.0-1.0-0.0-1.5","null","<span style='color:GreenYellow; font-size: 70px;'>正确! </span>","null","","","","","","","","","","","","","","","","","","","","","","","feedback_test"
"","","","","","psychophysics","171","284204","0.0-13.0-1.0-1.0-0.0-0.6","687","","f","","","","","","","","","","","","","key","f","8.327390909090965","768","428","f","true","img/T_ambi40.png","坏人","word_first",""
"","","","","","html-keyboard-response","172","284527","0.0-13.0-1.0-1.0-0.0-1.6","null","<span style='color:GreenYellow; font-size: 70px;'>正确! </span>","null","","","","","","","","","","","","","","","","","","","","","","","feedback_test"
"","","","","","psychophysics","173","286364","0.0-13.0-1.0-1.0-0.0-0.7","684","","j","","","","","","","","","","","","","key","j","8.326707762557074","768","428","j","true","img/S_ambi40.png","坏人","word_first",""
"","","","","","html-keyboard-response","174","286680","0.0-13.0-1.0-1.0-0.0-1.7","null","<span style='color:GreenYellow; font-size: 70px;'>正确! </span>","null","","","","","","","","","","","","","","","","","","","","","","","feedback_test"
"","","","","","psychophysics","175","288384","0.0-13.0-1.0-1.0-0.0-0.8","553","","j","","","","","","","","","","","","","key","j","8.32680788177342","768","428","j","true","img/C_ambi40.png","好人","word_first",""
"","","","","","html-keyboard-response","176","288699","0.0-13.0-1.0-1.0-0.0-1.8","null","<span style='color:GreenYellow; font-size: 70px;'>正确! </span>","null","","","","","","","","","","","","","","","","","","","","","","","feedback_test"
"","","","","","psychophysics","177","290401","0.0-13.0-1.0-1.0-0.0-0.9","547","","f","","","","","","","","","","","","","key","f","8.327029556650187","768","428","f","true","img/S_ambi40.png","好人","word_first",""
"","","","","","html-keyboard-response","178","290704","0.0-13.0-1.0-1.0-0.0-1.9","null","<span style='color:GreenYellow; font-size: 70px;'>正确! </span>","null","","","","","","","","","","","","","","","","","","","","","","","feedback_test"
"","","","","","psychophysics","179","292399","0.0-13.0-1.0-1.0-0.0-0.10","542","","j","","","","","","","","","","","","","key","j","8.326762376237594","768","428","j","true","img/T_ambi40.png","常人","word_first",""
"","","","","","html-keyboard-response","180","292709","0.0-13.0-1.0-1.0-0.0-1.10","null","<span style='color:GreenYellow; font-size: 70px;'>正确! </span>","null","","","","","","","","","","","","","","","","","","","","","","","feedback_test"
"","","","","","psychophysics","181","294514","0.0-13.0-1.0-1.0-0.0-0.11","654","","j","","","","","","","","","","","","","key","j","8.29639069767436","768","428","j","true","img/S_ambi40.png","坏人","word_first",""
"","","","","","html-keyboard-response","182","294828","0.0-13.0-1.0-1.0-0.0-1.11","null","<span style='color:GreenYellow; font-size: 70px;'>正确! </span>","null","","","","","","","","","","","","","","","","","","","","","","","feedback_test"
"","","","","","psychophysics","183","296550","0.0-13.0-1.0-1.0-0.0-0.12","567","","j","","","","","","","","","","","","","key","j","8.328665048543487","768","428","f","false","img/T_ambi40.png","好人","word_first",""
"","","","","","html-keyboard-response","184","296860","0.0-13.0-1.0-1.0-0.0-1.12","null","<span style='color:red; font-size: 70px;'>错误! </span>","null","","","","","","","","","","","","","","","","","","","","","","","feedback_test"
"","","","","","psychophysics","185","298704","0.0-13.0-1.0-1.0-0.0-0.13","690","","f","","","","","","","","","","","","","key","f","8.326772727272791","768","428","f","true","img/S_ambi40.png","常人","word_first",""
"","","","","","html-keyboard-response","186","299011","0.0-13.0-1.0-1.0-0.0-1.13","null","<span style='color:GreenYellow; font-size: 70px;'>正确! </span>","null","","","","","","","","","","","","","","","","","","","","","","","feedback_test"
"","","","","","psychophysics","187","300844","0.0-13.0-1.0-1.0-0.0-0.14","682","","f","","","","","","","","","","","","","key","f","8.326799086758072","768","428","f","true","img/T_ambi40.png","坏人","word_first",""
"","","","","","html-keyboard-response","188","301166","0.0-13.0-1.0-1.0-0.0-1.14","null","<span style='color:GreenYellow; font-size: 70px;'>正确! </span>","null","","","","","","","","","","","","","","","","","","","","","","","feedback_test"
"","","","","","psychophysics","189","302944","0.0-13.0-1.0-1.0-0.0-0.15","625","","f","","","","","","","","","","","","","key","f","8.325976635514111","768","428","f","true","img/S_ambi40.png","好人","word_first",""
"","","","","","html-keyboard-response","190","303250","0.0-13.0-1.0-1.0-0.0-1.15","null","<span style='color:GreenYellow; font-size: 70px;'>正确! </span>","null","","","","","","","","","","","","","","","","","","","","","","","feedback_test"
"","","","","","psychophysics","191","304885","0.0-13.0-1.0-1.0-0.0-0.16","484","","j","","","","","","","","","","","","","key","j","8.327482051282034","768","428","j","true","img/C_ambi40.png","好人","word_first",""
"","","","","","html-keyboard-response","192","305195","0.0-13.0-1.0-1.0-0.0-1.16","null","<span style='color:GreenYellow; font-size: 70px;'>正确! </span>","null","","","","","","","","","","","","","","","","","","","","","","","feedback_test"
"","","","","","psychophysics","193","306904","0.0-13.0-1.0-1.0-0.0-0.17","555","","j","","","","","","","","","","","","","key","j","8.328348039215722","768","428","j","true","img/T_ambi40.png","常人","word_first",""
"","","","","","html-keyboard-response","194","307218","0.0-13.0-1.0-1.0-0.0-1.17","null","<span style='color:GreenYellow; font-size: 70px;'>正确! </span>","null","","","","","","","","","","","","","","","","","","","","","","","feedback_test"
"","","","","","psychophysics","195","308820","0.0-13.0-1.0-1.0-0.0-0.18","447","","j","","","","","","","","","","","","","key","j","8.326863874345458","768","428","j","true","img/C_ambi40.png","好人","word_first",""
"","","","","","html-keyboard-response","196","309127","0.0-13.0-1.0-1.0-0.0-1.18","null","<span style='color:GreenYellow; font-size: 70px;'>正确! </span>","null","","","","","","","","","","","","","","","","","","","","","","","feedback_test"
"","","","","","psychophysics","197","310750","0.0-13.0-1.0-1.0-0.0-0.19","471","","j","","","","","","","","","","","","","key","j","8.32775773195887","768","428","j","true","img/S_ambi40.png","坏人","word_first",""
"","","","","","html-keyboard-response","198","311061","0.0-13.0-1.0-1.0-0.0-1.19","null","<span style='color:GreenYellow; font-size: 70px;'>正确! </span>","null","","","","","","","","","","","","","","","","","","","","","","","feedback_test"
"","","","","","psychophysics","199","312722","0.0-13.0-1.0-1.0-0.0-0.20","505","","j","","","","","","","","","","","","","key","j","8.32498989898989","768","428","j","true","img/T_ambi40.png","常人","word_first",""
"","","","","","html-keyboard-response","200","313031","0.0-13.0-1.0-1.0-0.0-1.20","null","<span style='color:GreenYellow; font-size: 70px;'>正确! </span>","null","","","","","","","","","","","","","","","","","","","","","","","feedback_test"
"","","","","","psychophysics","201","314685","0.0-13.0-1.0-1.0-0.0-0.21","501","","f","","","","","","","","","","","","","key","f","8.328065656565924","768","428","f","true","img/C_ambi40.png","常人","word_first",""
"","","","","","html-keyboard-response","202","315003","0.0-13.0-1.0-1.0-0.0-1.21","null","<span style='color:GreenYellow; font-size: 70px;'>正确! </span>","null","","","","","","","","","","","","","","","","","","","","","","","feedback_test"
"","","","","","psychophysics","203","316970","0.0-13.0-1.0-1.0-0.0-0.22","812","","f","","","","","","","","","","","","","key","f","8.327748936170247","768","428","f","true","img/C_ambi40.png","坏人","word_first",""
"","","","","","html-keyboard-response","204","317276","0.0-13.0-1.0-1.0-0.0-1.22","null","<span style='color:GreenYellow; font-size: 70px;'>正确! </span>","null","","","","","","","","","","","","","","","","","","","","","","","feedback_test"
"","","","","","psychophysics","205","319134","0.0-13.0-1.0-1.0-0.0-0.23","702","","j","","","","","","","","","","","","","key","j","8.326752252252206","768","428","j","true","img/S_ambi40.png","坏人","word_first",""
"","","","","","html-keyboard-response","206","319447","0.0-13.0-1.0-1.0-0.0-1.23","null","<span style='color:GreenYellow; font-size: 70px;'>正确! </span>","null","","","","","","","","","","","","","","","","","","","","","","","feedback_test"
"","","","","","psychophysics","207","321145","0.0-13.0-1.0-1.0-0.0-0.24","545","","j","","","","","","","","","","","","","key","j","8.327331683168241","768","428","j","true","img/C_ambi40.png","好人","word_first",""
"","","","","","html-keyboard-response","208","321455","0.0-13.0-1.0-1.0-0.0-1.24","null","<span style='color:GreenYellow; font-size: 70px;'>正确! </span>","null","","","","","","","","","","","","","","","","","","","","","","","feedback_test"
"","","","","","psychophysics","209","323100","0.0-13.0-1.0-1.0-0.0-0.25","492","","j","","","","","","","","","","","","","key","j","8.326882653061018","768","428","j","true","img/S_ambi40.png","坏人","word_first",""
"","","","","","html-keyboard-response","210","323418","0.0-13.0-1.0-1.0-0.0-1.25","null","<span style='color:GreenYellow; font-size: 70px;'>正确! </span>","null","","","","","","","","","","","","","","","","","","","","","","","feedback_test"
"","","","","","psychophysics","211","325104","0.0-13.0-1.0-1.0-0.0-0.26","535","","j","","","","","","","","","","","","","key","j","8.299492537313597","768","428","j","true","img/S_ambi40.png","坏人","word_first",""
"","","","","","html-keyboard-response","212","325411","0.0-13.0-1.0-1.0-0.0-1.26","null","<span style='color:GreenYellow; font-size: 70px;'>正确! </span>","null","","","","","","","","","","","","","","","","","","","","","","","feedback_test"
"","","","","","psychophysics","213","327090","0.0-13.0-1.0-1.0-0.0-0.27","523","","f","","","","","","","","","","","","","key","f","8.326699999999837","768","428","f","true","img/S_ambi40.png","常人","word_first",""
"","","","","","html-keyboard-response","214","327396","0.0-13.0-1.0-1.0-0.0-1.27","null","<span style='color:GreenYellow; font-size: 70px;'>正确! </span>","null","","","","","","","","","","","","","","","","","","","","","","","feedback_test"
"","","","","","psychophysics","215","329270","0.0-13.0-1.0-1.0-0.0-0.28","722","","f","","","","","","","","","","","","","key","f","8.326776785714173","768","428","f","true","img/T_ambi40.png","好人","word_first",""
"","","","","","html-keyboard-response","216","329577","0.0-13.0-1.0-1.0-0.0-1.28","null","<span style='color:GreenYellow; font-size: 70px;'>正确! </span>","null","","","","","","","","","","","","","","","","","","","","","","","feedback_test"
"","","","","","psychophysics","217","331220","0.0-13.0-1.0-1.0-0.0-0.29","490","","j","","","","","","","","","","","","","key","j","8.327311224489751","768","428","j","true","img/T_ambi40.png","常人","word_first",""
"","","","","","html-keyboard-response","218","331533","0.0-13.0-1.0-1.0-0.0-1.29","null","<span style='color:GreenYellow; font-size: 70px;'>正确! </span>","null","","","","","","","","","","","","","","","","","","","","","","","feedback_test"
"","","","","","psychophysics","219","333156","0.0-13.0-1.0-1.0-0.0-0.30","469","","j","","","","","","","","","","","","","key","j","8.327067010309284","768","428","j","true","img/C_ambi40.png","好人","word_first",""
"","","","","","html-keyboard-response","220","333477","0.0-13.0-1.0-1.0-0.0-1.30","null","<span style='color:GreenYellow; font-size: 70px;'>正确! </span>","null","","","","","","","","","","","","","","","","","","","","","","","feedback_test"
"","","","","","psychophysics","221","335156","0.0-13.0-1.0-1.0-0.0-0.31","523","","f","","","","","","","","","","","","","key","f","8.292045000000217","768","428","f","true","img/C_ambi40.png","常人","word_first",""
"","","","","","html-keyboard-response","222","335470","0.0-13.0-1.0-1.0-0.0-1.31","null","<span style='color:GreenYellow; font-size: 70px;'>正确! </span>","null","","","","","","","","","","","","","","","","","","","","","","","feedback_test"
"","","","","","psychophysics","223","337320","0.0-13.0-1.0-1.0-0.0-0.32","697","","j","","","","","","","","","","","","","key","j","8.326859728506676","768","428","j","true","img/T_ambi40.png","常人","word_first",""
"","","","","","html-keyboard-response","224","337628","0.0-13.0-1.0-1.0-0.0-1.32","null","<span style='color:GreenYellow; font-size: 70px;'>正确! </span>","null","","","","","","","","","","","","","","","","","","","","","","","feedback_test"
"","","","","","psychophysics","225","339306","0.0-13.0-1.0-1.0-0.0-0.33","523","","f","","","","","","","","","","","","","key","f","8.326810000000114","768","428","f","true","img/T_ambi40.png","坏人","word_first",""
"","","","","","html-keyboard-response","226","339611","0.0-13.0-1.0-1.0-0.0-1.33","null","<span style='color:GreenYellow; font-size: 70px;'>正确! </span>","null","","","","","","","","","","","","","","","","","","","","","","","feedback_test"
"","","","","","psychophysics","227","341475","0.0-13.0-1.0-1.0-0.0-0.34","711","","f","","","","","","","","","","","","","key","f","8.312171171171022","768","428","f","true","img/S_ambi40.png","好人","word_first",""
"","","","","","html-keyboard-response","228","341790","0.0-13.0-1.0-1.0-0.0-1.34","null","<span style='color:GreenYellow; font-size: 70px;'>正确! </span>","null","","","","","","","","","","","","","","","","","","","","","","","feedback_test"
"","","","","","psychophysics","229","343691","0.0-13.0-1.0-1.0-0.0-0.35","747","","f","","","","","","","","","","","","","key","f","8.326792951541982","768","428","f","true","img/C_ambi40.png","坏人","word_first",""
"","","","","","html-keyboard-response","230","344011","0.0-13.0-1.0-1.0-0.0-1.35","null","<span style='color:GreenYellow; font-size: 70px;'>正确! </span>","null","","","","","","","","","","","","","","","","","","","","","","","feedback_test"
"","","","","","psychophysics","231","345650","0.0-13.0-1.0-1.0-0.0-0.36","482","","j","","","","","","","","","","","","","key","j","8.327102564102432","768","428","f","false","img/C_ambi40.png","坏人","word_first",""
"","","","","","html-keyboard-response","232","345955","0.0-13.0-1.0-1.0-0.0-1.36","null","<span style='color:red; font-size: 70px;'>错误! </span>","null","","","","","","","","","","","","","","","","","","","","","","","feedback_test"
"","","","","","psychophysics","233","347602","0.0-13.0-1.0-1.0-0.0-0.37","493","","j","","","","","","","","","","","","","key","j","8.329791878172502","768","428","j","true","img/T_ambi40.png","常人","word_first",""
"","","","","","html-keyboard-response","234","347916","0.0-13.0-1.0-1.0-0.0-1.37","null","<span style='color:GreenYellow; font-size: 70px;'>正确! </span>","null","","","","","","","","","","","","","","","","","","","","","","","feedback_test"
"","","","","","psychophysics","235","349552","0.0-13.0-1.0-1.0-0.0-0.38","479","","j","","","","","","","","","","","","","key","j","8.327328205128344","768","428","j","true","img/C_ambi40.png","好人","word_first",""
"","","","","","html-keyboard-response","236","349859","0.0-13.0-1.0-1.0-0.0-1.38","null","<span style='color:GreenYellow; font-size: 70px;'>正确! </span>","null","","","","","","","","","","","","","","","","","","","","","","","feedback_test"
"","","","","","psychophysics","237","351546","0.0-13.0-1.0-1.0-0.0-0.39","532","","f","","","","","","","","","","","","","key","f","8.328278606965448","768","428","f","true","img/S_ambi40.png","常人","word_first",""
"","","","","","html-keyboard-response","238","351852","0.0-13.0-1.0-1.0-0.0-1.39","null","<span style='color:GreenYellow; font-size: 70px;'>正确! </span>","null","","","","","","","","","","","","","","","","","","","","","","","feedback_test"
"","","","","","psychophysics","239","353542","0.0-13.0-1.0-1.0-0.0-0.40","538","","f","","","","","","","","","","","","","key","f","8.327084158415824","768","428","f","true","img/C_ambi40.png","常人","word_first",""
"","","","","","html-keyboard-response","240","353859","0.0-13.0-1.0-1.0-0.0-1.40","null","<span style='color:GreenYellow; font-size: 70px;'>正确! </span>","null","","","","","","","","","","","","","","","","","","","","","","","feedback_test"
"","","","","","psychophysics","241","355514","0.0-13.0-1.0-1.0-0.0-0.41","503","","j","","","","","","","","","","","","","key","j","8.327055555555765","768","428","j","true","img/S_ambi40.png","坏人","word_first",""
"","","","","","html-keyboard-response","242","355817","0.0-13.0-1.0-1.0-0.0-1.41","null","<span style='color:GreenYellow; font-size: 70px;'>正确! </span>","null","","","","","","","","","","","","","","","","","","","","","","","feedback_test"
"","","","","","psychophysics","243","357538","0.0-13.0-1.0-1.0-0.0-0.42","570","","f","","","","","","","","","","","","","key","f","8.298721951219571","768","428","f","true","img/S_ambi40.png","好人","word_first",""
"","","","","","html-keyboard-response","244","357842","0.0-13.0-1.0-1.0-0.0-1.42","null","<span style='color:GreenYellow; font-size: 70px;'>正确! </span>","null","","","","","","","","","","","","","","","","","","","","","","","feedback_test"
"","","","","","psychophysics","245","359489","0.0-13.0-1.0-1.0-0.0-0.43","489","","j","","","","","","","","","","","","","key","j","8.327494897958953","768","428","j","true","img/C_ambi40.png","好人","word_first",""
"","","","","","html-keyboard-response","246","359794","0.0-13.0-1.0-1.0-0.0-1.43","null","<span style='color:GreenYellow; font-size: 70px;'>正确! </span>","null","","","","","","","","","","","","","","","","","","","","","","","feedback_test"
"","","","","","psychophysics","247","361494","0.0-13.0-1.0-1.0-0.0-0.44","546","","f","","","","","","","","","","","","","key","f","8.326945812807859","768","428","f","true","img/T_ambi40.png","好人","word_first",""
"","","","","","html-keyboard-response","248","361813","0.0-13.0-1.0-1.0-0.0-1.44","null","<span style='color:GreenYellow; font-size: 70px;'>正确! </span>","null","","","","","","","","","","","","","","","","","","","","","","","feedback_test"
"","","","","","psychophysics","249","363525","0.0-13.0-1.0-1.0-0.0-0.45","561","","j","","","","","","","","","","","","","key","j","8.32650980392132","768","428","j","true","img/S_ambi40.png","坏人","word_first",""
"","","","","","html-keyboard-response","250","363847","0.0-13.0-1.0-1.0-0.0-1.45","null","<span style='color:GreenYellow; font-size: 70px;'>正确! </span>","null","","","","","","","","","","","","","","","","","","","","","","","feedback_test"
"","","","","","psychophysics","251","365521","0.0-13.0-1.0-1.0-0.0-0.46","520","","f","","","","","","","","","","","","","key","f","8.326600000000035","768","428","f","true","img/T_ambi40.png","坏人","word_first",""
"","","","","","html-keyboard-response","252","365838","0.0-13.0-1.0-1.0-0.0-1.46","null","<span style='color:GreenYellow; font-size: 70px;'>正确! </span>","null","","","","","","","","","","","","","","","","","","","","","","","feedback_test"
"","","","","","psychophysics","253","367676","0.0-13.0-1.0-1.0-0.0-0.47","683","","j","","","","","","","","","","","","","key","j","8.327264840182526","768","428","j","true","img/T_ambi40.png","常人","word_first",""
"","","","","","html-keyboard-response","254","367997","0.0-13.0-1.0-1.0-0.0-1.47","null","<span style='color:GreenYellow; font-size: 70px;'>正确! </span>","null","","","","","","","","","","","","","","","","","","","","","","","feedback_test"
"","","","","","psychophysics","255","369711","0.0-13.0-1.0-1.0-0.0-0.48","561","","f","","","","","","","","","","","","","key","f","8.328746341463326","768","428","j","false","img/S_ambi40.png","坏人","word_first",""
"","","","","","html-keyboard-response","256","370016","0.0-13.0-1.0-1.0-0.0-1.48","null","<span style='color:red; font-size: 70px;'>错误! </span>","null","","","","","","","","","","","","","","","","","","","","","","","feedback_test"
"","","","","","psychophysics","257","371635","0.0-13.0-1.0-1.0-0.0-0.49","466","","j","","","","","","","","","","","","","key","j","8.326761658031101","768","428","j","true","img/S_ambi40.png","坏人","word_first",""
"","","","","","html-keyboard-response","258","371942","0.0-13.0-1.0-1.0-0.0-1.49","null","<span style='color:GreenYellow; font-size: 70px;'>正确! </span>","null","","","","","","","","","","","","","","","","","","","","","","","feedback_test"
"","","","","","psychophysics","259","373546","0.0-13.0-1.0-1.0-0.0-0.50","450","","j","","","","","","","","","","","","","key","j","8.327293193717159","768","428","j","true","img/C_ambi40.png","好人","word_first",""
"","","","","","html-keyboard-response","260","373853","0.0-13.0-1.0-1.0-0.0-1.50","null","<span style='color:GreenYellow; font-size: 70px;'>正确! </span>","null","","","","","","","","","","","","","","","","","","","","","","","feedback_test"
"","","","","","psychophysics","261","375571","0.0-13.0-1.0-1.0-0.0-0.51","567","","f","","","","","","","","","","","","","key","f","8.326878640776696","768","428","f","true","img/S_ambi40.png","常人","word_first",""
"","","","","","html-keyboard-response","262","375893","0.0-13.0-1.0-1.0-0.0-1.51","null","<span style='color:GreenYellow; font-size: 70px;'>正确! </span>","null","","","","","","","","","","","","","","","","","","","","","","","feedback_test"
"","","","","","psychophysics","263","377712","0.0-13.0-1.0-1.0-0.0-0.52","667","","f","","","","","","","","","","","","","key","f","8.304783410138144","768","428","f","true","img/T_ambi40.png","好人","word_first",""
"","","","","","html-keyboard-response","264","378018","0.0-13.0-1.0-1.0-0.0-1.52","null","<span style='color:GreenYellow; font-size: 70px;'>正确! </span>","null","","","","","","","","","","","","","","","","","","","","","","","feedback_test"
"","","","","","psychophysics","265","379757","0.0-13.0-1.0-1.0-0.0-0.53","581","","f","","","","","","","","","","","","","key","f","8.327289855072234","768","428","j","false","img/C_ambi40.png","好人","word_first",""
"","","","","","html-keyboard-response","266","380066","0.0-13.0-1.0-1.0-0.0-1.53","null","<span style='color:red; font-size: 70px;'>错误! </span>","null","","","","","","","","","","","","","","","","","","","","","","","feedback_test"
"","","","","","psychophysics","267","381881","0.0-13.0-1.0-1.0-0.0-0.54","665","","f","","","","","","","","","","","","","key","f","8.326949074074003","768","428","f","true","img/C_ambi40.png","常人","word_first",""
"","","","","","html-keyboard-response","268","382198","0.0-13.0-1.0-1.0-0.0-1.54","null","<span style='color:GreenYellow; font-size: 70px;'>正确! </span>","null","","","","","","","","","","","","","","","","","","","","","","","feedback_test"
"","","","","","psychophysics","269","383986","0.0-13.0-1.0-1.0-0.0-0.55","634","","f","","","","","","","","","","","","","key","f","8.327441314553969","768","428","f","true","img/T_ambi40.png","坏人","word_first",""
"","","","","","html-keyboard-response","270","384299","0.0-13.0-1.0-1.0-0.0-1.55","null","<span style='color:GreenYellow; font-size: 70px;'>正确! </span>","null","","","","","","","","","","","","","","","","","","","","","","","feedback_test"
"","","","","","psychophysics","271","386031","0.0-13.0-1.0-1.0-0.0-0.56","576","","f","","","","","","","","","","","","","key","f","8.327584541062791","768","428","f","true","img/C_ambi40.png","坏人","word_first",""
"","","","","","html-keyboard-response","272","386338","0.0-13.0-1.0-1.0-0.0-1.56","null","<span style='color:GreenYellow; font-size: 70px;'>正确! </span>","null","","","","","","","","","","","","","","","","","","","","","","","feedback_test"
"","","","","","psychophysics","273","387982","0.0-13.0-1.0-1.0-0.0-0.57","488","","j","","","","","","","","","","","","","key","j","8.328336734693837","768","428","j","true","img/T_ambi40.png","常人","word_first",""
"","","","","","html-keyboard-response","274","388294","0.0-13.0-1.0-1.0-0.0-1.57","null","<span style='color:GreenYellow; font-size: 70px;'>正确! </span>","null","","","","","","","","","","","","","","","","","","","","","","","feedback_test"
"","","","","","psychophysics","275","390151","0.0-13.0-1.0-1.0-0.0-0.58","702","","f","","","","","","","","","","","","","key","f","8.32651801801812","768","428","j","false","img/T_ambi40.png","常人","word_first",""
"","","","","","html-keyboard-response","276","390453","0.0-13.0-1.0-1.0-0.0-1.58","null","<span style='color:red; font-size: 70px;'>错误! </span>","null","","","","","","","","","","","","","","","","","","","","","","","feedback_test"
"","","","","","psychophysics","277","392455","0.0-13.0-1.0-1.0-0.0-0.59","848","","f","","","","","","","","","","","","","key","f","8.32699581589959","768","428","f","true","img/S_ambi40.png","好人","word_first",""
"","","","","","html-keyboard-response","278","392769","0.0-13.0-1.0-1.0-0.0-1.59","null","<span style='color:GreenYellow; font-size: 70px;'>正确! </span>","null","","","","","","","","","","","","","","","","","","","","","","","feedback_test"
"","","","","","html-keyboard-response","279","395650","0.0-13.0-1.0-1.0-1.0","2881","<style>.context{color:white; font-size: 35px; line-height:40px}</style>                              <div><p class='context'>您正确回答了92% 的试次。</p><p class='context'>您的平均反应时为587毫秒。</p><p class='context'>请按任意键进入休息</p></div>"," ","","","","","","","","","","","","","","","","","","","","","","",""
"","","","","","html-button-response","280","412822","0.0-13.0-1.0-1.0-2.0","17169","
                      <p>您当前还剩余3组实验</p>
                      <p>现在是休息时间，当您结束休息后，您可以点击 结束休息 按钮 继续</p>
                      <p>建议休息时间还剩余<span id=""iii"">60</span>秒</p>","0","","","","","","","","","","","","","","","","","","","","","","",""
"","","","","","psychophysics","281","414632","0.0-13.0-1.0-1.0-0.1-0.60","658","","f","","","","","","","","","","","","","key","f","8.327356481481628","768","428","f","true","img/C_ambi40.png","坏人","word_first",""
"","","","","","html-keyboard-response","282","414939","0.0-13.0-1.0-1.0-0.1-1.60","null","<span style='color:GreenYellow; font-size: 70px;'>正确! </span>","null","","","","","","","","","","","","","","","","","","","","","","","feedback_test"
"","","","","","psychophysics","283","416657","0.0-13.0-1.0-1.0-0.1-0.61","560","","j","","","","","","","","","","","","","key","j","8.326668292682948","768","428","j","true","img/C_ambi40.png","好人","word_first",""
"","","","","","html-keyboard-response","284","416969","0.0-13.0-1.0-1.0-0.1-1.61","null","<span style='color:GreenYellow; font-size: 70px;'>正确! </span>","null","","","","","","","","","","","","","","","","","","","","","","","feedback_test"
"","","","","","psychophysics","285","418599","0.0-13.0-1.0-1.0-0.1-0.62","478","","j","","","","","","","","","","","","","key","j","8.325298969071904","768","428","j","true","img/T_ambi40.png","常人","word_first",""
"","","","","","html-keyboard-response","286","418909","0.0-13.0-1.0-1.0-0.1-1.62","null","<span style='color:GreenYellow; font-size: 70px;'>正确! </span>","null","","","","","","","","","","","","","","","","","","","","","","","feedback_test"
"","","","","","psychophysics","287","420721","0.0-13.0-1.0-1.0-0.1-0.63","661","","f","","","","","","","","","","","","","key","f","8.365894009216479","768","428","f","true","img/T_ambi40.png","好人","word_first",""
"","","","","","html-keyboard-response","288","421038","0.0-13.0-1.0-1.0-0.1-1.63","null","<span style='color:GreenYellow; font-size: 70px;'>正确! </span>","null","","","","","","","","","","","","","","","","","","","","","","","feedback_test"
"","","","","","psychophysics","289","422688","0.0-13.0-1.0-1.0-0.1-0.64","496","","f","","","","","","","","","","","","","key","f","8.327137055837545","768","428","f","true","img/S_ambi40.png","好人","word_first",""
"","","","","","html-keyboard-response","290","423006","0.0-13.0-1.0-1.0-0.1-1.64","null","<span style='color:GreenYellow; font-size: 70px;'>正确! </span>","null","","","","","","","","","","","","","","","","","","","","","","","feedback_test"
"","","","","","psychophysics","291","424694","0.0-13.0-1.0-1.0-0.1-0.65","537","","f","","","","","","","","","","","","","key","f","8.299716417910531","768","428","f","true","img/S_ambi40.png","常人","word_first",""
"","","","","","html-keyboard-response","292","425012","0.0-13.0-1.0-1.0-0.1-1.65","null","<span style='color:GreenYellow; font-size: 70px;'>正确! </span>","null","","","","","","","","","","","","","","","","","","","","","","","feedback_test"
"","","","","","psychophysics","293","426742","0.0-13.0-1.0-1.0-0.1-0.66","578","","j","","","","","","","","","","","","","key","j","8.326840579710229","768","428","j","true","img/T_ambi40.png","常人","word_first",""
"","","","","","html-keyboard-response","294","427048","0.0-13.0-1.0-1.0-0.1-1.66","null","<span style='color:GreenYellow; font-size: 70px;'>正确! </span>","null","","","","","","","","","","","","","","","","","","","","","","","feedback_test"
"","","","","","psychophysics","295","428624","0.0-13.0-1.0-1.0-0.1-0.67","424","","j","","","","","","","","","","","","","key","j","8.327595744680792","768","428","j","true","img/C_ambi40.png","好人","word_first",""
"","","","","","html-keyboard-response","296","428932","0.0-13.0-1.0-1.0-0.1-1.67","null","<span style='color:GreenYellow; font-size: 70px;'>正确! </span>","null","","","","","","","","","","","","","","","","","","","","","","","feedback_test"
"","","","","","psychophysics","297","430663","0.0-13.0-1.0-1.0-0.1-0.68","577","","f","","","","","","","","","","","","","key","f","8.327227053139977","768","428","f","true","img/T_ambi40.png","坏人","word_first",""
"","","","","","html-keyboard-response","298","430969","0.0-13.0-1.0-1.0-0.1-1.68","null","<span style='color:GreenYellow; font-size: 70px;'>正确! </span>","null","","","","","","","","","","","","","","","","","","","","","","","feedback_test"
"","","","","","psychophysics","299","432579","0.0-13.0-1.0-1.0-0.1-0.69","452","","j","","","","","","","","","","","","","key","j","8.32588082901534","768","428","j","true","img/S_ambi40.png","坏人","word_first",""
"","","","","","html-keyboard-response","300","432898","0.0-13.0-1.0-1.0-0.1-1.69","null","<span style='color:GreenYellow; font-size: 70px;'>正确! </span>","null","","","","","","","","","","","","","","","","","","","","","","","feedback_test"
"","","","","","psychophysics","301","434609","0.0-13.0-1.0-1.0-0.1-0.70","559","","f","","","","","","","","","","","","","key","f","8.327307317073162","768","428","f","true","img/C_ambi40.png","常人","word_first",""
"","","","","","html-keyboard-response","302","434918","0.0-13.0-1.0-1.0-0.1-1.70","null","<span style='color:GreenYellow; font-size: 70px;'>正确! </span>","null","","","","","","","","","","","","","","","","","","","","","","","feedback_test"
"","","","","","psychophysics","303","436635","0.0-13.0-1.0-1.0-0.1-0.71","562","","j","","","","","","","","","","","","","key","j","8.32707317073165","768","428","j","true","img/S_ambi40.png","坏人","word_first",""
"","","","","","html-keyboard-response","304","436950","0.0-13.0-1.0-1.0-0.1-1.71","null","<span style='color:GreenYellow; font-size: 70px;'>正确! </span>","null","","","","","","","","","","","","","","","","","","","","","","","feedback_test"
"","","","","","psychophysics","305","438611","0.0-13.0-1.0-1.0-0.1-0.72","506","","j","","","","","","","","","","","","","key","j","8.326777777777728","768","428","j","true","img/T_ambi40.png","常人","word_first",""
"","","","","","html-keyboard-response","306","438913","0.0-13.0-1.0-1.0-0.1-1.72","null","<span style='color:GreenYellow; font-size: 70px;'>正确! </span>","null","","","","","","","","","","","","","","","","","","","","","","","feedback_test"
"","","","","","psychophysics","307","440625","0.0-13.0-1.0-1.0-0.1-0.73","554","","j","","","","","","","","","","","","","key","j","8.32774999999988","768","428","j","true","img/T_ambi40.png","常人","word_first",""
"","","","","","html-keyboard-response","308","440939","0.0-13.0-1.0-1.0-0.1-1.73","null","<span style='color:GreenYellow; font-size: 70px;'>正确! </span>","null","","","","","","","","","","","","","","","","","","","","","","","feedback_test"
"","","","","","psychophysics","309","442616","0.0-13.0-1.0-1.0-0.1-0.74","523","","j","","","","","","","","","","","","","key","j","8.328459999999904","768","428","j","true","img/C_ambi40.png","好人","word_first",""
"","","","","","html-keyboard-response","310","442926","0.0-13.0-1.0-1.0-0.1-1.74","null","<span style='color:GreenYellow; font-size: 70px;'>正确! </span>","null","","","","","","","","","","","","","","","","","","","","","","","feedback_test"
"","","","","","psychophysics","311","444829","0.0-13.0-1.0-1.0-0.1-0.75","750","","j","","","","","","","","","","","","","key","j","8.328229074890004","768","428","j","true","img/S_ambi40.png","坏人","word_first",""
"","","","","","html-keyboard-response","312","445139","0.0-13.0-1.0-1.0-0.1-1.75","null","<span style='color:GreenYellow; font-size: 70px;'>正确! </span>","null","","","","","","","","","","","","","","","","","","","","","","","feedback_test"
"","","","","","psychophysics","313","446841","0.0-13.0-1.0-1.0-0.1-0.76","551","","j","","","","","","","","","","","","","key","j","8.293985221674609","768","428","j","true","img/C_ambi40.png","好人","word_first",""
"","","","","","html-keyboard-response","314","447143","0.0-13.0-1.0-1.0-0.1-1.76","null","<span style='color:GreenYellow; font-size: 70px;'>正确! </span>","null","","","","","","","","","","","","","","","","","","","","","","","feedback_test"
"","","","","","psychophysics","315","448846","0.0-13.0-1.0-1.0-0.1-0.77","549","","f","","","","","","","","","","","","","key","f","8.326921182265965","768","428","f","true","img/S_ambi40.png","好人","word_first",""
"","","","","","html-keyboard-response","316","449168","0.0-13.0-1.0-1.0-0.1-1.77","null","<span style='color:GreenYellow; font-size: 70px;'>正确! </span>","null","","","","","","","","","","","","","","","","","","","","","","","feedback_test"
"","","","","","psychophysics","317","450836","0.0-13.0-1.0-1.0-0.1-0.78","516","","j","","","","","","","","","","","","","key","j","8.328577889447175","768","428","f","false","img/C_ambi40.png","坏人","word_first",""
"","","","","","html-keyboard-response","318","451155","0.0-13.0-1.0-1.0-0.1-1.78","null","<span style='color:red; font-size: 70px;'>错误! </span>","null","","","","","","","","","","","","","","","","","","","","","","","feedback_test"
"","","","","","psychophysics","319","452975","0.0-13.0-1.0-1.0-0.1-0.79","665","","f","","","","","","","","","","","","","key","f","8.327870967741873","768","428","f","true","img/T_ambi40.png","好人","word_first",""
"","","","","","html-keyboard-response","320","453284","0.0-13.0-1.0-1.0-0.1-1.79","null","<span style='color:GreenYellow; font-size: 70px;'>正确! </span>","null","","","","","","","","","","","","","","","","","","","","","","","feedback_test"
"","","","","","psychophysics","321","454985","0.0-13.0-1.0-1.0-0.1-0.80","551","","j","","","","","","","","","","","","","key","j","8.326896551724356","768","428","j","true","img/S_ambi40.png","坏人","word_first",""
"","","","","","html-keyboard-response","322","455291","0.0-13.0-1.0-1.0-0.1-1.80","null","<span style='color:GreenYellow; font-size: 70px;'>正确! </span>","null","","","","","","","","","","","","","","","","","","","","","","","feedback_test"
"","","","","","psychophysics","323","457235","0.0-13.0-1.0-1.0-0.1-0.81","793","","f","","","","","","","","","","","","","key","f","8.328633620689727","768","428","f","true","img/S_ambi40.png","常人","word_first",""
"","","","","","html-keyboard-response","324","457558","0.0-13.0-1.0-1.0-0.1-1.81","null","<span style='color:GreenYellow; font-size: 70px;'>正确! </span>","null","","","","","","","","","","","","","","","","","","","","","","","feedback_test"
"","","","","","psychophysics","325","459259","0.0-13.0-1.0-1.0-0.1-0.82","546","","f","","","","","","","","","","","","","key","f","8.328295566502607","768","428","f","true","img/T_ambi40.png","坏人","word_first",""
"","","","","","html-keyboard-response","326","459579","0.0-13.0-1.0-1.0-0.1-1.82","null","<span style='color:GreenYellow; font-size: 70px;'>正确! </span>","null","","","","","","","","","","","","","","","","","","","","","","","feedback_test"
"","","","","","psychophysics","327","461409","0.0-13.0-1.0-1.0-0.1-0.83","673","","f","","","","","","","","","","","","","key","f","8.327205479452036","768","428","f","true","img/C_ambi40.png","常人","word_first",""
"","","","","","html-keyboard-response","328","461712","0.0-13.0-1.0-1.0-0.1-1.83","null","<span style='color:GreenYellow; font-size: 70px;'>正确! </span>","null","","","","","","","","","","","","","","","","","","","","","","","feedback_test"
"","","","","","psychophysics","329","463405","0.0-13.0-1.0-1.0-0.1-0.84","536","","j","","","","","","","","","","","","","key","j","8.327366336633505","768","428","j","true","img/T_ambi40.png","常人","word_first",""
"","","","","","html-keyboard-response","330","463719","0.0-13.0-1.0-1.0-0.1-1.84","null","<span style='color:GreenYellow; font-size: 70px;'>正确! </span>","null","","","","","","","","","","","","","","","","","","","","","","","feedback_test"
"","","","","","psychophysics","331","465360","0.0-13.0-1.0-1.0-0.1-0.85","488","","f","","","","","","","","","","","","","key","f","8.326984693877439","768","428","f","true","img/C_ambi40.png","常人","word_first",""
"","","","","","html-keyboard-response","332","465667","0.0-13.0-1.0-1.0-0.1-1.85","null","<span style='color:GreenYellow; font-size: 70px;'>正确! </span>","null","","","","","","","","","","","","","","","","","","","","","","","feedback_test"
"","","","","","psychophysics","333","467427","0.0-13.0-1.0-1.0-0.1-0.86","603","","f","","","","","","","","","","","","","key","f","8.327257142857084","768","428","f","true","img/T_ambi40.png","坏人","word_first",""
"","","","","","html-keyboard-response","334","467739","0.0-13.0-1.0-1.0-0.1-1.86","null","<span style='color:GreenYellow; font-size: 70px;'>正确! </span>","null","","","","","","","","","","","","","","","","","","","","","","","feedback_test"
"","","","","","psychophysics","335","469396","0.0-13.0-1.0-1.0-0.1-0.87","499","","f","","","","","","","","","","","","","key","f","8.32731979695411","768","428","f","true","img/T_ambi40.png","好人","word_first",""
"","","","","","html-keyboard-response","336","469706","0.0-13.0-1.0-1.0-0.1-1.87","null","<span style='color:GreenYellow; font-size: 70px;'>正确! </span>","null","","","","","","","","","","","","","","","","","","","","","","","feedback_test"
"","","","","","psychophysics","337","471427","0.0-13.0-1.0-1.0-0.1-0.88","565","","f","","","","","","","","","","","","","key","f","8.327604878048708","768","428","f","true","img/S_ambi40.png","常人","word_first",""
"","","","","","html-keyboard-response","338","471744","0.0-13.0-1.0-1.0-0.1-1.88","null","<span style='color:GreenYellow; font-size: 70px;'>正确! </span>","null","","","","","","","","","","","","","","","","","","","","","","","feedback_test"
"","","","","","psychophysics","339","473481","0.0-13.0-1.0-1.0-0.1-0.89","579","","f","","","","","","","","","","","","","key","f","8.328603864734339","768","428","f","true","img/C_ambi40.png","坏人","word_first",""
"","","","","","html-keyboard-response","340","473786","0.0-13.0-1.0-1.0-0.1-1.89","null","<span style='color:GreenYellow; font-size: 70px;'>正确! </span>","null","","","","","","","","","","","","","","","","","","","","","","","feedback_test"
"","","","","","psychophysics","341","475437","0.0-13.0-1.0-1.0-0.1-0.90","495","","f","","","","","","","","","","","","","key","f","8.32725888324859","768","428","j","false","img/S_ambi40.png","坏人","word_first",""
"","","","","","html-keyboard-response","342","475752","0.0-13.0-1.0-1.0-0.1-1.90","null","<span style='color:red; font-size: 70px;'>错误! </span>","null","","","","","","","","","","","","","","","","","","","","","","","feedback_test"
"","","","","","psychophysics","343","477612","0.0-13.0-1.0-1.0-0.1-0.91","705","","f","","","","","","","","","","","","","key","f","8.32819369369368","768","428","f","true","img/S_ambi40.png","好人","word_first",""
"","","","","","html-keyboard-response","344","477921","0.0-13.0-1.0-1.0-0.1-1.91","null","<span style='color:GreenYellow; font-size: 70px;'>正确! </span>","null","","","","","","","","","","","","","","","","","","","","","","","feedback_test"
"","","","","","psychophysics","345","479561","0.0-13.0-1.0-1.0-0.1-0.92","489","","j","","","","","","","","","","","","","key","j","8.295589743589815","768","428","j","true","img/T_ambi40.png","常人","word_first",""
"","","","","","html-keyboard-response","346","479875","0.0-13.0-1.0-1.0-0.1-1.92","null","<span style='color:GreenYellow; font-size: 70px;'>正确! </span>","null","","","","","","","","","","","","","","","","","","","","","","","feedback_test"
"","","","","","psychophysics","347","481668","0.0-13.0-1.0-1.0-0.1-0.93","638","","j","","","","","","","","","","","","","key","j","8.326401869159042","768","428","j","true","img/C_ambi40.png","好人","word_first",""
"","","","","","html-keyboard-response","348","481977","0.0-13.0-1.0-1.0-0.1-1.93","null","<span style='color:GreenYellow; font-size: 70px;'>正确! </span>","null","","","","","","","","","","","","","","","","","","","","","","","feedback_test"
"","","","","","psychophysics","349","483658","0.0-13.0-1.0-1.0-0.1-0.94","529","","j","","","","","","","","","","","","","key","j","8.29915000000008","768","428","j","true","img/C_ambi40.png","好人","word_first",""
"","","","","","html-keyboard-response","350","483965","0.0-13.0-1.0-1.0-0.1-1.94","null","<span style='color:GreenYellow; font-size: 70px;'>正确! </span>","null","","","","","","","","","","","","","","","","","","","","","","","feedback_test"
"","","","","","psychophysics","351","485869","0.0-13.0-1.0-1.0-0.1-0.95","751","","j","","","","","","","","","","","","","key","j","8.326609649122826","768","428","j","true","img/S_ambi40.png","坏人","word_first",""
"","","","","","html-keyboard-response","352","486179","0.0-13.0-1.0-1.0-0.1-1.95","null","<span style='color:GreenYellow; font-size: 70px;'>正确! </span>","null","","","","","","","","","","","","","","","","","","","","","","","feedback_test"
"","","","","","psychophysics","353","487875","0.0-13.0-1.0-1.0-0.1-0.96","541","","f","","","","","","","","","","","","","key","f","8.328133663366316","768","428","f","true","img/T_ambi40.png","坏人","word_first",""
"","","","","","html-keyboard-response","354","488185","0.0-13.0-1.0-1.0-0.1-1.96","null","<span style='color:GreenYellow; font-size: 70px;'>正确! </span>","null","","","","","","","","","","","","","","","","","","","","","","","feedback_test"
"","","","","","psychophysics","355","489863","0.0-13.0-1.0-1.0-0.1-0.97","524","","j","","","","","","","","","","","","","key","j","8.328649999999907","768","428","j","true","img/S_ambi40.png","坏人","word_first",""
"","","","","","html-keyboard-response","356","490176","0.0-13.0-1.0-1.0-0.1-1.97","null","<span style='color:GreenYellow; font-size: 70px;'>正确! </span>","null","","","","","","","","","","","","","","","","","","","","","","","feedback_test"
"","","","","","psychophysics","357","491953","0.0-13.0-1.0-1.0-0.1-0.98","625","","f","","","","","","","","","","","","","key","f","8.327132075471761","768","428","f","true","img/S_ambi40.png","好人","word_first",""
"","","","","","html-keyboard-response","358","492257","0.0-13.0-1.0-1.0-0.1-1.98","null","<span style='color:GreenYellow; font-size: 70px;'>正确! </span>","null","","","","","","","","","","","","","","","","","","","","","","","feedback_test"
"","","","","","psychophysics","359","494083","0.0-13.0-1.0-1.0-0.1-0.99","675","","f","","","","","","","","","","","","","key","f","8.328743119266177","768","428","f","true","img/C_ambi40.png","常人","word_first",""
"","","","","","html-keyboard-response","360","494388","0.0-13.0-1.0-1.0-0.1-1.99","null","<span style='color:GreenYellow; font-size: 70px;'>正确! </span>","null","","","","","","","","","","","","","","","","","","","","","","","feedback_test"
"","","","","","psychophysics","361","496060","0.0-13.0-1.0-1.0-0.1-0.100","517","","j","","","","","","","","","","","","","key","j","8.32699499999988","768","428","j","true","img/C_ambi40.png","好人","word_first",""
"","","","","","html-keyboard-response","362","496374","0.0-13.0-1.0-1.0-0.1-1.100","null","<span style='color:GreenYellow; font-size: 70px;'>正确! </span>","null","","","","","","","","","","","","","","","","","","","","","","","feedback_test"
"","","","","","psychophysics","363","498612","0.0-13.0-1.0-1.0-0.1-0.101","1087","","f","","","","","","","","","","","","","key","f","8.304322097378117","768","428","f","true","img/S_ambi40.png","常人","word_first",""
"","","","","","html-keyboard-response","364","498931","0.0-13.0-1.0-1.0-0.1-1.101","null","<span style='color:GreenYellow; font-size: 70px;'>正确! </span>","null","","","","","","","","","","","","","","","","","","","","","","","feedback_test"
"","","","","","psychophysics","365","500635","0.0-13.0-1.0-1.0-0.1-0.102","545","","j","","","","","","","","","","","","","key","j","8.326906403940999","768","428","j","true","img/S_ambi40.png","坏人","word_first",""
"","","","","","html-keyboard-response","366","500941","0.0-13.0-1.0-1.0-0.1-1.102","null","<span style='color:GreenYellow; font-size: 70px;'>正确! </span>","null","","","","","","","","","","","","","","","","","","","","","","","feedback_test"
"","","","","","psychophysics","367","502731","0.0-13.0-1.0-1.0-0.1-0.103","636","","j","","","","","","","","","","","","","key","j","8.328518691588581","768","428","j","true","img/T_ambi40.png","常人","word_first",""
"","","","","","html-keyboard-response","368","503049","0.0-13.0-1.0-1.0-0.1-1.103","null","<span style='color:GreenYellow; font-size: 70px;'>正确! </span>","null","","","","","","","","","","","","","","","","","","","","","","","feedback_test"
"","","","","","psychophysics","369","504665","0.0-13.0-1.0-1.0-0.1-0.104","464","","j","","","","","","","","","","","","","key","j","8.327471502590623","768","428","j","true","img/T_ambi40.png","常人","word_first",""
"","","","","","html-keyboard-response","370","504971","0.0-13.0-1.0-1.0-0.1-1.104","null","<span style='color:GreenYellow; font-size: 70px;'>正确! </span>","null","","","","","","","","","","","","","","","","","","","","","","","feedback_test"
"","","","","","psychophysics","371","506794","0.0-13.0-1.0-1.0-0.1-0.105","667","","j","","","","","","","","","","","","","key","j","8.325224770642091","768","428","j","true","img/C_ambi40.png","好人","word_first",""
"","","","","","html-keyboard-response","372","507098","0.0-13.0-1.0-1.0-0.1-1.105","null","<span style='color:GreenYellow; font-size: 70px;'>正确! </span>","null","","","","","","","","","","","","","","","","","","","","","","","feedback_test"
"","","","","","psychophysics","373","508789","0.0-13.0-1.0-1.0-0.1-0.106","538","","f","","","","","","","","","","","","","key","f","8.36788613861398","768","428","f","true","img/C_ambi40.png","坏人","word_first",""
"","","","","","html-keyboard-response","374","509111","0.0-13.0-1.0-1.0-0.1-1.106","null","<span style='color:GreenYellow; font-size: 70px;'>正确! </span>","null","","","","","","","","","","","","","","","","","","","","","","","feedback_test"
"","","","","","psychophysics","375","510958","0.0-13.0-1.0-1.0-0.1-0.107","694","","f","","","","","","","","","","","","","key","f","8.328149321267004","768","428","f","true","img/T_ambi40.png","好人","word_first",""
"","","","","","html-keyboard-response","376","511272","0.0-13.0-1.0-1.0-0.1-1.107","null","<span style='color:GreenYellow; font-size: 70px;'>正确! </span>","null","","","","","","","","","","","","","","","","","","","","","","","feedback_test"
"","","","","","psychophysics","377","513058","0.0-13.0-1.0-1.0-0.1-0.108","634","","f","","","","","","","","","","","","","key","f","8.327436619718338","768","428","f","true","img/C_ambi40.png","常人","word_first",""
"","","","","","html-keyboard-response","378","513369","0.0-13.0-1.0-1.0-0.1-1.108","null","<span style='color:GreenYellow; font-size: 70px;'>正确! </span>","null","","","","","","","","","","","","","","","","","","","","","","","feedback_test"
"","","","","","psychophysics","379","515044","0.0-13.0-1.0-1.0-0.1-0.109","523","","j","","","","","","","","","","","","","key","j","8.295698492462225","768","428","j","true","img/S_ambi40.png","坏人","word_first",""
"","","","","","html-keyboard-response","380","515361","0.0-13.0-1.0-1.0-0.1-1.109","null","<span style='color:GreenYellow; font-size: 70px;'>正确! </span>","null","","","","","","","","","","","","","","","","","","","","","","","feedback_test"
"","","","","","psychophysics","381","517020","0.0-13.0-1.0-1.0-0.1-0.110","508","","j","","","","","","","","","","","","","key","j","8.326888888888826","768","428","j","true","img/C_ambi40.png","好人","word_first",""
"","","","","","html-keyboard-response","382","517340","0.0-13.0-1.0-1.0-0.1-1.110","null","<span style='color:GreenYellow; font-size: 70px;'>正确! </span>","null","","","","","","","","","","","","","","","","","","","","","","","feedback_test"
"","","","","","psychophysics","383","519006","0.0-13.0-1.0-1.0-0.1-0.111","514","","f","","","","","","","","","","","","","key","f","8.302570707070632","768","428","j","false","img/T_ambi40.png","常人","word_first",""
"","","","","","html-keyboard-response","384","519318","0.0-13.0-1.0-1.0-0.1-1.111","null","<span style='color:red; font-size: 70px;'>错误! </span>","null","","","","","","","","","","","","","","","","","","","","","","","feedback_test"
"","","","","","psychophysics","385","521179","0.0-13.0-1.0-1.0-0.1-0.112","707","","f","","","","","","","","","","","","","key","f","8.326698198198207","768","428","f","true","img/C_ambi40.png","坏人","word_first",""
"","","","","","html-keyboard-response","386","521497","0.0-13.0-1.0-1.0-0.1-1.112","null","<span style='color:GreenYellow; font-size: 70px;'>正确! </span>","null","","","","","","","","","","","","","","","","","","","","","","","feedback_test"
"","","","","","psychophysics","387","523215","0.0-13.0-1.0-1.0-0.1-0.113","567","","f","","","","","","","","","","","","","key","f","8.326809756097202","768","428","f","true","img/S_ambi40.png","常人","word_first",""
"","","","","","html-keyboard-response","388","523535","0.0-13.0-1.0-1.0-0.1-1.113","null","<span style='color:GreenYellow; font-size: 70px;'>正确! </span>","null","","","","","","","","","","","","","","","","","","","","","","","feedback_test"
"","","","","","psychophysics","389","525256","0.0-13.0-1.0-1.0-0.1-0.114","570","","j","","","","","","","","","","","","","key","j","8.32778155339771","768","428","j","true","img/T_ambi40.png","常人","word_first",""
"","","","","","html-keyboard-response","390","525564","0.0-13.0-1.0-1.0-0.1-1.114","null","<span style='color:GreenYellow; font-size: 70px;'>正确! </span>","null","","","","","","","","","","","","","","","","","","","","","","","feedback_test"
"","","","","","psychophysics","391","527301","0.0-13.0-1.0-1.0-0.1-0.115","582","","j","","","","","","","","","","","","","key","j","8.327004830917604","768","428","j","true","img/S_ambi40.png","坏人","word_first",""
"","","","","","html-keyboard-response","392","527615","0.0-13.0-1.0-1.0-0.1-1.115","null","<span style='color:GreenYellow; font-size: 70px;'>正确! </span>","null","","","","","","","","","","","","","","","","","","","","","","","feedback_test"
"","","","","","psychophysics","393","529233","0.0-13.0-1.0-1.0-0.1-0.116","464","","j","","","","","","","","","","","","","key","j","8.327176165803206","768","428","j","true","img/C_ambi40.png","好人","word_first",""
"","","","","","html-keyboard-response","394","529547","0.0-13.0-1.0-1.0-0.1-1.116","null","<span style='color:GreenYellow; font-size: 70px;'>正确! </span>","null","","","","","","","","","","","","","","","","","","","","","","","feedback_test"
"","","","","","psychophysics","395","531237","0.0-13.0-1.0-1.0-0.1-0.117","538","","f","","","","","","","","","","","","","key","f","8.328876237624145","768","428","f","true","img/T_ambi40.png","坏人","word_first",""
"","","","","","html-keyboard-response","396","531555","0.0-13.0-1.0-1.0-0.1-1.117","null","<span style='color:GreenYellow; font-size: 70px;'>正确! </span>","null","","","","","","","","","","","","","","","","","","","","","","","feedback_test"
"","","","","","psychophysics","397","533217","0.0-13.0-1.0-1.0-0.1-0.118","510","","f","","","","","","","","","","","","","key","f","8.327497487437288","768","428","f","true","img/T_ambi40.png","好人","word_first",""
"","","","","","html-keyboard-response","398","533526","0.0-13.0-1.0-1.0-0.1-1.118","null","<span style='color:GreenYellow; font-size: 70px;'>正确! </span>","null","","","","","","","","","","","","","","","","","","","","","","","feedback_test"
"","","","","","psychophysics","399","535359","0.0-13.0-1.0-1.0-0.1-0.119","679","","f","","","","","","","","","","","","","key","f","8.327027397260567","768","428","f","true","img/S_ambi40.png","好人","word_first",""
"","","","","","html-keyboard-response","400","535668","0.0-13.0-1.0-1.0-0.1-1.119","null","<span style='color:GreenYellow; font-size: 70px;'>正确! </span>","null","","","","","","","","","","","","","","","","","","","","","","","feedback_test"
"","","","","","html-keyboard-response","401","537056","0.0-13.0-1.0-1.0-1.1","1386","<style>.context{color:white; font-size: 35px; line-height:40px}</style>                              <div><p class='context'>您正确回答了95% 的试次。</p><p class='context'>您的平均反应时为586毫秒。</p><p class='context'>请按任意键进入休息</p></div>"," ","","","","","","","","","","","","","","","","","","","","","","",""
"","","","","","html-button-response","402","557743","0.0-13.0-1.0-1.0-2.1","20683","
                      <p>您当前还剩余2组实验</p>
                      <p>现在是休息时间，当您结束休息后，您可以点击 结束休息 按钮 继续</p>
                      <p>建议休息时间还剩余<span id=""iii"">60</span>秒</p>","0","","","","","","","","","","","","","","","","","","","","","","",""
"","","","","","psychophysics","403","559495","0.0-13.0-1.0-1.0-0.2-0.120","600","","f","","","","","","","","","","","","","key","f","8.326779904306319","768","428","f","true","img/T_ambi40.png","好人","word_first",""
"","","","","","html-keyboard-response","404","559815","0.0-13.0-1.0-1.0-0.2-1.120","null","<span style='color:GreenYellow; font-size: 70px;'>正确! </span>","null","","","","","","","","","","","","","","","","","","","","","","","feedback_test"
"","","","","","psychophysics","405","561706","0.0-13.0-1.0-1.0-0.2-0.121","738","","f","","","","","","","","","","","","","key","f","8.36297787610592","768","428","f","true","img/S_ambi40.png","好人","word_first",""
"","","","","","html-keyboard-response","406","562011","0.0-13.0-1.0-1.0-0.2-1.121","null","<span style='color:GreenYellow; font-size: 70px;'>正确! </span>","null","","","","","","","","","","","","","","","","","","","","","","","feedback_test"
"","","","","","psychophysics","407","563683","0.0-13.0-1.0-1.0-0.2-0.122","517","","j","","","","","","","","","","","","","key","j","8.326324999999487","768","428","j","true","img/S_ambi40.png","坏人","word_first",""
"","","","","","html-keyboard-response","408","563996","0.0-13.0-1.0-1.0-0.2-1.122","null","<span style='color:GreenYellow; font-size: 70px;'>正确! </span>","null","","","","","","","","","","","","","","","","","","","","","","","feedback_test"
"","","","","","psychophysics","409","566075","0.0-13.0-1.0-1.0-0.2-0.123","928","","f","","","","","","","","","","","","","key","f","8.327220883534148","768","428","j","false","img/T_ambi40.png","常人","word_first",""
"","","","","","html-keyboard-response","410","566385","0.0-13.0-1.0-1.0-0.2-1.123","null","<span style='color:red; font-size: 70px;'>错误! </span>","null","","","","","","","","","","","","","","","","","","","","","","","feedback_test"
"","","","","","psychophysics","411","567982","0.0-13.0-1.0-1.0-0.2-0.124","444","","j","","","","","","","","","","","","","key","j","8.327125654450413","768","428","j","true","img/T_ambi40.png","常人","word_first",""
"","","","","","html-keyboard-response","412","568302","0.0-13.0-1.0-1.0-0.2-1.124","null","<span style='color:GreenYellow; font-size: 70px;'>正确! </span>","null","","","","","","","","","","","","","","","","","","","","","","","feedback_test"
"","","","","","psychophysics","413","570138","0.0-13.0-1.0-1.0-0.2-0.125","684","","j","","","","","","","","","","","","","key","j","8.326744292237047","768","428","j","true","img/S_ambi40.png","坏人","word_first",""
"","","","","","html-keyboard-response","414","570444","0.0-13.0-1.0-1.0-0.2-1.125","null","<span style='color:GreenYellow; font-size: 70px;'>正确! </span>","null","","","","","","","","","","","","","","","","","","","","","","","feedback_test"
"","","","","","psychophysics","415","572143","0.0-13.0-1.0-1.0-0.2-0.126","543","","f","","","","","","","","","","","","","key","f","8.326788177339846","768","428","f","true","img/C_ambi40.png","常人","word_first",""
"","","","","","html-keyboard-response","416","572449","0.0-13.0-1.0-1.0-0.2-1.126","null","<span style='color:GreenYellow; font-size: 70px;'>正确! </span>","null","","","","","","","","","","","","","","","","","","","","","","","feedback_test"
"","","","","","psychophysics","417","574347","0.0-13.0-1.0-1.0-0.2-0.127","747","","f","","","","","","","","","","","","","key","f","8.300973451327517","768","428","f","true","img/C_ambi40.png","坏人","word_first",""
"","","","","","html-keyboard-response","418","574658","0.0-13.0-1.0-1.0-0.2-1.127","null","<span style='color:GreenYellow; font-size: 70px;'>正确! </span>","null","","","","","","","","","","","","","","","","","","","","","","","feedback_test"
"","","","","","psychophysics","419","576407","0.0-13.0-1.0-1.0-0.2-0.128","592","","j","","","","","","","","","","","","","key","j","8.32699043062208","768","428","j","true","img/C_ambi40.png","好人","word_first",""
"","","","","","html-keyboard-response","420","576725","0.0-13.0-1.0-1.0-0.2-1.128","null","<span style='color:GreenYellow; font-size: 70px;'>正确! </span>","null","","","","","","","","","","","","","","","","","","","","","","","feedback_test"
"","","","","","psychophysics","421","578394","0.0-13.0-1.0-1.0-0.2-0.129","515","","f","","","","","","","","","","","","","key","f","8.32780402010054","768","428","f","true","img/T_ambi40.png","坏人","word_first",""
"","","","","","html-keyboard-response","422","578698","0.0-13.0-1.0-1.0-0.2-1.129","null","<span style='color:GreenYellow; font-size: 70px;'>正确! </span>","null","","","","","","","","","","","","","","","","","","","","","","","feedback_test"
"","","","","","psychophysics","423","580330","0.0-13.0-1.0-1.0-0.2-0.130","477","","j","","","","","","","","","","","","","key","j","8.326964102563663","768","428","j","true","img/C_ambi40.png","好人","word_first",""
"","","","","","html-keyboard-response","424","580640","0.0-13.0-1.0-1.0-0.2-1.130","null","<span style='color:GreenYellow; font-size: 70px;'>正确! </span>","null","","","","","","","","","","","","","","","","","","","","","","","feedback_test"
"","","","","","psychophysics","425","582414","0.0-13.0-1.0-1.0-0.2-0.131","622","","f","","","","","","","","","","","","","key","f","8.327207547169891","768","428","f","true","img/S_ambi40.png","常人","word_first",""
"","","","","","html-keyboard-response","426","582724","0.0-13.0-1.0-1.0-0.2-1.131","null","<span style='color:GreenYellow; font-size: 70px;'>正确! </span>","null","","","","","","","","","","","","","","","","","","","","","","","feedback_test"
"","","","","","psychophysics","427","584534","0.0-13.0-1.0-1.0-0.2-0.132","654","","f","","","","","","","","","","","","","key","f","8.327398148148118","768","428","j","false","img/T_ambi40.png","常人","word_first",""
"","","","","","html-keyboard-response","428","584844","0.0-13.0-1.0-1.0-0.2-1.132","null","<span style='color:red; font-size: 70px;'>错误! </span>","null","","","","","","","","","","","","","","","","","","","","","","","feedback_test"
"","","","","","psychophysics","429","586639","0.0-13.0-1.0-1.0-0.2-0.133","641","","f","","","","","","","","","","","","","key","f","8.327308411214927","768","428","f","true","img/C_ambi40.png","坏人","word_first",""
"","","","","","html-keyboard-response","430","586941","0.0-13.0-1.0-1.0-0.2-1.133","null","<span style='color:GreenYellow; font-size: 70px;'>正确! </span>","null","","","","","","","","","","","","","","","","","","","","","","","feedback_test"
"","","","","","psychophysics","431","588676","0.0-13.0-1.0-1.0-0.2-0.134","579","","j","","","","","","","","","","","","","key","j","8.327256038647194","768","428","j","true","img/S_ambi40.png","坏人","word_first",""
"","","","","","html-keyboard-response","432","588986","0.0-13.0-1.0-1.0-0.2-1.134","null","<span style='color:GreenYellow; font-size: 70px;'>正确! </span>","null","","","","","","","","","","","","","","","","","","","","","","","feedback_test"
"","","","","","psychophysics","433","590710","0.0-13.0-1.0-1.0-0.2-0.135","573","","f","","","","","","","","","","","","","key","f","8.326853658536608","768","428","f","true","img/T_ambi40.png","坏人","word_first",""
