"success","timeout","failed_images","failed_audio","failed_video","trial_type","trial_index","time_elapsed","internal_node_id","rt","stimulus","response","value","item_width_mm","item_height_mm","item_width_px","px2mm","view_dist_mm","item_width_deg","px2deg","scale_factor","win_width_deg","win_height_deg","view_history","response_type","key_press","avg_frame_time","center_x","center_y","correct_response","correct","Image","word","condition","screen_id"
"true","false","[]","[]","[]","preload","0","45","0.0-0.0","","","","","","","","","","","","","","","","","","","","","","","","","",""
"","","","","","html-keyboard-response","1","7890","0.0-1.0","7844","
     <p>您好，欢迎参加本次实验。</p>
     <p>为充分保障您的权利，请确保您已经知晓并同意《参与实验同意书》以及《数据公开知情同意书》。</p>
     <p>如果您未见过上述内容，请咨询实验员。</p>
     <p>如果您选择继续实验，则表示您已经清楚两份知情同意书的内容并同意。</p>
     <p> <div style = ""color: green""><按任意键至下页></div> </p>
     ","arrowdown","","","","","","","","","","","","","","","","","","","","","","",""
"","","","","","html-keyboard-response","2","9347","0.0-2.0","1457","
     <p>本实验首先需要您填写一些基本个人信息。</p>
     <p> <div style = ""color: green""><按任意键至下页></div></p>
     ","arrowleft","","","","","","","","","","","","","","","","","","","","","","",""
"","","","","","call-function","3","9348","0.0-3.0-0.0","","","","","","","","","","","","","","","","","","","","","","","","","",""
"","","","","","survey-html-form","4","16939","0.0-3.0-1.0","7589","","{""Q0"":""21""}","","","","","","","","","","","","","","","","","","","","","","",""
"","","","","","html-button-response","5","17740","0.0-3.0-2.0","801","<p style = 'color : white'>您的性别</p>","0","","","","","","","","","","","","","","","","","","","","","","",""
"","","","","","survey-html-form","6","21030","0.0-3.0-3.0","3290","","{""Q0"":""2001""}","","","","","","","","","","","","","","","","","","","","","","",""
"","","","","","survey-html-form","7","23148","0.0-3.0-4.0","2117","","{""Q0"":""5""}","","","","","","","","","","","","","","","","","","","","","","",""
"","","","","","virtual-chinrest","8","100719","0.0-4.0","77569","","","","85.6","53.98","424.2247054903365","4.95580473925347","577","8.484494109806729","50","1.0230427280239722","33.2","18.96","","","","","","","","","","","",""
"true","","","","","fullscreen","9","106818","0.0-5.0","","","","","","","","","","","","","","","","","","","","","","","","","",""
"","","","","","instructions","10","145873","0.0-6.0","39054","","","","","","","","","","","","","","[{""page_index"":0,""viewing_time"":3150},{""page_index"":1,""viewing_time"":25562},{""page_index"":2,""viewing_time"":8490},{""page_index"":3,""viewing_time"":1852}]","","","","","","","","","","",""
"","","","","","psychophysics","11","148534","0.0-7.0-0.0-0.0","null","","null","","","","","","","","","","","","","key","null","6.121491879350309","853.3333333333334","529.3333333333334","j","false","img/T_ambi40.png","好人","prac_image_first",""
"","","","","","html-keyboard-response","12","148844","0.0-7.0-0.0-1.0","null","<span class='add_' style='color:yellow; font-size: 70px;'> 太慢! </span>","null","","","","","","","","","","","","","","","","","","","","","","","feedback_test"
"","","","","","psychophysics","13","150808","0.0-7.0-0.0-0.1","813","","f","","","","","","","","","","","","","key","f","6.060541795665613","853.3333333333334","529.3333333333334","f","true","img/C_ambi40.png","好人","prac_image_first",""
"","","","","","html-keyboard-response","14","151121","0.0-7.0-0.0-1.1","null","<span style='color:GreenYellow; font-size: 70px;'>正确! </span>","null","","","","","","","","","","","","","","","","","","","","","","","feedback_test"
"","","","","","psychophysics","15","153177","0.0-7.0-0.0-0.2","904","","f","","","","","","","","","","","","","key","f","6.051679525222545","853.3333333333334","529.3333333333334","f","true","img/C_ambi40.png","坏人","prac_image_first",""
"","","","","","html-keyboard-response","16","153482","0.0-7.0-0.0-1.2","null","<span style='color:GreenYellow; font-size: 70px;'>正确! </span>","null","","","","","","","","","","","","","","","","","","","","","","","feedback_test"
"","","","","","psychophysics","17","155616","0.0-7.0-0.0-0.3","979","","f","","","","","","","","","","","","","key","f","6.060504273504256","853.3333333333334","529.3333333333334","f","true","img/T_ambi40.png","常人","prac_image_first",""
"","","","","","html-keyboard-response","18","155921","0.0-7.0-0.0-1.3","null","<span style='color:GreenYellow; font-size: 70px;'>正确! </span>","null","","","","","","","","","","","","","","","","","","","","","","","feedback_test"
"","","","","","psychophysics","19","157557","0.0-7.0-0.0-0.4","484","","j","","","","","","","","","","","","","key","j","6.049558052434525","853.3333333333334","529.3333333333334","j","true","img/C_ambi40.png","常人","prac_image_first",""
"","","","","","html-keyboard-response","20","157866","0.0-7.0-0.0-1.4","null","<span style='color:GreenYellow; font-size: 70px;'>正确! </span>","null","","","","","","","","","","","","","","","","","","","","","","","feedback_test"
"","","","","","psychophysics","21","160121","0.0-7.0-0.0-0.5","1102","","j","","","","","","","","","","","","","key","j","6.052151761517552","853.3333333333334","529.3333333333334","j","true","img/T_ambi40.png","好人","prac_image_first",""
"","","","","","html-keyboard-response","22","160432","0.0-7.0-0.0-1.5","null","<span style='color:GreenYellow; font-size: 70px;'>正确! </span>","null","","","","","","","","","","","","","","","","","","","","","","","feedback_test"
"","","","","","psychophysics","23","162507","0.0-7.0-0.0-0.6","924","","j","","","","","","","","","","","","","key","j","6.060507331378304","853.3333333333334","529.3333333333334","j","true","img/S_ambi40.png","坏人","prac_image_first",""
"","","","","","html-keyboard-response","24","162814","0.0-7.0-0.0-1.6","null","<span style='color:GreenYellow; font-size: 70px;'>正确! </span>","null","","","","","","","","","","","","","","","","","","","","","","","feedback_test"
"","","","","","psychophysics","25","165000","0.0-7.0-0.0-0.7","1029","","f","","","","","","","","","","","","","key","f","6.060484679665758","853.3333333333334","529.3333333333334","f","true","img/S_ambi40.png","常人","prac_image_first",""
"","","","","","html-keyboard-response","26","165316","0.0-7.0-0.0-1.7","null","<span style='color:GreenYellow; font-size: 70px;'>正确! </span>","null","","","","","","","","","","","","","","","","","","","","","","","feedback_test"
"","","","","","psychophysics","27","167690","0.0-7.0-0.0-0.8","1223","","f","","","","","","","","","","","","","key","f","6.060453846153821","853.3333333333334","529.3333333333334","j","false","img/S_ambi40.png","坏人","prac_image_first",""
"","","","","","html-keyboard-response","28","168004","0.0-7.0-0.0-1.8","null","<span style='color:red; font-size: 70px;'>错误! </span>","null","","","","","","","","","","","","","","","","","","","","","","","feedback_test"
"","","","","","psychophysics","29","169790","0.0-7.0-0.0-0.9","632","","f","","","","","","","","","","","","","key","f","6.060554421768757","853.3333333333334","529.3333333333334","f","true","img/T_ambi40.png","坏人","prac_image_first",""
"","","","","","html-keyboard-response","30","170099","0.0-7.0-0.0-1.9","null","<span style='color:GreenYellow; font-size: 70px;'>正确! </span>","null","","","","","","","","","","","","","","","","","","","","","","","feedback_test"
"","","","","","psychophysics","31","171944","0.0-7.0-0.0-0.10","689","","f","","","","","","","","","","","","","key","f","6.060514851485086","853.3333333333334","529.3333333333334","f","true","img/S_ambi40.png","好人","prac_image_first",""
"","","","","","html-keyboard-response","32","172253","0.0-7.0-0.0-1.10","null","<span style='color:GreenYellow; font-size: 70px;'>正确! </span>","null","","","","","","","","","","","","","","","","","","","","","","","feedback_test"
"","","","","","psychophysics","33","174098","0.0-7.0-0.0-0.11","692","","j","","","","","","","","","","","","","key","j","6.060671052631637","853.3333333333334","529.3333333333334","j","true","img/C_ambi40.png","常人","prac_image_first",""
"","","","","","html-keyboard-response","34","174408","0.0-7.0-0.0-1.11","null","<span style='color:GreenYellow; font-size: 70px;'>正确! </span>","null","","","","","","","","","","","","","","","","","","","","","","","feedback_test"
"","","","","","psychophysics","35","176413","0.0-7.0-0.0-0.12","849","","f","","","","","","","","","","","","","key","f","6.060484848484912","853.3333333333334","529.3333333333334","f","true","img/C_ambi40.png","好人","prac_image_first",""
"","","","","","html-keyboard-response","36","176725","0.0-7.0-0.0-1.12","null","<span style='color:GreenYellow; font-size: 70px;'>正确! </span>","null","","","","","","","","","","","","","","","","","","","","","","","feedback_test"
"","","","","","psychophysics","37","178799","0.0-7.0-0.0-0.13","920","","f","","","","","","","","","","","","","key","f","6.060489736070404","853.3333333333334","529.3333333333334","f","true","img/T_ambi40.png","坏人","prac_image_first",""
"","","","","","html-keyboard-response","38","179105","0.0-7.0-0.0-1.13","null","<span style='color:GreenYellow; font-size: 70px;'>正确! </span>","null","","","","","","","","","","","","","","","","","","","","","","","feedback_test"
"","","","","","psychophysics","39","180863","0.0-7.0-0.0-0.14","608","","j","","","","","","","","","","","","","key","j","6.06053979238749","853.3333333333334","529.3333333333334","j","true","img/S_ambi40.png","坏人","prac_image_first",""
"","","","","","html-keyboard-response","40","181170","0.0-7.0-0.0-1.14","null","<span style='color:GreenYellow; font-size: 70px;'>正确! </span>","null","","","","","","","","","","","","","","","","","","","","","","","feedback_test"
"","","","","","psychophysics","41","183232","0.0-7.0-0.0-0.15","911","","j","","","","","","","","","","","","","key","j","6.060486725663645","853.3333333333334","529.3333333333334","f","false","img/T_ambi40.png","常人","prac_image_first",""
"","","","","","html-keyboard-response","42","183534","0.0-7.0-0.0-1.15","null","<span style='color:red; font-size: 70px;'>错误! </span>","null","","","","","","","","","","","","","","","","","","","","","","","feedback_test"
"","","","","","psychophysics","43","185529","0.0-7.0-0.0-0.16","844","","j","","","","","","","","","","","","","key","j","6.060463414634131","853.3333333333334","529.3333333333334","j","true","img/S_ambi40.png","坏人","prac_image_first",""
"","","","","","html-keyboard-response","44","185831","0.0-7.0-0.0-1.16","null","<span style='color:GreenYellow; font-size: 70px;'>正确! </span>","null","","","","","","","","","","","","","","","","","","","","","","","feedback_test"
"","","","","","psychophysics","45","187968","0.0-7.0-0.0-0.17","986","","j","","","","","","","","","","","","","key","j","6.060566951566925","853.3333333333334","529.3333333333334","j","true","img/T_ambi40.png","好人","prac_image_first",""
"","","","","","html-keyboard-response","46","188274","0.0-7.0-0.0-1.17","null","<span style='color:GreenYellow; font-size: 70px;'>正确! </span>","null","","","","","","","","","","","","","","","","","","","","","","","feedback_test"
"","","","","","psychophysics","47","190336","0.0-7.0-0.0-0.18","913","","f","","","","","","","","","","","","","key","f","6.060492625368768","853.3333333333334","529.3333333333334","f","true","img/S_ambi40.png","常人","prac_image_first",""
"","","","","","html-keyboard-response","48","190649","0.0-7.0-0.0-1.18","null","<span style='color:GreenYellow; font-size: 70px;'>正确! </span>","null","","","","","","","","","","","","","","","","","","","","","","","feedback_test"
"","","","","","psychophysics","49","192829","0.0-7.0-0.0-0.19","1030","","j","","","","","","","","","","","","","key","j","6.060536312849138","853.3333333333334","529.3333333333334","j","true","img/T_ambi40.png","好人","prac_image_first",""
"","","","","","html-keyboard-response","50","193134","0.0-7.0-0.0-1.19","null","<span style='color:GreenYellow; font-size: 70px;'>正确! </span>","null","","","","","","","","","","","","","","","","","","","","","","","feedback_test"
"","","","","","psychophysics","51","195519","0.0-7.0-0.0-0.20","1235","","f","","","","","","","","","","","","","key","f","6.0605051020408","853.3333333333334","529.3333333333334","f","true","img/S_ambi40.png","好人","prac_image_first",""
"","","","","","html-keyboard-response","52","195826","0.0-7.0-0.0-1.20","null","<span style='color:GreenYellow; font-size: 70px;'>正确! </span>","null","","","","","","","","","","","","","","","","","","","","","","","feedback_test"
"","","","","","psychophysics","53","197762","0.0-7.0-0.0-0.21","781","","j","","","","","","","","","","","","","key","j","6.060487421383604","853.3333333333334","529.3333333333334","j","true","img/C_ambi40.png","常人","prac_image_first",""
"","","","","","html-keyboard-response","54","198074","0.0-7.0-0.0-1.21","null","<span style='color:GreenYellow; font-size: 70px;'>正确! </span>","null","","","","","","","","","","","","","","","","","","","","","","","feedback_test"
"","","","","","psychophysics","55","199862","0.0-7.0-0.0-0.22","637","","j","","","","","","","","","","","","","key","j","6.060350340136112","853.3333333333334","529.3333333333334","j","true","img/C_ambi40.png","常人","prac_image_first",""
"","","","","","html-keyboard-response","56","200172","0.0-7.0-0.0-1.22","null","<span style='color:GreenYellow; font-size: 70px;'>正确! </span>","null","","","","","","","","","","","","","","","","","","","","","","","feedback_test"
"","","","","","psychophysics","57","201981","0.0-7.0-0.0-0.23","654","","f","","","","","","","","","","","","","key","f","6.060420875420899","853.3333333333334","529.3333333333334","f","true","img/C_ambi40.png","坏人","prac_image_first",""
"","","","","","html-keyboard-response","58","202283","0.0-7.0-0.0-1.23","null","<span style='color:GreenYellow; font-size: 70px;'>正确! </span>","null","","","","","","","","","","","","","","","","","","","","","","","feedback_test"
"","","","","","html-keyboard-response","59","212173","0.0-8.0","9888","<style>.context{color:white; font-size: 35px; line-height:40px}</style>                              <div><p class='context'>您正确回答了88% 的试次。</p><p class='context'>您的平均反应时为843毫秒。</p><p class='context'>恭喜您完成这一阶段的练习。按任意键进入<span style='color: yellow;'>先文字后图形条件</span>的练习。</p></div>","f","","","","","","","","","","","","","","","","","","","","","","",""
"","","","","","psychophysics","60","214022","0.0-9.0-0.0-0.0","695","","j","","","","","","","","","","","","","key","j","6.1208172757474415","853.3333333333334","529.3333333333334","j","true","img/C_ambi40.png","常人","prac_word_first",""
"","","","","","html-keyboard-response","61","214335","0.0-9.0-0.0-1.0","null","<span style='color:GreenYellow; font-size: 70px;'>正确! </span>","null","","","","","","","","","","","","","","","","","","","","","","","feedback_test"
"","","","","","psychophysics","62","216604","0.0-9.0-0.0-0.1","1114","","f","","","","","","","","","","","","","key","f","6.060501340482601","853.3333333333334","529.3333333333334","f","true","img/C_ambi40.png","好人","prac_word_first",""
"","","","","","html-keyboard-response","63","216907","0.0-9.0-0.0-1.1","null","<span style='color:GreenYellow; font-size: 70px;'>正确! </span>","null","","","","","","","","","","","","","","","","","","","","","","","feedback_test"
"","","","","","psychophysics","64","218669","0.0-9.0-0.0-0.2","609","","j","","","","","","","","","","","","","key","j","6.060455172413816","853.3333333333334","529.3333333333334","f","false","img/T_ambi40.png","常人","prac_word_first",""
"","","","","","html-keyboard-response","65","218972","0.0-9.0-0.0-1.2","null","<span style='color:red; font-size: 70px;'>错误! </span>","null","","","","","","","","","","","","","","","","","","","","","","","feedback_test"
"","","","","","psychophysics","66","220859","0.0-9.0-0.0-0.3","733","","f","","","","","","","","","","","","","key","f","6.060445161290268","853.3333333333334","529.3333333333334","f","true","img/S_ambi40.png","好人","prac_word_first",""
"","","","","","html-keyboard-response","67","221174","0.0-9.0-0.0-1.3","null","<span style='color:GreenYellow; font-size: 70px;'>正确! </span>","null","","","","","","","","","","","","","","","","","","","","","","","feedback_test"
"","","","","","psychophysics","68","222996","0.0-9.0-0.0-0.4","669","","f","","","","","","","","","","","","","key","f","6.074747474747416","853.3333333333334","529.3333333333334","f","true","img/S_ambi40.png","常人","prac_word_first",""
"","","","","","html-keyboard-response","69","223301","0.0-9.0-0.0-1.4","null","<span style='color:GreenYellow; font-size: 70px;'>正确! </span>","null","","","","","","","","","","","","","","","","","","","","","","","feedback_test"
"","","","","","psychophysics","70","225238","0.0-9.0-0.0-0.5","785","","j","","","","","","","","","","","","","key","j","6.060534591194968","853.3333333333334","529.3333333333334","j","true","img/T_ambi40.png","好人","prac_word_first",""
"","","","","","html-keyboard-response","71","225540","0.0-9.0-0.0-1.5","null","<span style='color:GreenYellow; font-size: 70px;'>正确! </span>","null","","","","","","","","","","","","","","","","","","","","","","","feedback_test"
"","","","","","psychophysics","72","227517","0.0-9.0-0.0-0.6","821","","f","","","","","","","","","","","","","key","f","6.06037230769235","853.3333333333334","529.3333333333334","j","false","img/T_ambi40.png","好人","prac_word_first",""
"","","","","","html-keyboard-response","73","227820","0.0-9.0-0.0-1.6","null","<span style='color:red; font-size: 70px;'>错误! </span>","null","","","","","","","","","","","","","","","","","","","","","","","feedback_test"
"","","","","","psychophysics","74","229796","0.0-9.0-0.0-0.7","823","","j","","","","","","","","","","","","","key","j","6.060486153846231","853.3333333333334","529.3333333333334","j","true","img/C_ambi40.png","常人","prac_word_first",""
"","","","","","html-keyboard-response","75","230112","0.0-9.0-0.0-1.7","null","<span style='color:GreenYellow; font-size: 70px;'>正确! </span>","null","","","","","","","","","","","","","","","","","","","","","","","feedback_test"
"","","","","","psychophysics","76","232075","0.0-9.0-0.0-0.8","810","","j","","","","","","","","","","","","","key","j","6.060445820433362","853.3333333333334","529.3333333333334","j","true","img/S_ambi40.png","坏人","prac_word_first",""
"","","","","","html-keyboard-response","77","232379","0.0-9.0-0.0-1.8","null","<span style='color:GreenYellow; font-size: 70px;'>正确! </span>","null","","","","","","","","","","","","","","","","","","","","","","","feedback_test"
"","","","","","psychophysics","78","234194","0.0-9.0-0.0-0.9","662","","f","","","","","","","","","","","","","key","f","6.060488294314318","853.3333333333334","529.3333333333334","f","true","img/C_ambi40.png","坏人","prac_word_first",""
"","","","","","html-keyboard-response","79","234506","0.0-9.0-0.0-1.9","null","<span style='color:GreenYellow; font-size: 70px;'>正确! </span>","null","","","","","","","","","","","","","","","","","","","","","","","feedback_test"
"","","","","","psychophysics","80","236472","0.0-9.0-0.0-0.10","813","","f","","","","","","","","","","","","","key","f","6.060413580246893","853.3333333333334","529.3333333333334","f","true","img/T_ambi40.png","坏人","prac_word_first",""
"","","","","","html-keyboard-response","81","236787","0.0-9.0-0.0-1.10","null","<span style='color:GreenYellow; font-size: 70px;'>正确! </span>","null","","","","","","","","","","","","","","","","","","","","","","","feedback_test"
"","","","","","psychophysics","82","239073","0.0-9.0-0.0-0.11","1135","","f","","","","","","","","","","","","","key","f","6.060553191489391","853.3333333333334","529.3333333333334","j","false","img/S_ambi40.png","坏人","prac_word_first",""
"","","","","","html-keyboard-response","83","239378","0.0-9.0-0.0-1.11","null","<span style='color:red; font-size: 70px;'>错误! </span>","null","","","","","","","","","","","","","","","","","","","","","","","feedback_test"
"","","","","","psychophysics","84","241130","0.0-9.0-0.0-0.12","598","","j","","","","","","","","","","","","","key","j","6.060434027777774","853.3333333333334","529.3333333333334","j","true","img/T_ambi40.png","好人","prac_word_first",""
"","","","","","html-keyboard-response","85","241441","0.0-9.0-0.0-1.12","null","<span style='color:GreenYellow; font-size: 70px;'>正确! </span>","null","","","","","","","","","","","","","","","","","","","","","","","feedback_test"
"","","","","","psychophysics","86","243659","0.0-9.0-0.0-0.13","1067","","j","","","","","","","","","","","","","key","j","6.06045329670323","853.3333333333334","529.3333333333334","j","true","img/T_ambi40.png","好人","prac_word_first",""
"","","","","","html-keyboard-response","87","243970","0.0-9.0-0.0-1.13","null","<span style='color:GreenYellow; font-size: 70px;'>正确! </span>","null","","","","","","","","","","","","","","","","","","","","","","","feedback_test"
"","","","","","psychophysics","88","245850","0.0-9.0-0.0-0.14","727","","f","","","","","","","","","","","","","key","f","6.0605210355987085","853.3333333333334","529.3333333333334","f","true","img/S_ambi40.png","好人","prac_word_first",""
"","","","","","html-keyboard-response","89","246163","0.0-9.0-0.0-1.14","null","<span style='color:GreenYellow; font-size: 70px;'>正确! </span>","null","","","","","","","","","","","","","","","","","","","","","","","feedback_test"
"","","","","","psychophysics","90","248181","0.0-9.0-0.0-0.15","868","","f","","","","","","","","","","","","","key","f","6.06041566265066","853.3333333333334","529.3333333333334","f","true","img/T_ambi40.png","常人","prac_word_first",""
"","","","","","html-keyboard-response","91","248492","0.0-9.0-0.0-1.15","null","<span style='color:GreenYellow; font-size: 70px;'>正确! </span>","null","","","","","","","","","","","","","","","","","","","","","","","feedback_test"
"","","","","","psychophysics","92","250514","0.0-9.0-0.0-0.16","872","","f","","","","","","","","","","","","","key","f","6.060531531531551","853.3333333333334","529.3333333333334","j","false","img/C_ambi40.png","常人","prac_word_first",""
"","","","","","html-keyboard-response","93","250826","0.0-9.0-0.0-1.16","null","<span style='color:red; font-size: 70px;'>错误! </span>","null","","","","","","","","","","","","","","","","","","","","","","","feedback_test"
"","","","","","psychophysics","94","252525","0.0-9.0-0.0-0.17","545","","j","","","","","","","","","","","","","key","j","6.060383512544835","853.3333333333334","529.3333333333334","f","false","img/C_ambi40.png","坏人","prac_word_first",""
"","","","","","html-keyboard-response","95","252833","0.0-9.0-0.0-1.17","null","<span style='color:red; font-size: 70px;'>错误! </span>","null","","","","","","","","","","","","","","","","","","","","","","","feedback_test"
"","","","","","psychophysics","96","254501","0.0-9.0-0.0-0.18","514","","j","","","","","","","","","","","","","key","j","6.0605912408759615","853.3333333333334","529.3333333333334","j","true","img/S_ambi40.png","坏人","prac_word_first",""
"","","","","","html-keyboard-response","97","254807","0.0-9.0-0.0-1.18","null","<span style='color:GreenYellow; font-size: 70px;'>正确! </span>","null","","","","","","","","","","","","","","","","","","","","","","","feedback_test"
"","","","","","psychophysics","98","256834","0.0-9.0-0.0-0.19","876","","f","","","","","","","","","","","","","key","f","6.0606276276275795","853.3333333333334","529.3333333333334","f","true","img/C_ambi40.png","好人","prac_word_first",""
"","","","","","html-keyboard-response","99","257136","0.0-9.0-0.0-1.19","null","<span style='color:GreenYellow; font-size: 70px;'>正确! </span>","null","","","","","","","","","","","","","","","","","","","","","","","feedback_test"
"","","","","","psychophysics","100","259112","0.0-9.0-0.0-0.20","823","","j","","","","","","","","","","","","","key","j","6.060452307692299","853.3333333333334","529.3333333333334","j","true","img/C_ambi40.png","常人","prac_word_first",""
"","","","","","html-keyboard-response","101","259427","0.0-9.0-0.0-1.20","null","<span style='color:GreenYellow; font-size: 70px;'>正确! </span>","null","","","","","","","","","","","","","","","","","","","","","","","feedback_test"
"","","","","","psychophysics","102","261605","0.0-9.0-0.0-0.21","1025","","f","","","","","","","","","","","","","key","f","6.060484679665758","853.3333333333334","529.3333333333334","f","true","img/T_ambi40.png","坏人","prac_word_first",""
"","","","","","html-keyboard-response","103","261906","0.0-9.0-0.0-1.21","null","<span style='color:GreenYellow; font-size: 70px;'>正确! </span>","null","","","","","","","","","","","","","","","","","","","","","","","feedback_test"
"","","","","","psychophysics","104","263741","0.0-9.0-0.0-0.22","682","","j","","","","","","","","","","","","","key","j","6.051923333333301","853.3333333333334","529.3333333333334","j","true","img/S_ambi40.png","坏人","prac_word_first",""
"","","","","","html-keyboard-response","105","264051","0.0-9.0-0.0-1.22","null","<span style='color:GreenYellow; font-size: 70px;'>正确! </span>","null","","","","","","","","","","","","","","","","","","","","","","","feedback_test"
"","","","","","psychophysics","106","266020","0.0-9.0-0.0-0.23","818","","f","","","","","","","","","","","","","key","f","6.060432098765303","853.3333333333334","529.3333333333334","f","true","img/S_ambi40.png","常人","prac_word_first",""
"","","","","","html-keyboard-response","107","266325","0.0-9.0-0.0-1.23","null","<span style='color:GreenYellow; font-size: 70px;'>正确! </span>","null","","","","","","","","","","","","","","","","","","","","","","","feedback_test"
"","","","","","html-keyboard-response","108","269175","0.0-10.0","2849","<style>.context{color:white; font-size: 35px; line-height:40px}</style>                              <div><p class='context'>您正确回答了79% 的试次。</p><p class='context'>您的平均反应时为795毫秒。</p><p class='context'>恭喜您完成练习。按任意键进入<span style='color: yellow;'>图形和文字同时呈现条件</span>的练习。</p></div>"," ","","","","","","","","","","","","","","","","","","","","","","",""
"","","","","","psychophysics","109","271683","0.0-11.0-0.0-0.0","null","","null","","","","","","","","","","","","","key","null","6.06043932038838","853.3333333333334","529.3333333333334","f","false","img/S_ambi40.png","好人","prac_simultaneous",""
"","","","","","html-keyboard-response","110","271999","0.0-11.0-0.0-1.0","null","<span class='add_' style='color:yellow; font-size: 70px;'> 太慢! </span>","null","","","","","","","","","","","","","","","","","","","","","","","feedback_test"
"","","","","","psychophysics","111","273990","0.0-11.0-0.0-0.1","986","","f","","","","","","","","","","","","","key","f","6.0604220183485396","853.3333333333334","529.3333333333334","f","true","img/S_ambi40.png","常人","prac_simultaneous",""
"","","","","","html-keyboard-response","112","274295","0.0-11.0-0.0-1.1","null","<span style='color:GreenYellow; font-size: 70px;'>正确! </span>","null","","","","","","","","","","","","","","","","","","","","","","","feedback_test"
"","","","","","psychophysics","113","276269","0.0-11.0-0.0-0.2","974","","j","","","","","","","","","","","","","key","j","6.060484567901082","853.3333333333334","529.3333333333334","f","false","img/C_ambi40.png","好人","prac_simultaneous",""
"","","","","","html-keyboard-response","114","276579","0.0-11.0-0.0-1.2","null","<span style='color:red; font-size: 70px;'>错误! </span>","null","","","","","","","","","","","","","","","","","","","","","","","feedback_test"
"","","","","","psychophysics","115","278369","0.0-11.0-0.0-0.3","789","","j","","","","","","","","","","","","","key","j","6.052662116040932","853.3333333333334","529.3333333333334","j","true","img/C_ambi40.png","常人","prac_simultaneous",""
"","","","","","html-keyboard-response","116","278673","0.0-11.0-0.0-1.3","null","<span style='color:GreenYellow; font-size: 70px;'>正确! </span>","null","","","","","","","","","","","","","","","","","","","","","","","feedback_test"
"","","","","","psychophysics","117","280417","0.0-11.0-0.0-0.4","740","","f","","","","","","","","","","","","","key","f","6.060529616724851","853.3333333333334","529.3333333333334","f","true","img/C_ambi40.png","坏人","prac_simultaneous",""
"","","","","","html-keyboard-response","118","280719","0.0-11.0-0.0-1.4","null","<span style='color:GreenYellow; font-size: 70px;'>正确! </span>","null","","","","","","","","","","","","","","","","","","","","","","","feedback_test"
"","","","","","psychophysics","119","282428","0.0-11.0-0.0-0.5","708","","j","","","","","","","","","","","","","key","j","6.060539285714289","853.3333333333334","529.3333333333334","j","true","img/T_ambi40.png","好人","prac_simultaneous",""
"","","","","","html-keyboard-response","120","282743","0.0-11.0-0.0-1.5","null","<span style='color:GreenYellow; font-size: 70px;'>正确! </span>","null","","","","","","","","","","","","","","","","","","","","","","","feedback_test"
"","","","","","psychophysics","121","284724","0.0-11.0-0.0-0.6","981","","f","","","","","","","","","","","","","key","f","6.060519999999983","853.3333333333334","529.3333333333334","f","true","img/T_ambi40.png","坏人","prac_simultaneous",""
"","","","","","html-keyboard-response","122","285037","0.0-11.0-0.0-1.6","null","<span style='color:GreenYellow; font-size: 70px;'>正确! </span>","null","","","","","","","","","","","","","","","","","","","","","","","feedback_test"
"","","","","","psychophysics","123","286824","0.0-11.0-0.0-0.7","784","","j","","","","","","","","","","","","","key","j","6.060479591836793","853.3333333333334","529.3333333333334","j","true","img/S_ambi40.png","坏人","prac_simultaneous",""
"","","","","","html-keyboard-response","124","287136","0.0-11.0-0.0-1.7","null","<span style='color:GreenYellow; font-size: 70px;'>正确! </span>","null","","","","","","","","","","","","","","","","","","","","","","","feedback_test"
"","","","","","psychophysics","125","288781","0.0-11.0-0.0-0.8","644","","j","","","","","","","","","","","","","key","j","6.060380073800783","853.3333333333334","529.3333333333334","j","true","img/S_ambi40.png","坏人","prac_simultaneous",""
"","","","","","html-keyboard-response","126","289091","0.0-11.0-0.0-1.8","null","<span style='color:GreenYellow; font-size: 70px;'>正确! </span>","null","","","","","","","","","","","","","","","","","","","","","","","feedback_test"
"","","","","","psychophysics","127","291097","0.0-11.0-0.0-0.9","1002","","f","","","","","","","","","","","","","key","f","6.060533333333231","853.3333333333334","529.3333333333334","f","true","img/T_ambi40.png","常人","prac_simultaneous",""
"","","","","","html-keyboard-response","128","291408","0.0-11.0-0.0-1.9","null","<span style='color:GreenYellow; font-size: 70px;'>正确! </span>","null","","","","","","","","","","","","","","","","","","","","","","","feedback_test"
"","","","","","psychophysics","129","293339","0.0-11.0-0.0-0.10","929","","j","","","","","","","","","","","","","key","j","6.060427672956021","853.3333333333334","529.3333333333334","j","true","img/T_ambi40.png","好人","prac_simultaneous",""
"","","","","","html-keyboard-response","130","293646","0.0-11.0-0.0-1.10","null","<span style='color:GreenYellow; font-size: 70px;'>正确! </span>","null","","","","","","","","","","","","","","","","","","","","","","","feedback_test"
"","","","","","psychophysics","131","295422","0.0-11.0-0.0-0.11","776","","j","","","","","","","","","","","","","key","j","6.050216494845202","853.3333333333334","529.3333333333334","j","true","img/C_ambi40.png","常人","prac_simultaneous",""
"","","","","","html-keyboard-response","132","295723","0.0-11.0-0.0-1.11","null","<span style='color:GreenYellow; font-size: 70px;'>正确! </span>","null","","","","","","","","","","","","","","","","","","","","","","","feedback_test"
"","","","","","psychophysics","133","297915","0.0-11.0-0.0-0.12","1190","","f","","","","","","","","","","","","","key","f","6.060465373961323","853.3333333333334","529.3333333333334","f","true","img/S_ambi40.png","常人","prac_simultaneous",""
"","","","","","html-keyboard-response","134","298223","0.0-11.0-0.0-1.12","null","<span style='color:GreenYellow; font-size: 70px;'>正确! </span>","null","","","","","","","","","","","","","","","","","","","","","","","feedback_test"
"","","","","","psychophysics","135","300212","0.0-11.0-0.0-0.13","984","","f","","","","","","","","","","","","","key","f","6.060541284403555","853.3333333333334","529.3333333333334","f","true","img/C_ambi40.png","好人","prac_simultaneous",""
"","","","","","html-keyboard-response","136","300526","0.0-11.0-0.0-1.13","null","<span style='color:GreenYellow; font-size: 70px;'>正确! </span>","null","","","","","","","","","","","","","","","","","","","","","","","feedback_test"
"","","","","","psychophysics","137","302278","0.0-11.0-0.0-0.14","747","","f","","","","","","","","","","","","","key","f","6.060513888888939","853.3333333333334","529.3333333333334","f","true","img/S_ambi40.png","好人","prac_simultaneous",""
"","","","","","html-keyboard-response","138","302584","0.0-11.0-0.0-1.14","null","<span style='color:GreenYellow; font-size: 70px;'>正确! </span>","null","","","","","","","","","","","","","","","","","","","","","","","feedback_test"
"","","","","","psychophysics","139","304450","0.0-11.0-0.0-0.15","863","","j","","","","","","","","","","","","","key","j","6.0536721311475254","853.3333333333334","529.3333333333334","j","true","img/C_ambi40.png","常人","prac_simultaneous",""
"","","","","","html-keyboard-response","140","304755","0.0-11.0-0.0-1.15","null","<span style='color:GreenYellow; font-size: 70px;'>正确! </span>","null","","","","","","","","","","","","","","","","","","","","","","","feedback_test"
"","","","","","psychophysics","141","306406","0.0-11.0-0.0-0.16","651","","f","","","","","","","","","","","","","key","f","6.0478185185186","853.3333333333334","529.3333333333334","j","false","img/T_ambi40.png","好人","prac_simultaneous",""
"","","","","","html-keyboard-response","142","306710","0.0-11.0-0.0-1.16","null","<span style='color:red; font-size: 70px;'>错误! </span>","null","","","","","","","","","","","","","","","","","","","","","","","feedback_test"
"","","","","","psychophysics","143","308845","0.0-11.0-0.0-0.17","1133","","j","","","","","","","","","","","","","key","j","6.0604472934473055","853.3333333333334","529.3333333333334","j","true","img/S_ambi40.png","坏人","prac_simultaneous",""
"","","","","","html-keyboard-response","144","309148","0.0-11.0-0.0-1.17","null","<span style='color:GreenYellow; font-size: 70px;'>正确! </span>","null","","","","","","","","","","","","","","","","","","","","","","","feedback_test"
"","","","","","psychophysics","145","310821","0.0-11.0-0.0-0.18","672","","f","","","","","","","","","","","","","key","f","6.060476363636342","853.3333333333334","529.3333333333334","f","true","img/T_ambi40.png","坏人","prac_simultaneous",""
"","","","","","html-keyboard-response","146","311136","0.0-11.0-0.0-1.18","null","<span style='color:GreenYellow; font-size: 70px;'>正确! </span>","null","","","","","","","","","","","","","","","","","","","","","","","feedback_test"
"","","","","","psychophysics","147","312958","0.0-11.0-0.0-0.19","821","","f","","","","","","","","","","","","","key","f","6.0518322147650885","853.3333333333334","529.3333333333334","f","true","img/C_ambi40.png","坏人","prac_simultaneous",""
"","","","","","html-keyboard-response","148","313266","0.0-11.0-0.0-1.19","null","<span style='color:GreenYellow; font-size: 70px;'>正确! </span>","null","","","","","","","","","","","","","","","","","","","","","","","feedback_test"
"","","","","","psychophysics","149","315148","0.0-11.0-0.0-0.20","877","","j","","","","","","","","","","","","","key","j","6.060469255663423","853.3333333333334","529.3333333333334","j","true","img/T_ambi40.png","好人","prac_simultaneous",""
"","","","","","html-keyboard-response","150","315460","0.0-11.0-0.0-1.20","null","<span style='color:GreenYellow; font-size: 70px;'>正确! </span>","null","","","","","","","","","","","","","","","","","","","","","","","feedback_test"
"","","","","","psychophysics","151","317159","0.0-11.0-0.0-0.21","694","","j","","","","","","","","","","","","","key","j","6.0605340501793","853.3333333333334","529.3333333333334","j","true","img/S_ambi40.png","坏人","prac_simultaneous",""
"","","","","","html-keyboard-response","152","317463","0.0-11.0-0.0-1.21","null","<span style='color:GreenYellow; font-size: 70px;'>正确! </span>","null","","","","","","","","","","","","","","","","","","","","","","","feedback_test"
"","","","","","psychophysics","153","319151","0.0-11.0-0.0-0.22","687","","j","","","","","","","","","","","","","key","j","6.060446043165481","853.3333333333334","529.3333333333334","j","true","img/C_ambi40.png","常人","prac_simultaneous",""
"","","","","","html-keyboard-response","154","319453","0.0-11.0-0.0-1.22","null","<span style='color:GreenYellow; font-size: 70px;'>正确! </span>","null","","","","","","","","","","","","","","","","","","","","","","","feedback_test"
"","","","","","psychophysics","155","321520","0.0-11.0-0.0-0.23","1062","","f","","","","","","","","","","","","","key","f","6.060385294117697","853.3333333333334","529.3333333333334","f","true","img/T_ambi40.png","常人","prac_simultaneous",""
"","","","","","html-keyboard-response","156","321835","0.0-11.0-0.0-1.23","null","<span style='color:GreenYellow; font-size: 70px;'>正确! </span>","null","","","","","","","","","","","","","","","","","","","","","","","feedback_test"
"","","","","","html-keyboard-response","157","331944","0.0-12.0","10108","<style>.context{color:white; font-size: 35px; line-height:40px}</style>                              <div><p class='context'>您正确回答了88% 的试次。</p><p class='context'>您的平均反应时为860毫秒。</p><p class='context'>恭喜您完成练习。按任意键进入正式实验。</p><p class='footer' style='font-size: 35px; line-height:40px;'>请在进入正式实验实验之前将您的<span style='color: lightgreen;'>食指</span>放在电脑键盘的相应键位上进行按键。</p>"," ","","","","","","","","","","","","","","","","","","","","","","",""
"","","","","","html-keyboard-response","158","334723","0.0-13.0-1.0-0.0","2774","
      <p>请您将手指放在按键上，准备进入呈现顺序为<span style='color: yellow;'>先文字后图形条件</span>的正式匹配任务</p>
      <p> <div style = ""color: green""><按任意键进入下一阶段的匹配任务></div></p>
      "," ","","","","","","","","","","","","","","","","","","","","","","",""
"","","","","","psychophysics","159","336430","0.0-13.0-1.0-1.0-0.0-0.0","553","","j","","","","","","","","","","","","","key","j","6.170159420289987","853.3333333333334","529.3333333333334","j","true","img/S_ambi40.png","坏人","word_first",""
"","","","","","html-keyboard-response","160","336737","0.0-13.0-1.0-1.0-0.0-1.0","null","<span style='color:GreenYellow; font-size: 70px;'>正确! </span>","null","","","","","","","","","","","","","","","","","","","","","","","feedback_test"
"","","","","","psychophysics","161","338690","0.0-13.0-1.0-1.0-0.0-0.1","802","","f","","","","","","","","","","","","","key","f","6.060489096573077","853.3333333333334","529.3333333333334","f","true","img/T_ambi40.png","常人","word_first",""
"","","","","","html-keyboard-response","162","338994","0.0-13.0-1.0-1.0-0.0-1.1","null","<span style='color:GreenYellow; font-size: 70px;'>正确! </span>","null","","","","","","","","","","","","","","","","","","","","","","","feedback_test"
"","","","","","psychophysics","163","340702","0.0-13.0-1.0-1.0-0.0-0.2","553","","j","","","","","","","","","","","","","key","j","6.060729537366556","853.3333333333334","529.3333333333334","j","true","img/S_ambi40.png","坏人","word_first",""
"","","","","","html-keyboard-response","164","341009","0.0-13.0-1.0-1.0-0.0-1.2","null","<span style='color:GreenYellow; font-size: 70px;'>正确! </span>","null","","","","","","","","","","","","","","","","","","","","","","","feedback_test"
"","","","","","psychophysics","165","342642","0.0-13.0-1.0-1.0-0.0-0.3","475","","j","","","","","","","","","","","","","key","j","6.060492537313431","853.3333333333334","529.3333333333334","j","true","img/C_ambi40.png","常人","word_first",""
"","","","","","html-keyboard-response","166","342953","0.0-13.0-1.0-1.0-0.0-1.3","null","<span style='color:GreenYellow; font-size: 70px;'>正确! </span>","null","","","","","","","","","","","","","","","","","","","","","","","feedback_test"
"","","","","","psychophysics","167","344653","0.0-13.0-1.0-1.0-0.0-0.4","546","","f","","","","","","","","","","","","","key","f","6.0605250000001565","853.3333333333334","529.3333333333334","f","true","img/C_ambi40.png","坏人","word_first",""
"","","","","","html-keyboard-response","168","344962","0.0-13.0-1.0-1.0-0.0-1.4","null","<span style='color:GreenYellow; font-size: 70px;'>正确! </span>","null","","","","","","","","","","","","","","","","","","","","","","","feedback_test"
"","","","","","psychophysics","169","346770","0.0-13.0-1.0-1.0-0.0-0.5","658","","f","","","","","","","","","","","","","key","f","6.06058922558921","853.3333333333334","529.3333333333334","f","true","img/S_ambi40.png","常人","word_first",""
"","","","","","html-keyboard-response","170","347087","0.0-13.0-1.0-1.0-0.0-1.5","null","<span style='color:GreenYellow; font-size: 70px;'>正确! </span>","null","","","","","","","","","","","","","","","","","","","","","","","feedback_test"
"","","","","","psychophysics","171","348871","0.0-13.0-1.0-1.0-0.0-0.6","631","","f","","","","","","","","","","","","","key","f","6.053753424657521","853.3333333333334","529.3333333333334","j","false","img/T_ambi40.png","好人","word_first",""
"","","","","","html-keyboard-response","172","349184","0.0-13.0-1.0-1.0-0.0-1.6","null","<span style='color:red; font-size: 70px;'>错误! </span>","null","","","","","","","","","","","","","","","","","","","","","","","feedback_test"
"","","","","","psychophysics","173","350972","0.0-13.0-1.0-1.0-0.0-0.7","635","","f","","","","","","","","","","","","","key","f","6.060517006802577","853.3333333333334","529.3333333333334","f","true","img/C_ambi40.png","好人","word_first",""
"","","","","","html-keyboard-response","174","351285","0.0-13.0-1.0-1.0-0.0-1.7","null","<span style='color:GreenYellow; font-size: 70px;'>正确! </span>","null","","","","","","","","","","","","","","","","","","","","","","","feedback_test"
"","","","","","psychophysics","175","353036","0.0-13.0-1.0-1.0-0.0-0.8","600","","f","","","","","","","","","","","","","key","f","6.060482638888869","853.3333333333334","529.3333333333334","f","true","img/S_ambi40.png","好人","word_first",""
"","","","","","html-keyboard-response","176","353338","0.0-13.0-1.0-1.0-0.0-1.8","null","<span style='color:GreenYellow; font-size: 70px;'>正确! </span>","null","","","","","","","","","","","","","","","","","","","","","","","feedback_test"
"","","","","","psychophysics","177","355101","0.0-13.0-1.0-1.0-0.0-0.9","607","","j","","","","","","","","","","","","","key","j","6.060662068965532","853.3333333333334","529.3333333333334","j","true","img/T_ambi40.png","好人","word_first",""
"","","","","","html-keyboard-response","178","355405","0.0-13.0-1.0-1.0-0.0-1.9","null","<span style='color:GreenYellow; font-size: 70px;'>正确! </span>","null","","","","","","","","","","","","","","","","","","","","","","","feedback_test"
"","","","","","psychophysics","179","357059","0.0-13.0-1.0-1.0-0.0-0.10","504","","f","","","","","","","","","","","","","key","f","6.060551470588132","853.3333333333334","529.3333333333334","f","true","img/T_ambi40.png","坏人","word_first",""
"","","","","","html-keyboard-response","180","357364","0.0-13.0-1.0-1.0-0.0-1.10","null","<span style='color:GreenYellow; font-size: 70px;'>正确! </span>","null","","","","","","","","","","","","","","","","","","","","","","","feedback_test"
"","","","","","psychophysics","181","359229","0.0-13.0-1.0-1.0-0.0-0.11","711","","j","","","","","","","","","","","","","key","j","6.060566775244244","853.3333333333334","529.3333333333334","j","true","img/C_ambi40.png","常人","word_first",""
"","","","","","html-keyboard-response","182","359533","0.0-13.0-1.0-1.0-0.0-1.11","null","<span style='color:GreenYellow; font-size: 70px;'>正确! </span>","null","","","","","","","","","","","","","","","","","","","","","","","feedback_test"
"","","","","","psychophysics","183","361241","0.0-13.0-1.0-1.0-0.0-0.12","553","","f","","","","","","","","","","","","","key","f","6.060448398576424","853.3333333333334","529.3333333333334","j","false","img/S_ambi40.png","坏人","word_first",""
"","","","","","html-keyboard-response","184","361544","0.0-13.0-1.0-1.0-0.0-1.12","null","<span style='color:red; font-size: 70px;'>错误! </span>","null","","","","","","","","","","","","","","","","","","","","","","","feedback_test"
"","","","","","psychophysics","185","363324","0.0-13.0-1.0-1.0-0.0-0.13","630","","j","","","","","","","","","","","","","key","j","6.0605273972602705","853.3333333333334","529.3333333333334","j","true","img/T_ambi40.png","好人","word_first",""
"","","","","","html-keyboard-response","186","363636","0.0-13.0-1.0-1.0-0.0-1.13","null","<span style='color:GreenYellow; font-size: 70px;'>正确! </span>","null","","","","","","","","","","","","","","","","","","","","","","","feedback_test"
"","","","","","psychophysics","187","365299","0.0-13.0-1.0-1.0-0.0-0.14","508","","j","","","","","","","","","","","","","key","j","6.060619047619044","853.3333333333334","529.3333333333334","j","true","img/S_ambi40.png","坏人","word_first",""
"","","","","","html-keyboard-response","188","365603","0.0-13.0-1.0-1.0-0.0-1.14","null","<span style='color:GreenYellow; font-size: 70px;'>正确! </span>","null","","","","","","","","","","","","","","","","","","","","","","","feedback_test"
"","","","","","psychophysics","189","367381","0.0-13.0-1.0-1.0-0.0-0.15","627","","j","","","","","","","","","","","","","key","j","6.060472602739711","853.3333333333334","529.3333333333334","j","true","img/T_ambi40.png","好人","word_first",""
"","","","","","html-keyboard-response","190","367691","0.0-13.0-1.0-1.0-0.0-1.15","null","<span style='color:GreenYellow; font-size: 70px;'>正确! </span>","null","","","","","","","","","","","","","","","","","","","","","","","feedback_test"
"","","","","","psychophysics","191","369374","0.0-13.0-1.0-1.0-0.0-0.16","529","","f","","","","","","","","","","","","","key","f","6.060389891696761","853.3333333333334","529.3333333333334","f","true","img/T_ambi40.png","常人","word_first",""
"","","","","","html-keyboard-response","192","369690","0.0-13.0-1.0-1.0-0.0-1.16","null","<span style='color:GreenYellow; font-size: 70px;'>正确! </span>","null","","","","","","","","","","","","","","","","","","","","","","","feedback_test"
"","","","","","psychophysics","193","371510","0.0-13.0-1.0-1.0-0.0-0.17","665","","f","","","","","","","","","","","","","key","f","6.060551839464821","853.3333333333334","529.3333333333334","f","true","img/T_ambi40.png","坏人","word_first",""
"","","","","","html-keyboard-response","194","371812","0.0-13.0-1.0-1.0-0.0-1.17","null","<span style='color:GreenYellow; font-size: 70px;'>正确! </span>","null","","","","","","","","","","","","","","","","","","","","","","","feedback_test"
"","","","","","psychophysics","195","373522","0.0-13.0-1.0-1.0-0.0-0.18","555","","j","","","","","","","","","","","","","key","j","6.060519572953715","853.3333333333334","529.3333333333334","j","true","img/C_ambi40.png","常人","word_first",""
"","","","","","html-keyboard-response","196","373831","0.0-13.0-1.0-1.0-0.0-1.18","null","<span style='color:GreenYellow; font-size: 70px;'>正确! </span>","null","","","","","","","","","","","","","","","","","","","","","","","feedback_test"
"","","","","","psychophysics","197","375319","0.0-13.0-1.0-1.0-0.0-0.19","335","","j","","","","","","","","","","","","","key","j","6.060506122449071","853.3333333333334","529.3333333333334","j","true","img/C_ambi40.png","常人","word_first",""
"","","","","","html-keyboard-response","198","375624","0.0-13.0-1.0-1.0-0.0-1.19","null","<span style='color:GreenYellow; font-size: 70px;'>正确! </span>","null","","","","","","","","","","","","","","","","","","","","","","","feedback_test"
"","","","","","psychophysics","199","377418","0.0-13.0-1.0-1.0-0.0-0.20","643","","f","","","","","","","","","","","","","key","f","6.060471186440604","853.3333333333334","529.3333333333334","f","true","img/C_ambi40.png","好人","word_first",""
"","","","","","html-keyboard-response","200","377723","0.0-13.0-1.0-1.0-0.0-1.20","null","<span style='color:GreenYellow; font-size: 70px;'>正确! </span>","null","","","","","","","","","","","","","","","","","","","","","","","feedback_test"
"","","","","","psychophysics","201","379697","0.0-13.0-1.0-1.0-0.0-0.21","822","","f","","","","","","","","","","","","","key","f","6.06060802469132","853.3333333333334","529.3333333333334","f","true","img/S_ambi40.png","好人","word_first",""
"","","","","","html-keyboard-response","202","380010","0.0-13.0-1.0-1.0-0.0-1.21","null","<span style='color:GreenYellow; font-size: 70px;'>正确! </span>","null","","","","","","","","","","","","","","","","","","","","","","","feedback_test"
"","","","","","psychophysics","203","381887","0.0-13.0-1.0-1.0-0.0-0.22","721","","f","","","","","","","","","","","","","key","f","6.060506493506489","853.3333333333334","529.3333333333334","f","true","img/C_ambi40.png","坏人","word_first",""
"","","","","","html-keyboard-response","204","382198","0.0-13.0-1.0-1.0-0.0-1.22","null","<span style='color:GreenYellow; font-size: 70px;'>正确! </span>","null","","","","","","","","","","","","","","","","","","","","","","","feedback_test"
"","","","","","psychophysics","205","384077","0.0-13.0-1.0-1.0-0.0-0.23","723","","f","","","","","","","","","","","","","key","f","6.060469255663423","853.3333333333334","529.3333333333334","f","true","img/S_ambi40.png","常人","word_first",""
"","","","","","html-keyboard-response","206","384385","0.0-13.0-1.0-1.0-0.0-1.23","null","<span style='color:GreenYellow; font-size: 70px;'>正确! </span>","null","","","","","","","","","","","","","","","","","","","","","","","feedback_test"
"","","","","","psychophysics","207","386123","0.0-13.0-1.0-1.0-0.0-0.24","587","","j","","","","","","","","","","","","","key","j","6.0604280701752655","853.3333333333334","529.3333333333334","j","true","img/T_ambi40.png","好人","word_first",""
"","","","","","html-keyboard-response","208","386436","0.0-13.0-1.0-1.0-0.0-1.24","null","<span style='color:GreenYellow; font-size: 70px;'>正确! </span>","null","","","","","","","","","","","","","","","","","","","","","","","feedback_test"
"","","","","","psychophysics","209","388260","0.0-13.0-1.0-1.0-0.0-0.25","670","","j","","","","","","","","","","","","","key","j","6.0605233333333555","853.3333333333334","529.3333333333334","j","true","img/S_ambi40.png","坏人","word_first",""
"","","","","","html-keyboard-response","210","388564","0.0-13.0-1.0-1.0-0.0-1.25","null","<span style='color:GreenYellow; font-size: 70px;'>正确! </span>","null","","","","","","","","","","","","","","","","","","","","","","","feedback_test"
"","","","","","psychophysics","211","390503","0.0-13.0-1.0-1.0-0.0-0.26","786","","f","","","","","","","","","","","","","key","f","6.0605517241379046","853.3333333333334","529.3333333333334","f","true","img/S_ambi40.png","好人","word_first",""
"","","","","","html-keyboard-response","212","390809","0.0-13.0-1.0-1.0-0.0-1.26","null","<span style='color:GreenYellow; font-size: 70px;'>正确! </span>","null","","","","","","","","","","","","","","","","","","","","","","","feedback_test"
"","","","","","psychophysics","213","392586","0.0-13.0-1.0-1.0-0.0-0.27","626","","f","","","","","","","","","","","","","key","f","6.060356164383598","853.3333333333334","529.3333333333334","f","true","img/C_ambi40.png","坏人","word_first",""
"","","","","","html-keyboard-response","214","392893","0.0-13.0-1.0-1.0-0.0-1.27","null","<span style='color:GreenYellow; font-size: 70px;'>正确! </span>","null","","","","","","","","","","","","","","","","","","","","","","","feedback_test"
"","","","","","psychophysics","215","394866","0.0-13.0-1.0-1.0-0.0-0.28","821","","j","","","","","","","","","","","","","key","j","6.060395061728303","853.3333333333334","529.3333333333334","j","true","img/S_ambi40.png","坏人","word_first",""
"","","","","","html-keyboard-response","216","395180","0.0-13.0-1.0-1.0-0.0-1.28","null","<span style='color:GreenYellow; font-size: 70px;'>正确! </span>","null","","","","","","","","","","","","","","","","","","","","","","","feedback_test"
"","","","","","psychophysics","217","396786","0.0-13.0-1.0-1.0-0.0-0.29","454","","j","","","","","","","","","","","","","key","j","6.060477272727329","853.3333333333334","529.3333333333334","j","true","img/C_ambi40.png","常人","word_first",""
"","","","","","html-keyboard-response","218","397093","0.0-13.0-1.0-1.0-0.0-1.29","null","<span style='color:GreenYellow; font-size: 70px;'>正确! </span>","null","","","","","","","","","","","","","","","","","","","","","","","feedback_test"
"","","","","","psychophysics","219","398816","0.0-13.0-1.0-1.0-0.0-0.30","571","","f","","","","","","","","","","","","","key","f","6.047762411347663","853.3333333333334","529.3333333333334","f","true","img/S_ambi40.png","常人","word_first",""
"","","","","","html-keyboard-response","220","399128","0.0-13.0-1.0-1.0-0.0-1.30","null","<span style='color:GreenYellow; font-size: 70px;'>正确! </span>","null","","","","","","","","","","","","","","","","","","","","","","","feedback_test"
"","","","","","psychophysics","221","401167","0.0-13.0-1.0-1.0-0.0-0.31","886","","j","","","","","","","","","","","","","key","j","6.055652694610745","853.3333333333334","529.3333333333334","j","true","img/T_ambi40.png","好人","word_first",""
"","","","","","html-keyboard-response","222","401471","0.0-13.0-1.0-1.0-0.0-1.31","null","<span style='color:GreenYellow; font-size: 70px;'>正确! </span>","null","","","","","","","","","","","","","","","","","","","","","","","feedback_test"
"","","","","","psychophysics","223","403302","0.0-13.0-1.0-1.0-0.0-0.32","676","","f","","","","","","","","","","","","","key","f","6.060534883720802","853.3333333333334","529.3333333333334","j","false","img/C_ambi40.png","常人","word_first",""
"","","","","","html-keyboard-response","224","403616","0.0-13.0-1.0-1.0-0.0-1.32","null","<span style='color:red; font-size: 70px;'>错误! </span>","null","","","","","","","","","","","","","","","","","","","","","","","feedback_test"
"","","","","","psychophysics","225","405350","0.0-13.0-1.0-1.0-0.0-0.33","578","","f","","","","","","","","","","","","","key","f","6.060575438596578","853.3333333333334","529.3333333333334","f","true","img/T_ambi40.png","常人","word_first",""
"","","","","","html-keyboard-response","226","405658","0.0-13.0-1.0-1.0-0.0-1.33","null","<span style='color:GreenYellow; font-size: 70px;'>正确! </span>","null","","","","","","","","","","","","","","","","","","","","","","","feedback_test"
"","","","","","psychophysics","227","407592","0.0-13.0-1.0-1.0-0.0-0.34","778","","f","","","","","","","","","","","","","key","f","6.079646687697228","853.3333333333334","529.3333333333334","f","true","img/C_ambi40.png","好人","word_first",""
"","","","","","html-keyboard-response","228","407905","0.0-13.0-1.0-1.0-0.0-1.34","null","<span style='color:GreenYellow; font-size: 70px;'>正确! </span>","null","","","","","","","","","","","","","","","","","","","","","","","feedback_test"
"","","","","","psychophysics","229","409639","0.0-13.0-1.0-1.0-0.0-0.35","583","","f","","","","","","","","","","","","","key","f","6.081834507042183","853.3333333333334","529.3333333333334","f","true","img/T_ambi40.png","坏人","word_first",""
"","","","","","html-keyboard-response","230","409949","0.0-13.0-1.0-1.0-0.0-1.35","null","<span style='color:GreenYellow; font-size: 70px;'>正确! </span>","null","","","","","","","","","","","","","","","","","","","","","","","feedback_test"
"","","","","","psychophysics","231","411793","0.0-13.0-1.0-1.0-0.0-0.36","693","","j","","","","","","","","","","","","","key","j","6.0605016501649995","853.3333333333334","529.3333333333334","j","true","img/S_ambi40.png","坏人","word_first",""
"","","","","","html-keyboard-response","232","412107","0.0-13.0-1.0-1.0-0.0-1.36","null","<span style='color:GreenYellow; font-size: 70px;'>正确! </span>","null","","","","","","","","","","","","","","","","","","","","","","","feedback_test"
"","","","","","psychophysics","233","414107","0.0-13.0-1.0-1.0-0.0-0.37","845","","j","","","","","","","","","","","","","key","j","6.060440729483311","853.3333333333334","529.3333333333334","j","true","img/T_ambi40.png","好人","word_first",""
"","","","","","html-keyboard-response","234","414417","0.0-13.0-1.0-1.0-0.0-1.37","null","<span style='color:GreenYellow; font-size: 70px;'>正确! </span>","null","","","","","","","","","","","","","","","","","","","","","","","feedback_test"
"","","","","","psychophysics","235","416298","0.0-13.0-1.0-1.0-0.0-0.38","727","","j","","","","","","","","","","","","","key","j","6.060543689320525","853.3333333333334","529.3333333333334","j","true","img/C_ambi40.png","常人","word_first",""
"","","","","","html-keyboard-response","236","416605","0.0-13.0-1.0-1.0-0.0-1.38","null","<span style='color:GreenYellow; font-size: 70px;'>正确! </span>","null","","","","","","","","","","","","","","","","","","","","","","","feedback_test"
"","","","","","psychophysics","237","418488","0.0-13.0-1.0-1.0-0.0-0.39","730","","f","","","","","","","","","","","","","key","f","6.060451612903195","853.3333333333334","529.3333333333334","f","true","img/T_ambi40.png","常人","word_first",""
"","","","","","html-keyboard-response","238","418801","0.0-13.0-1.0-1.0-0.0-1.39","null","<span style='color:GreenYellow; font-size: 70px;'>正确! </span>","null","","","","","","","","","","","","","","","","","","","","","","","feedback_test"
"","","","","","psychophysics","239","420837","0.0-13.0-1.0-1.0-0.0-0.40","884","","f","","","","","","","","","","","","","key","f","6.053897897897997","853.3333333333334","529.3333333333334","f","true","img/S_ambi40.png","好人","word_first",""
"","","","","","html-keyboard-response","240","421153","0.0-13.0-1.0-1.0-0.0-1.40","null","<span style='color:GreenYellow; font-size: 70px;'>正确! </span>","null","","","","","","","","","","","","","","","","","","","","","","","feedback_test"
"","","","","","psychophysics","241","422937","0.0-13.0-1.0-1.0-0.0-0.41","632","","f","","","","","","","","","","","","","key","f","6.060453924914637","853.3333333333334","529.3333333333334","f","true","img/T_ambi40.png","坏人","word_first",""
"","","","","","html-keyboard-response","242","423250","0.0-13.0-1.0-1.0-0.0-1.41","null","<span style='color:GreenYellow; font-size: 70px;'>正确! </span>","null","","","","","","","","","","","","","","","","","","","","","","","feedback_test"
"","","","","","psychophysics","243","425234","0.0-13.0-1.0-1.0-0.0-0.42","833","","f","","","","","","","","","","","","","key","f","6.05316307692305","853.3333333333334","529.3333333333334","f","true","img/C_ambi40.png","好人","word_first",""
"","","","","","html-keyboard-response","244","425537","0.0-13.0-1.0-1.0-0.0-1.42","null","<span style='color:GreenYellow; font-size: 70px;'>正确! </span>","null","","","","","","","","","","","","","","","","","","","","","","","feedback_test"
"","","","","","psychophysics","245","427246","0.0-13.0-1.0-1.0-0.0-0.43","553","","j","","","","","","","","","","","","","key","j","6.06040213523131","853.3333333333334","529.3333333333334","j","true","img/T_ambi40.png","好人","word_first",""
"","","","","","html-keyboard-response","246","427553","0.0-13.0-1.0-1.0-0.0-1.43","null","<span style='color:GreenYellow; font-size: 70px;'>正确! </span>","null","","","","","","","","","","","","","","","","","","","","","","","feedback_test"
"","","","","","psychophysics","247","429435","0.0-13.0-1.0-1.0-0.0-0.44","730","","j","","","","","","","","","","","","","key","j","6.060673139158457","853.3333333333334","529.3333333333334","j","true","img/C_ambi40.png","常人","word_first",""
"","","","","","html-keyboard-response","248","429742","0.0-13.0-1.0-1.0-0.0-1.44","null","<span style='color:GreenYellow; font-size: 70px;'>正确! </span>","null","","","","","","","","","","","","","","","","","","","","","","","feedback_test"
"","","","","","psychophysics","249","431357","0.0-13.0-1.0-1.0-0.0-0.45","465","","j","","","","","","","","","","","","","key","j","6.060509433962167","853.3333333333334","529.3333333333334","j","true","img/S_ambi40.png","坏人","word_first",""
"","","","","","html-keyboard-response","250","431669","0.0-13.0-1.0-1.0-0.0-1.45","null","<span style='color:GreenYellow; font-size: 70px;'>正确! </span>","null","","","","","","","","","","","","","","","","","","","","","","","feedback_test"
"","","","","","psychophysics","251","433457","0.0-13.0-1.0-1.0-0.0-0.46","638","","f","","","","","","","","","","","","","key","f","6.060496598639332","853.3333333333334","529.3333333333334","f","true","img/S_ambi40.png","常人","word_first",""
"","","","","","html-keyboard-response","252","433760","0.0-13.0-1.0-1.0-0.0-1.46","null","<span style='color:GreenYellow; font-size: 70px;'>正确! </span>","null","","","","","","","","","","","","","","","","","","","","","","","feedback_test"
"","","","","","psychophysics","253","435486","0.0-13.0-1.0-1.0-0.0-0.47","576","","f","","","","","","","","","","","","","key","f","6.0603215547705105","853.3333333333334","529.3333333333334","f","true","img/C_ambi40.png","坏人","word_first",""
"","","","","","html-keyboard-response","254","435795","0.0-13.0-1.0-1.0-0.0-1.47","null","<span style='color:GreenYellow; font-size: 70px;'>正确! </span>","null","","","","","","","","","","","","","","","","","","","","","","","feedback_test"
"","","","","","psychophysics","255","437641","0.0-13.0-1.0-1.0-0.0-0.48","694","","j","","","","","","","","","","","","","key","j","6.050874172185435","853.3333333333334","529.3333333333334","j","true","img/T_ambi40.png","好人","word_first",""
"","","","","","html-keyboard-response","256","437942","0.0-13.0-1.0-1.0-0.0-1.48","null","<span style='color:GreenYellow; font-size: 70px;'>正确! </span>","null","","","","","","","","","","","","","","","","","","","","","","","feedback_test"
"","","","","","psychophysics","257","439579","0.0-13.0-1.0-1.0-0.0-0.49","487","","f","","","","","","","","","","","","","key","f","6.060535315985291","853.3333333333334","529.3333333333334","f","true","img/T_ambi40.png","坏人","word_first",""
"","","","","","html-keyboard-response","258","439895","0.0-13.0-1.0-1.0-0.0-1.49","null","<span style='color:GreenYellow; font-size: 70px;'>正确! </span>","null","","","","","","","","","","","","","","","","","","","","","","","feedback_test"
"","","","","","psychophysics","259","441591","0.0-13.0-1.0-1.0-0.0-0.50","541","","f","","","","","","","","","","","","","key","f","6.060433691756184","853.3333333333334","529.3333333333334","j","false","img/T_ambi40.png","好人","word_first",""
"","","","","","html-keyboard-response","260","441905","0.0-13.0-1.0-1.0-0.0-1.50","null","<span style='color:red; font-size: 70px;'>错误! </span>","null","","","","","","","","","","","","","","","","","","","","","","","feedback_test"
"","","","","","psychophysics","261","443727","0.0-13.0-1.0-1.0-0.0-0.51","671","","f","","","","","","","","","","","","","key","f","6.0605150501673615","853.3333333333334","529.3333333333334","f","true","img/S_ambi40.png","好人","word_first",""
"","","","","","html-keyboard-response","262","444033","0.0-13.0-1.0-1.0-0.0-1.51","null","<span style='color:GreenYellow; font-size: 70px;'>正确! </span>","null","","","","","","","","","","","","","","","","","","","","","","","feedback_test"
"","","","","","psychophysics","263","446096","0.0-13.0-1.0-1.0-0.0-0.52","912","","f","","","","","","","","","","","","","key","f","6.060557522124008","853.3333333333334","529.3333333333334","f","true","img/T_ambi40.png","常人","word_first",""
"","","","","","html-keyboard-response","264","446405","0.0-13.0-1.0-1.0-0.0-1.52","null","<span style='color:GreenYellow; font-size: 70px;'>正确! </span>","null","","","","","","","","","","","","","","","","","","","","","","","feedback_test"
"","","","","","psychophysics","265","448000","0.0-13.0-1.0-1.0-0.0-0.53","441","","j","","","","","","","","","","","","","key","j","6.060389312977266","853.3333333333334","529.3333333333334","j","true","img/S_ambi40.png","坏人","word_first",""
"","","","","","html-keyboard-response","266","448311","0.0-13.0-1.0-1.0-0.0-1.53","null","<span style='color:GreenYellow; font-size: 70px;'>正确! </span>","null","","","","","","","","","","","","","","","","","","","","","","","feedback_test"
"","","","","","psychophysics","267","450100","0.0-13.0-1.0-1.0-0.0-0.54","638","","f","","","","","","","","","","","","","key","f","6.0602074829932","853.3333333333334","529.3333333333334","f","true","img/C_ambi40.png","坏人","word_first",""
"","","","","","html-keyboard-response","268","450405","0.0-13.0-1.0-1.0-0.0-1.54","null","<span style='color:GreenYellow; font-size: 70px;'>正确! </span>","null","","","","","","","","","","","","","","","","","","","","","","","feedback_test"
"","","","","","psychophysics","269","452128","0.0-13.0-1.0-1.0-0.0-0.55","570","","j","","","","","","","","","","","","","key","j","6.0604028268550625","853.3333333333334","529.3333333333334","j","true","img/S_ambi40.png","坏人","word_first",""
"","","","","","html-keyboard-response","270","452441","0.0-13.0-1.0-1.0-0.0-1.55","null","<span style='color:GreenYellow; font-size: 70px;'>正确! </span>","null","","","","","","","","","","","","","","","","","","","","","","","feedback_test"
"","","","","","psychophysics","271","454103","0.0-13.0-1.0-1.0-0.0-0.56","508","","j","","","","","","","","","","","","","key","j","6.060652014652085","853.3333333333334","529.3333333333334","j","true","img/C_ambi40.png","常人","word_first",""
"","","","","","html-keyboard-response","272","454417","0.0-13.0-1.0-1.0-0.0-1.56","null","<span style='color:GreenYellow; font-size: 70px;'>正确! </span>","null","","","","","","","","","","","","","","","","","","","","","","","feedback_test"
"","","","","","psychophysics","273","456098","0.0-13.0-1.0-1.0-0.0-0.57","527","","f","","","","","","","","","","","","","key","f","6.060590579710138","853.3333333333334","529.3333333333334","f","true","img/S_ambi40.png","常人","word_first",""
"","","","","","html-keyboard-response","274","456410","0.0-13.0-1.0-1.0-0.0-1.57","null","<span style='color:GreenYellow; font-size: 70px;'>正确! </span>","null","","","","","","","","","","","","","","","","","","","","","","","feedback_test"
"","","","","","psychophysics","275","458144","0.0-13.0-1.0-1.0-0.0-0.58","579","","j","","","","","","","","","","","","","key","j","6.060470175438585","853.3333333333334","529.3333333333334","j","true","img/C_ambi40.png","常人","word_first",""
"","","","","","html-keyboard-response","276","458446","0.0-13.0-1.0-1.0-0.0-1.58","null","<span style='color:GreenYellow; font-size: 70px;'>正确! </span>","null","","","","","","","","","","","","","","","","","","","","","","","feedback_test"
"","","","","","psychophysics","277","460191","0.0-13.0-1.0-1.0-0.0-0.59","589","","j","","","","","","","","","","","","","key","j","6.060529616724648","853.3333333333334","529.3333333333334","f","false","img/C_ambi40.png","好人","word_first",""
"","","","","","html-keyboard-response","278","460498","0.0-13.0-1.0-1.0-0.0-1.59","null","<span style='color:red; font-size: 70px;'>错误! </span>","null","","","","","","","","","","","","","","","","","","","","","","","feedback_test"
"","","","","","html-keyboard-response","279","462183","0.0-13.0-1.0-1.0-1.0","1684","<style>.context{color:white; font-size: 35px; line-height:40px}</style>                              <div><p class='context'>您正确回答了92% 的试次。</p><p class='context'>您的平均反应时为638毫秒。</p><p class='context'>请按任意键进入休息</p></div>"," ","","","","","","","","","","","","","","","","","","","","","","",""
"","","","","","html-button-response","280","485547","0.0-13.0-1.0-1.0-2.0","23361","
                      <p>您当前还剩余3组实验</p>
                      <p>现在是休息时间，当您结束休息后，您可以点击 结束休息 按钮 继续</p>
                      <p>建议休息时间还剩余<span id=""iii"">60</span>秒</p>","0","","","","","","","","","","","","","","","","","","","","","","",""
"","","","","","psychophysics","281","487378","0.0-13.0-1.0-1.0-0.1-0.60","675","","j","","","","","","","","","","","","","key","j","6.142090909090912","853.3333333333334","529.3333333333334","j","true","img/C_ambi40.png","常人","word_first",""
"","","","","","html-keyboard-response","282","487689","0.0-13.0-1.0-1.0-0.1-1.60","null","<span style='color:GreenYellow; font-size: 70px;'>正确! </span>","null","","","","","","","","","","","","","","","","","","","","","","","feedback_test"
"","","","","","psychophysics","283","489425","0.0-13.0-1.0-1.0-0.1-0.61","584","","j","","","","","","","","","","","","","key","j","6.0604335664337174","853.3333333333334","529.3333333333334","j","true","img/T_ambi40.png","好人","word_first",""
"","","","","","html-keyboard-response","284","489740","0.0-13.0-1.0-1.0-0.1-1.61","null","<span style='color:GreenYellow; font-size: 70px;'>正确! </span>","null","","","","","","","","","","","","","","","","","","","","","","","feedback_test"
"","","","","","psychophysics","285","491329","0.0-13.0-1.0-1.0-0.1-0.62","438","","f","","","","","","","","","","","","","key","f","6.060521072797054","853.3333333333334","529.3333333333334","f","true","img/S_ambi40.png","好人","word_first",""
"","","","","","html-keyboard-response","286","491633","0.0-13.0-1.0-1.0-0.1-1.62","null","<span style='color:GreenYellow; font-size: 70px;'>正确! </span>","null","","","","","","","","","","","","","","","","","","","","","","","feedback_test"
"","","","","","psychophysics","287","493447","0.0-13.0-1.0-1.0-0.1-0.63","659","","f","","","","","","","","","","","","","key","f","6.060530201342283","853.3333333333334","529.3333333333334","f","true","img/T_ambi40.png","坏人","word_first",""
"","","","","","html-keyboard-response","288","493759","0.0-13.0-1.0-1.0-0.1-1.63","null","<span style='color:GreenYellow; font-size: 70px;'>正确! </span>","null","","","","","","","","","","","","","","","","","","","","","","","feedback_test"
"","","","","","psychophysics","289","495708","0.0-13.0-1.0-1.0-0.1-0.64","797","","j","","","","","","","","","","","","","key","j","6.060537499999919","853.3333333333334","529.3333333333334","j","true","img/S_ambi40.png","坏人","word_first",""
"","","","","","html-keyboard-response","290","496013","0.0-13.0-1.0-1.0-0.1-1.64","null","<span style='color:GreenYellow; font-size: 70px;'>正确! </span>","null","","","","","","","","","","","","","","","","","","","","","","","feedback_test"
"","","","","","psychophysics","291","497862","0.0-13.0-1.0-1.0-0.1-0.65","698","","f","","","","","","","","","","","","","key","f","6.060503289473624","853.3333333333334","529.3333333333334","f","true","img/C_ambi40.png","好人","word_first",""
"","","","","","html-keyboard-response","292","498175","0.0-13.0-1.0-1.0-0.1-1.65","null","<span style='color:GreenYellow; font-size: 70px;'>正确! </span>","null","","","","","","","","","","","","","","","","","","","","","","","feedback_test"
"","","","","","psychophysics","293","500016","0.0-13.0-1.0-1.0-0.1-0.66","689","","j","","","","","","","","","","","","","key","j","6.060536423841081","853.3333333333334","529.3333333333334","j","true","img/S_ambi40.png","坏人","word_first",""
"","","","","","html-keyboard-response","294","500321","0.0-13.0-1.0-1.0-0.1-1.66","null","<span style='color:GreenYellow; font-size: 70px;'>正确! </span>","null","","","","","","","","","","","","","","","","","","","","","","","feedback_test"
"","","","","","psychophysics","295","502170","0.0-13.0-1.0-1.0-0.1-0.67","698","","f","","","","","","","","","","","","","key","f","6.060605263157892","853.3333333333334","529.3333333333334","f","true","img/T_ambi40.png","常人","word_first",""
"","","","","","html-keyboard-response","296","502478","0.0-13.0-1.0-1.0-0.1-1.67","null","<span style='color:GreenYellow; font-size: 70px;'>正确! </span>","null","","","","","","","","","","","","","","","","","","","","","","","feedback_test"
"","","","","","psychophysics","297","504252","0.0-13.0-1.0-1.0-0.1-0.68","622","","f","","","","","","","","","","","","","key","f","6.060477663230397","853.3333333333334","529.3333333333334","j","false","img/C_ambi40.png","常人","word_first",""
"","","","","","html-keyboard-response","298","504562","0.0-13.0-1.0-1.0-0.1-1.68","null","<span style='color:red; font-size: 70px;'>错误! </span>","null","","","","","","","","","","","","","","","","","","","","","","","feedback_test"
"","","","","","psychophysics","299","506156","0.0-13.0-1.0-1.0-0.1-0.69","443","","j","","","","","","","","","","","","","key","j","6.060503816793944","853.3333333333334","529.3333333333334","j","true","img/T_ambi40.png","好人","word_first",""
"","","","","","html-keyboard-response","300","506465","0.0-13.0-1.0-1.0-0.1-1.69","null","<span style='color:GreenYellow; font-size: 70px;'>正确! </span>","null","","","","","","","","","","","","","","","","","","","","","","","feedback_test"
"","","","","","psychophysics","301","508275","0.0-13.0-1.0-1.0-0.1-0.70","657","","f","","","","","","","","","","","","","key","f","6.060412751677744","853.3333333333334","529.3333333333334","f","true","img/C_ambi40.png","坏人","word_first",""
"","","","","","html-keyboard-response","302","508580","0.0-13.0-1.0-1.0-0.1-1.70","null","<span style='color:GreenYellow; font-size: 70px;'>正确! </span>","null","","","","","","","","","","","","","","","","","","","","","","","feedback_test"
"","","","","","psychophysics","303","510571","0.0-13.0-1.0-1.0-0.1-0.71","838","","f","","","","","","","","","","","","","key","f","6.054604294478637","853.3333333333334","529.3333333333334","f","true","img/S_ambi40.png","常人","word_first",""
"","","","","","html-keyboard-response","304","510875","0.0-13.0-1.0-1.0-0.1-1.71","null","<span style='color:GreenYellow; font-size: 70px;'>正确! </span>","null","","","","","","","","","","","","","","","","","","","","","","","feedback_test"
"","","","","","psychophysics","305","512582","0.0-13.0-1.0-1.0-0.1-0.72","552","","j","","","","","","","","","","","","","key","j","6.060505338078215","853.3333333333334","529.3333333333334","j","true","img/S_ambi40.png","坏人","word_first",""
"","","","","","html-keyboard-response","306","512894","0.0-13.0-1.0-1.0-0.1-1.72","null","<span style='color:GreenYellow; font-size: 70px;'>正确! </span>","null","","","","","","","","","","","","","","","","","","","","","","","feedback_test"
"","","","","","psychophysics","307","514826","0.0-13.0-1.0-1.0-0.1-0.73","778","","f","","","","","","","","","","","","","key","f","6.060452830188639","853.3333333333334","529.3333333333334","f","true","img/S_ambi40.png","常人","word_first",""
"","","","","","html-keyboard-response","308","515134","0.0-13.0-1.0-1.0-0.1-1.73","null","<span style='color:GreenYellow; font-size: 70px;'>正确! </span>","null","","","","","","","","","","","","","","","","","","","","","","","feedback_test"
"","","","","","psychophysics","309","517033","0.0-13.0-1.0-1.0-0.1-0.74","749","","f","","","","","","","","","","","","","key","f","6.060528846153689","853.3333333333334","529.3333333333334","f","true","img/T_ambi40.png","常人","word_first",""
"","","","","","html-keyboard-response","310","517339","0.0-13.0-1.0-1.0-0.1-1.74","null","<span style='color:GreenYellow; font-size: 70px;'>正确! </span>","null","","","","","","","","","","","","","","","","","","","","","","","feedback_test"
"","","","","","psychophysics","311","519312","0.0-13.0-1.0-1.0-0.1-0.75","821","","j","","","","","","","","","","","","","key","j","6.060490740740702","853.3333333333334","529.3333333333334","j","true","img/T_ambi40.png","好人","word_first",""
"","","","","","html-keyboard-response","312","519625","0.0-13.0-1.0-1.0-0.1-1.75","null","<span style='color:GreenYellow; font-size: 70px;'>正确! </span>","null","","","","","","","","","","","","","","","","","","","","","","","feedback_test"
"","","","","","psychophysics","313","521305","0.0-13.0-1.0-1.0-0.1-0.76","529","","f","","","","","","","","","","","","","key","f","6.060572463768092","853.3333333333334","529.3333333333334","j","false","img/T_ambi40.png","好人","word_first",""
"","","","","","html-keyboard-response","314","521612","0.0-13.0-1.0-1.0-0.1-1.76","null","<span style='color:red; font-size: 70px;'>错误! </span>","null","","","","","","","","","","","","","","","","","","","","","","","feedback_test"
"","","","","","psychophysics","315","523424","0.0-13.0-1.0-1.0-0.1-0.77","661","","j","","","","","","","","","","","","","key","j","6.060533557046946","853.3333333333334","529.3333333333334","j","true","img/C_ambi40.png","常人","word_first",""
"","","","","","html-keyboard-response","316","523738","0.0-13.0-1.0-1.0-0.1-1.77","null","<span style='color:GreenYellow; font-size: 70px;'>正确! </span>","null","","","","","","","","","","","","","","","","","","","","","","","feedback_test"
"","","","","","psychophysics","317","525417","0.0-13.0-1.0-1.0-0.1-0.78","526","","f","","","","","","","","","","","","","key","f","6.053211678831964","853.3333333333334","529.3333333333334","f","true","img/C_ambi40.png","坏人","word_first",""
"","","","","","html-keyboard-response","318","525721","0.0-13.0-1.0-1.0-0.1-1.78","null","<span style='color:GreenYellow; font-size: 70px;'>正确! </span>","null","","","","","","","","","","","","","","","","","","","","","","","feedback_test"
"","","","","","psychophysics","319","527339","0.0-13.0-1.0-1.0-0.1-0.79","467","","j","","","","","","","","","","","","","key","j","6.060522556391149","853.3333333333334","529.3333333333334","f","false","img/C_ambi40.png","好人","word_first",""
"","","","","","html-keyboard-response","320","527642","0.0-13.0-1.0-1.0-0.1-1.79","null","<span style='color:red; font-size: 70px;'>错误! </span>","null","","","","","","","","","","","","","","","","","","","","","","","feedback_test"
"","","","","","psychophysics","321","529439","0.0-13.0-1.0-1.0-0.1-0.80","646","","f","","","","","","","","","","","","","key","f","6.060549152542253","853.3333333333334","529.3333333333334","f","true","img/T_ambi40.png","坏人","word_first",""
"","","","","","html-keyboard-response","322","529751","0.0-13.0-1.0-1.0-0.1-1.80","null","<span style='color:GreenYellow; font-size: 70px;'>正确! </span>","null","","","","","","","","","","","","","","","","","","","","","","","feedback_test"
"","","","","","psychophysics","323","531504","0.0-13.0-1.0-1.0-0.1-0.81","602","","j","","","","","","","","","","","","","key","j","6.06046875000013","853.3333333333334","529.3333333333334","j","true","img/C_ambi40.png","常人","word_first",""
"","","","","","html-keyboard-response","324","531806","0.0-13.0-1.0-1.0-0.1-1.81","null","<span style='color:GreenYellow; font-size: 70px;'>正确! </span>","null","","","","","","","","","","","","","","","","","","","","","","","feedback_test"
"","","","","","psychophysics","325","533890","0.0-13.0-1.0-1.0-0.1-0.82","933","","f","","","","","","","","","","","","","key","f","6.060459064327559","853.3333333333334","529.3333333333334","f","true","img/S_ambi40.png","好人","word_first",""
"","","","","","html-keyboard-response","326","534199","0.0-13.0-1.0-1.0-0.1-1.82","null","<span style='color:GreenYellow; font-size: 70px;'>正确! </span>","null","","","","","","","","","","","","","","","","","","","","","","","feedback_test"
"","","","","","psychophysics","327","536169","0.0-13.0-1.0-1.0-0.1-0.83","818","","j","","","","","","","","","","","","","key","j","6.053425465838446","853.3333333333334","529.3333333333334","j","true","img/S_ambi40.png","坏人","word_first",""
"","","","","","html-keyboard-response","328","536483","0.0-13.0-1.0-1.0-0.1-1.83","null","<span style='color:GreenYellow; font-size: 70px;'>正确! </span>","null","","","","","","","","","","","","","","","","","","","","","","","feedback_test"
"","","","","","psychophysics","329","538430","0.0-13.0-1.0-1.0-0.1-0.84","795","","j","","","","","","","","","","","","","key","j","6.0512131661440165","853.3333333333334","529.3333333333334","j","true","img/S_ambi40.png","坏人","word_first",""
"","","","","","html-keyboard-response","330","538735","0.0-13.0-1.0-1.0-0.1-1.84","null","<span style='color:GreenYellow; font-size: 70px;'>正确! </span>","null","","","","","","","","","","","","","","","","","","","","","","","feedback_test"
"","","","","","psychophysics","331","540494","0.0-13.0-1.0-1.0-0.1-0.85","608","","f","","","","","","","","","","","","","key","f","6.060484429066082","853.3333333333334","529.3333333333334","f","true","img/S_ambi40.png","常人","word_first",""
"","","","","","html-keyboard-response","332","540805","0.0-13.0-1.0-1.0-0.1-1.85","null","<span style='color:GreenYellow; font-size: 70px;'>正确! </span>","null","","","","","","","","","","","","","","","","","","","","","","","feedback_test"
"","","","","","psychophysics","333","542630","0.0-13.0-1.0-1.0-0.1-0.86","674","","f","","","","","","","","","","","","","key","f","6.052207357859874","853.3333333333334","529.3333333333334","f","true","img/S_ambi40.png","好人","word_first",""
"","","","","","html-keyboard-response","334","542945","0.0-13.0-1.0-1.0-0.1-1.86","null","<span style='color:GreenYellow; font-size: 70px;'>正确! </span>","null","","","","","","","","","","","","","","","","","","","","","","","feedback_test"
"","","","","","psychophysics","335","544695","0.0-13.0-1.0-1.0-0.1-0.87","599","","f","","","","","","","","","","","","","key","f","6.060540069686411","853.3333333333334","529.3333333333334","j","false","img/S_ambi40.png","坏人","word_first",""
"","","","","","html-keyboard-response","336","544999","0.0-13.0-1.0-1.0-0.1-1.87","null","<span style='color:red; font-size: 70px;'>错误! </span>","null","","","","","","","","","","","","","","","","","","","","","","","feedback_test"
"","","","","","psychophysics","337","546992","0.0-13.0-1.0-1.0-0.1-0.88","841","","f","","","","","","","","","","","","","key","f","6.06056269113151","853.3333333333334","529.3333333333334","f","true","img/T_ambi40.png","坏人","word_first",""
"","","","","","html-keyboard-response","338","547300","0.0-13.0-1.0-1.0-0.1-1.88","null","<span style='color:GreenYellow; font-size: 70px;'>正确! </span>","null","","","","","","","","","","","","","","","","","","","","","","","feedback_test"
"","","","","","psychophysics","339","548932","0.0-13.0-1.0-1.0-0.1-0.89","479","","j","","","","","","","","","","","","","key","j","6.0604776119402395","853.3333333333334","529.3333333333334","j","true","img/C_ambi40.png","常人","word_first",""
"","","","","","html-keyboard-response","340","549243","0.0-13.0-1.0-1.0-0.1-1.89","null","<span style='color:GreenYellow; font-size: 70px;'>正确! </span>","null","","","","","","","","","","","","","","","","","","","","","","","feedback_test"
"","","","","","psychophysics","341","550996","0.0-13.0-1.0-1.0-0.1-0.90","603","","j","","","","","","","","","","","","","key","j","6.0605034722219795","853.3333333333334","529.3333333333334","j","true","img/T_ambi40.png","好人","word_first",""
"","","","","","html-keyboard-response","342","551307","0.0-13.0-1.0-1.0-0.1-1.90","null","<span style='color:GreenYellow; font-size: 70px;'>正确! </span>","null","","","","","","","","","","","","","","","","","","","","","","","feedback_test"
"","","","","","psychophysics","343","553204","0.0-13.0-1.0-1.0-0.1-0.91","745","","j","","","","","","","","","","","","","key","j","6.060477564102397","853.3333333333334","529.3333333333334","j","true","img/C_ambi40.png","常人","word_first",""
"","","","","","html-keyboard-response","344","553517","0.0-13.0-1.0-1.0-0.1-1.91","null","<span style='color:GreenYellow; font-size: 70px;'>正确! </span>","null","","","","","","","","","","","","","","","","","","","","","","","feedback_test"
"","","","","","psychophysics","345","555215","0.0-13.0-1.0-1.0-0.1-0.92","543","","f","","","","","","","","","","","","","key","f","6.0604946236555906","853.3333333333334","529.3333333333334","f","true","img/C_ambi40.png","坏人","word_first",""
"","","","","","html-keyboard-response","346","555521","0.0-13.0-1.0-1.0-0.1-1.92","null","<span style='color:GreenYellow; font-size: 70px;'>正确! </span>","null","","","","","","","","","","","","","","","","","","","","","","","feedback_test"
"","","","","","psychophysics","347","557262","0.0-13.0-1.0-1.0-0.1-0.93","590","","j","","","","","","","","","","","","","key","j","6.060562937062924","853.3333333333334","529.3333333333334","f","false","img/T_ambi40.png","常人","word_first",""
"","","","","","html-keyboard-response","348","557568","0.0-13.0-1.0-1.0-0.1-1.93","null","<span style='color:red; font-size: 70px;'>错误! </span>","null","","","","","","","","","","","","","","","","","","","","","","","feedback_test"
"","","","","","psychophysics","349","559434","0.0-13.0-1.0-1.0-0.1-0.94","713","","j","","","","","","","","","","","","","key","j","6.0518327868852735","853.3333333333334","529.3333333333334","j","true","img/T_ambi40.png","好人","word_first",""
"","","","","","html-keyboard-response","350","559739","0.0-13.0-1.0-1.0-0.1-1.94","null","<span style='color:GreenYellow; font-size: 70px;'>正确! </span>","null","","","","","","","","","","","","","","","","","","","","","","","feedback_test"
"","","","","","psychophysics","351","561696","0.0-13.0-1.0-1.0-0.1-0.95","806","","f","","","","","","","","","","","","","key","f","6.060489096573258","853.3333333333334","529.3333333333334","f","true","img/C_ambi40.png","好人","word_first",""
"","","","","","html-keyboard-response","352","562001","0.0-13.0-1.0-1.0-0.1-1.95","null","<span style='color:GreenYellow; font-size: 70px;'>正确! </span>","null","","","","","","","","","","","","","","","","","","","","","","","feedback_test"
"","","","","","psychophysics","353","563867","0.0-13.0-1.0-1.0-0.1-0.96","709","","j","","","","","","","","","","","","","key","j","6.060498371335802","853.3333333333334","529.3333333333334","j","true","img/S_ambi40.png","坏人","word_first",""
"","","","","","html-keyboard-response","354","564176","0.0-13.0-1.0-1.0-0.1-1.96","null","<span style='color:GreenYellow; font-size: 70px;'>正确! </span>","null","","","","","","","","","","","","","","","","","","","","","","","feedback_test"
"","","","","","psychophysics","355","566002","0.0-13.0-1.0-1.0-0.1-0.97","676","","f","","","","","","","","","","","","","key","f","6.060486666666887","853.3333333333334","529.3333333333334","f","true","img/S_ambi40.png","常人","word_first",""
"","","","","","html-keyboard-response","356","566306","0.0-13.0-1.0-1.0-0.1-1.97","null","<span style='color:GreenYellow; font-size: 70px;'>正确! </span>","null","","","","","","","","","","","","","","","","","","","","","","","feedback_test"
"","","","","","psychophysics","357","568121","0.0-13.0-1.0-1.0-0.1-0.98","661","","f","","","","","","","","","","","","","key","f","6.060454849498331","853.3333333333334","529.3333333333334","f","true","img/S_ambi40.png","好人","word_first",""
"","","","","","html-keyboard-response","358","568430","0.0-13.0-1.0-1.0-0.1-1.98","null","<span style='color:GreenYellow; font-size: 70px;'>正确! </span>","null","","","","","","","","","","","","","","","","","","","","","","","feedback_test"
"","","","","","psychophysics","359","570079","0.0-13.0-1.0-1.0-0.1-0.99","498","","j","","","","","","","","","","","","","key","j","6.060535055350656","853.3333333333334","529.3333333333334","j","true","img/C_ambi40.png","常人","word_first",""
"","","","","","html-keyboard-response","360","570394","0.0-13.0-1.0-1.0-0.1-1.99","null","<span style='color:GreenYellow; font-size: 70px;'>正确! </span>","null","","","","","","","","","","","","","","","","","","","","","","","feedback_test"
"","","","","","psychophysics","361","572232","0.0-13.0-1.0-1.0-0.1-0.100","688","","f","","","","","","","","","","","","","key","f","6.06038410595999","853.3333333333334","529.3333333333334","f","true","img/C_ambi40.png","坏人","word_first",""
"","","","","","html-keyboard-response","362","572545","0.0-13.0-1.0-1.0-0.1-1.100","null","<span style='color:GreenYellow; font-size: 70px;'>正确! </span>","null","","","","","","","","","","","","","","","","","","","","","","","feedback_test"
"","","","","","psychophysics","363","574316","0.0-13.0-1.0-1.0-0.1-0.101","619","","f","","","","","","","","","","","","","key","f","6.0605498281786785","853.3333333333334","529.3333333333334","f","true","img/C_ambi40.png","好人","word_first",""
"","","","","","html-keyboard-response","364","574621","0.0-13.0-1.0-1.0-0.1-1.101","null","<span style='color:GreenYellow; font-size: 70px;'>正确! </span>","null","","","","","","","","","","","","","","","","","","","","","","","feedback_test"
"","","","","","psychophysics","365","576362","0.0-13.0-1.0-1.0-0.1-0.102","590","","j","","","","","","","","","","","","","key","j","6.060461538461594","853.3333333333334","529.3333333333334","j","true","img/T_ambi40.png","好人","word_first",""
"","","","","","html-keyboard-response","366","576671","0.0-13.0-1.0-1.0-0.1-1.102","null","<span style='color:GreenYellow; font-size: 70px;'>正确! </span>","null","","","","","","","","","","","","","","","","","","","","","","","feedback_test"
"","","","","","psychophysics","367","578248","0.0-13.0-1.0-1.0-0.1-0.103","424","","j","","","","","","","","","","","","","key","j","6.0498443579764185","853.3333333333334","529.3333333333334","j","true","img/T_ambi40.png","好人","word_first",""
"","","","","","html-keyboard-response","368","578552","0.0-13.0-1.0-1.0-0.1-1.103","null","<span style='color:GreenYellow; font-size: 70px;'>正确! </span>","null","","","","","","","","","","","","","","","","","","","","","","","feedback_test"
"","","","","","psychophysics","369","580260","0.0-13.0-1.0-1.0-0.1-0.104","557","","f","","","","","","","","","","","","","key","f","6.060496428571059","853.3333333333334","529.3333333333334","f","true","img/T_ambi40.png","常人","word_first",""
"","","","","","html-keyboard-response","370","580572","0.0-13.0-1.0-1.0-0.1-1.104","null","<span style='color:GreenYellow; font-size: 70px;'>正确! </span>","null","","","","","","","","","","","","","","","","","","","","","","","feedback_test"
"","","","","","psychophysics","371","582378","0.0-13.0-1.0-1.0-0.1-0.105","651","","f","","","","","","","","","","","","","key","f","6.0604107744105145","853.3333333333334","529.3333333333334","f","true","img/T_ambi40.png","坏人","word_first",""
"","","","","","html-keyboard-response","372","582683","0.0-13.0-1.0-1.0-0.1-1.105","null","<span style='color:GreenYellow; font-size: 70px;'>正确! </span>","null","","","","","","","","","","","","","","","","","","","","","","","feedback_test"
"","","","","","psychophysics","373","584352","0.0-13.0-1.0-1.0-0.1-0.106","517","","j","","","","","","","","","","","","","key","j","6.048897435897176","853.3333333333334","529.3333333333334","j","true","img/C_ambi40.png","常人","word_first",""
"","","","","","html-keyboard-response","374","584658","0.0-13.0-1.0-1.0-0.1-1.106","null","<span style='color:GreenYellow; font-size: 70px;'>正确! </span>","null","","","","","","","","","","","","","","","","","","","","","","","feedback_test"
"","","","","","psychophysics","375","586310","0.0-13.0-1.0-1.0-0.1-0.107","499","","j","","","","","","","","","","","","","key","j","6.060496323529257","853.3333333333334","529.3333333333334","j","true","img/S_ambi40.png","坏人","word_first",""
"","","","","","html-keyboard-response","376","586616","0.0-13.0-1.0-1.0-0.1-1.107","null","<span style='color:GreenYellow; font-size: 70px;'>正确! </span>","null","","","","","","","","","","","","","","","","","","","","","","","feedback_test"
"","","","","","psychophysics","377","588446","0.0-13.0-1.0-1.0-0.1-0.108","678","","f","","","","","","","","","","","","","key","f","6.055056856187095","853.3333333333334","529.3333333333334","f","true","img/T_ambi40.png","坏人","word_first",""
"","","","","","html-keyboard-response","378","588747","0.0-13.0-1.0-1.0-0.1-1.108","null","<span style='color:GreenYellow; font-size: 70px;'>正确! </span>","null","","","","","","","","","","","","","","","","","","","","","","","feedback_test"
"","","","","","psychophysics","379","590440","0.0-13.0-1.0-1.0-0.1-0.109","538","","f","","","","","","","","","","","","","key","f","6.060521582733646","853.3333333333334","529.3333333333334","j","false","img/S_ambi40.png","坏人","word_first",""
"","","","","","html-keyboard-response","380","590751","0.0-13.0-1.0-1.0-0.1-1.109","null","<span style='color:red; font-size: 70px;'>错误! </span>","null","","","","","","","","","","","","","","","","","","","","","","","feedback_test"
"","","","","","psychophysics","381","592450","0.0-13.0-1.0-1.0-0.1-0.110","548","","j","","","","","","","","","","","","","key","j","6.060569892473032","853.3333333333334","529.3333333333334","j","true","img/C_ambi40.png","常人","word_first",""
"","","","","","html-keyboard-response","382","592759","0.0-13.0-1.0-1.0-0.1-1.110","null","<span style='color:GreenYellow; font-size: 70px;'>正确! </span>","null","","","","","","","","","","","","","","","","","","","","","","","feedback_test"
"","","","","","psychophysics","383","594640","0.0-13.0-1.0-1.0-0.1-0.111","726","","j","","","","","","","","","","","","","key","j","6.060407766990188","853.3333333333334","529.3333333333334","j","true","img/S_ambi40.png","坏人","word_first",""
"","","","","","html-keyboard-response","384","594952","0.0-13.0-1.0-1.0-0.1-1.111","null","<span style='color:GreenYellow; font-size: 70px;'>正确! </span>","null","","","","","","","","","","","","","","","","","","","","","","","feedback_test"
"","","","","","psychophysics","385","596579","0.0-13.0-1.0-1.0-0.1-0.112","471","","f","","","","","","","","","","","","","key","f","6.060528089887504","853.3333333333334","529.3333333333334","f","true","img/C_ambi40.png","坏人","word_first",""
"","","","","","html-keyboard-response","386","596890","0.0-13.0-1.0-1.0-0.1-1.112","null","<span style='color:GreenYellow; font-size: 70px;'>正确! </span>","null","","","","","","","","","","","","","","","","","","","","","","","feedback_test"
"","","","","","psychophysics","387","598788","0.0-13.0-1.0-1.0-0.1-0.113","747","","j","","","","","","","","","","","","","key","j","6.060522435897535","853.3333333333334","529.3333333333334","j","true","img/C_ambi40.png","常人","word_first",""
"","","","","","html-keyboard-response","388","599101","0.0-13.0-1.0-1.0-0.1-1.113","null","<span style='color:GreenYellow; font-size: 70px;'>正确! </span>","null","","","","","","","","","","","","","","","","","","","","","","","feedback_test"
"","","","","","psychophysics","389","600888","0.0-13.0-1.0-1.0-0.1-0.114","635","","f","","","","","","","","","","","","","key","f","6.049839041096139","853.3333333333334","529.3333333333334","f","true","img/S_ambi40.png","好人","word_first",""
"","","","","","html-keyboard-response","390","601198","0.0-13.0-1.0-1.0-0.1-1.114","null","<span style='color:GreenYellow; font-size: 70px;'>正确! </span>","null","","","","","","","","","","","","","","","","","","","","","","","feedback_test"
"","","","","","psychophysics","391","602809","0.0-13.0-1.0-1.0-0.1-0.115","459","","j","","","","","","","","","","","","","key","j","6.0604848484848235","853.3333333333334","529.3333333333334","j","true","img/T_ambi40.png","好人","word_first",""
"","","","","","html-keyboard-response","392","603124","0.0-13.0-1.0-1.0-0.1-1.115","null","<span style='color:GreenYellow; font-size: 70px;'>正确! </span>","null","","","","","","","","","","","","","","","","","","","","","","","feedback_test"
"","","","","","psychophysics","393","604981","0.0-13.0-1.0-1.0-0.1-0.116","704","","j","","","","","","","","","","","","","key","j","6.060500000000116","853.3333333333334","529.3333333333334","j","true","img/T_ambi40.png","好人","word_first",""
"","","","","","html-keyboard-response","394","605285","0.0-13.0-1.0-1.0-0.1-1.116","null","<span style='color:GreenYellow; font-size: 70px;'>正确! </span>","null","","","","","","","","","","","","","","","","","","","","","","","feedback_test"
"","","","","","psychophysics","395","607010","0.0-13.0-1.0-1.0-0.1-0.117","575","","f","","","","","","","","","","","","","key","f","6.060455830388887","853.3333333333334","529.3333333333334","f","true","img/T_ambi40.png","常人","word_first",""
"","","","","","html-keyboard-response","396","607318","0.0-13.0-1.0-1.0-0.1-1.117","null","<span style='color:GreenYellow; font-size: 70px;'>正确! </span>","null","","","","","","","","","","","","","","","","","","","","","","","feedback_test"
"","","","","","psychophysics","397","609272","0.0-13.0-1.0-1.0-0.1-0.118","801","","f","","","","","","","","","","","","","key","f","6.060481366459555","853.3333333333334","529.3333333333334","f","true","img/S_ambi40.png","常人","word_first",""
"","","","","","html-keyboard-response","398","609584","0.0-13.0-1.0-1.0-0.1-1.118","null","<span style='color:GreenYellow; font-size: 70px;'>正确! </span>","null","","","","","","","","","","","","","","","","","","","","","","","feedback_test"
"","","","","","psychophysics","399","611551","0.0-13.0-1.0-1.0-0.1-0.119","813","","f","","","","","","","","","","","","","key","f","6.060503086419762","853.3333333333334","529.3333333333334","f","true","img/C_ambi40.png","好人","word_first",""
"","","","","","html-keyboard-response","400","611856","0.0-13.0-1.0-1.0-0.1-1.119","null","<span style='color:GreenYellow; font-size: 70px;'>正确! </span>","null","","","","","","","","","","","","","","","","","","","","","","","feedback_test"
"","","","","","html-keyboard-response","401","614812","0.0-13.0-1.0-1.0-1.1","2955","<style>.context{color:white; font-size: 35px; line-height:40px}</style>                              <div><p class='context'>您正确回答了90% 的试次。</p><p class='context'>您的平均反应时为654毫秒。</p><p class='context'>请按任意键进入休息</p></div>"," ","","","","","","","","","","","","","","","","","","","","","","",""
"","","","","","html-button-response","402","684943","0.0-13.0-1.0-1.0-2.1","70129","
                      <p>您当前还剩余2组实验</p>
                      <p>现在是休息时间，当您结束休息后，您可以点击 结束休息 按钮 继续</p>
                      <p>建议休息时间还剩余<span id=""iii"">60</span>秒</p>","0","","","","","","","","","","","","","","","","","","","","","","",""
"","","","","","psychophysics","403","686837","0.0-13.0-1.0-1.0-0.2-0.120","740","","f","","","","","","","","","","","","","key","f","6.077188311688233","853.3333333333334","529.3333333333334","f","true","img/T_ambi40.png","坏人","word_first",""
"","","","","","html-keyboard-response","404","687149","0.0-13.0-1.0-1.0-0.2-1.120","null","<span style='color:GreenYellow; font-size: 70px;'>正确! </span>","null","","","","","","","","","","","","","","","","","","","","","","","feedback_test"
"","","","","","psychophysics","405","688957","0.0-13.0-1.0-1.0-0.2-0.121","657","","f","","","","","","","","","","","","","key","f","6.0605218855218075","853.3333333333334","529.3333333333334","f","true","img/C_ambi40.png","好人","word_first",""
"","","","","","html-keyboard-response","406","689270","0.0-13.0-1.0-1.0-0.2-1.121","null","<span style='color:GreenYellow; font-size: 70px;'>正确! </span>","null","","","","","","","","","","","","","","","","","","","","","","","feedback_test"
"","","","","","psychophysics","407","691038","0.0-13.0-1.0-1.0-0.2-0.122","617","","f","","","","","","","","","","","","","key","f","6.060613793103378","853.3333333333334","529.3333333333334","f","true","img/S_ambi40.png","常人","word_first",""
"","","","","","html-keyboard-response","408","691354","0.0-13.0-1.0-1.0-0.2-1.122","null","<span style='color:GreenYellow; font-size: 70px;'>正确! </span>","null","","","","","","","","","","","","","","","","","","","","","","","feedback_test"
"","","","","","psychophysics","409","692995","0.0-13.0-1.0-1.0-0.2-0.123","489","","f","","","","","","","","","","","","","key","f","6.0605315985132115","853.3333333333334","529.3333333333334","f","true","img/T_ambi40.png","常人","word_first",""
