"success","timeout","failed_images","failed_audio","failed_video","trial_type","trial_index","time_elapsed","internal_node_id","rt","stimulus","response","value","item_width_mm","item_height_mm","item_width_px","px2mm","view_dist_mm","item_width_deg","px2deg","scale_factor","win_width_deg","win_height_deg","view_history","response_type","key_press","avg_frame_time","center_x","center_y","correct_response","correct","Image","word","condition","screen_id"
"true","false","[]","[]","[]","preload","0","376","0.0-0.0","","","","","","","","","","","","","","","","","","","","","","","","","",""
"","","","","","html-keyboard-response","1","9529","0.0-1.0","9151","
     <p>您好，欢迎参加本次实验。</p>
     <p>为充分保障您的权利，请确保您已经知晓并同意《参与实验同意书》以及《数据公开知情同意书》。</p>
     <p>如果您未见过上述内容，请咨询实验员。</p>
     <p>如果您选择继续实验，则表示您已经清楚两份知情同意书的内容并同意。</p>
     <p> <div style = ""color: green""><按任意键至下页></div> </p>
     ","j","","","","","","","","","","","","","","","","","","","","","","",""
"","","","","","html-keyboard-response","2","11603","0.0-2.0","2073","
     <p>本实验首先需要您填写一些基本个人信息。</p>
     <p> <div style = ""color: green""><按任意键至下页></div></p>
     ","j","","","","","","","","","","","","","","","","","","","","","","",""
"","","","","","call-function","3","11604","0.0-3.0-0.0","","","","","","","","","","","","","","","","","","","","","","","","","",""
"","","","","","survey-html-form","4","16472","0.0-3.0-1.0","4866","","{""Q0"":""1""}","","","","","","","","","","","","","","","","","","","","","","",""
"","","","","","html-button-response","5","18280","0.0-3.0-2.0","1805","<p style = 'color : white'>您的性别</p>","0","","","","","","","","","","","","","","","","","","","","","","",""
"","","","","","survey-html-form","6","25559","0.0-3.0-3.0","7278","","{""Q0"":""2000""}","","","","","","","","","","","","","","","","","","","","","","",""
"","","","","","survey-html-form","7","31347","0.0-3.0-4.0","5788","","{""Q0"":""5""}","","","","","","","","","","","","","","","","","","","","","","",""
"","","","","","virtual-chinrest","8","103075","0.0-4.0","71725","","","","85.6","53.98","597.6757435758782","6.989767170633151","408.81","11.953514871517564","50","0.5922944067999604","24.66","11.38","","","","","","","","","","","",""
"true","","","","","fullscreen","9","108849","0.0-5.0","","","","","","","","","","","","","","","","","","","","","","","","","",""
"","","","","","instructions","10","214055","0.0-6.0","105205","","","","","","","","","","","","","","[{""page_index"":0,""viewing_time"":11828},{""page_index"":1,""viewing_time"":78901},{""page_index"":2,""viewing_time"":11186},{""page_index"":3,""viewing_time"":3289}]","","","","","","","","","","",""
"","","","","","psychophysics","11","216004","0.0-7.0-0.0-0.0","793","","j","","","","","","","","","","","","","key","j","16.652896551723924","640","356","j","true","img/T_ambi40.png","常人","prac_image_first",""
"","","","","","html-keyboard-response","12","216315","0.0-7.0-0.0-1.0","null","<span style='color:GreenYellow; font-size: 70px;'>正确! </span>","null","","","","","","","","","","","","","","","","","","","","","","","feedback_test"
"","","","","","psychophysics","13","218339","0.0-7.0-0.0-0.1","865","","f","","","","","","","","","","","","","key","f","16.652983333333395","640","356","f","true","img/S_ambi40.png","常人","prac_image_first",""
"","","","","","html-keyboard-response","14","218649","0.0-7.0-0.0-1.1","null","<span style='color:GreenYellow; font-size: 70px;'>正确! </span>","null","","","","","","","","","","","","","","","","","","","","","","","feedback_test"
"","","","","","psychophysics","15","220638","0.0-7.0-0.0-0.2","836","","j","","","","","","","","","","","","","key","j","16.653584745762647","640","356","j","true","img/S_ambi40.png","坏人","prac_image_first",""
"","","","","","html-keyboard-response","16","220955","0.0-7.0-0.0-1.2","null","<span style='color:GreenYellow; font-size: 70px;'>正确! </span>","null","","","","","","","","","","","","","","","","","","","","","","","feedback_test"
"","","","","","psychophysics","17","223074","0.0-7.0-0.0-0.3","961","","f","","","","","","","","","","","","","key","f","16.65300793650778","640","356","f","true","img/T_ambi40.png","好人","prac_image_first",""
"","","","","","html-keyboard-response","18","223385","0.0-7.0-0.0-1.3","null","<span style='color:GreenYellow; font-size: 70px;'>正确! </span>","null","","","","","","","","","","","","","","","","","","","","","","","feedback_test"
"","","","","","psychophysics","19","225388","0.0-7.0-0.0-0.4","852","","j","","","","","","","","","","","","","key","j","16.549067226890816","640","356","j","true","img/S_ambi40.png","坏人","prac_image_first",""
"","","","","","html-keyboard-response","20","225702","0.0-7.0-0.0-1.4","null","<span style='color:GreenYellow; font-size: 70px;'>正确! </span>","null","","","","","","","","","","","","","","","","","","","","","","","feedback_test"
"","","","","","psychophysics","21","227697","0.0-7.0-0.0-0.5","838","","j","","","","","","","","","","","","","key","j","16.653135593220398","640","356","j","true","img/C_ambi40.png","好人","prac_image_first",""
"","","","","","html-keyboard-response","22","228003","0.0-7.0-0.0-1.5","null","<span style='color:GreenYellow; font-size: 70px;'>正确! </span>","null","","","","","","","","","","","","","","","","","","","","","","","feedback_test"
"","","","","","psychophysics","23","229991","0.0-7.0-0.0-0.6","828","","f","","","","","","","","","","","","","key","f","16.65352542372889","640","356","f","true","img/C_ambi40.png","坏人","prac_image_first",""
"","","","","","html-keyboard-response","24","230311","0.0-7.0-0.0-1.6","null","<span style='color:GreenYellow; font-size: 70px;'>正确! </span>","null","","","","","","","","","","","","","","","","","","","","","","","feedback_test"
"","","","","","psychophysics","25","232165","0.0-7.0-0.0-0.7","701","","f","","","","","","","","","","","","","key","f","16.6534414414415","640","356","f","true","img/T_ambi40.png","坏人","prac_image_first",""
"","","","","","html-keyboard-response","26","232487","0.0-7.0-0.0-1.7","null","<span style='color:GreenYellow; font-size: 70px;'>正确! </span>","null","","","","","","","","","","","","","","","","","","","","","","","feedback_test"
"","","","","","psychophysics","27","234335","0.0-7.0-0.0-0.8","693","","f","","","","","","","","","","","","","key","f","16.653945454545532","640","356","f","true","img/S_ambi40.png","好人","prac_image_first",""
"","","","","","html-keyboard-response","28","234647","0.0-7.0-0.0-1.8","null","<span style='color:GreenYellow; font-size: 70px;'>正确! </span>","null","","","","","","","","","","","","","","","","","","","","","","","feedback_test"
"","","","","","psychophysics","29","236549","0.0-7.0-0.0-0.9","747","","j","","","","","","","","","","","","","key","j","16.653159292035404","640","356","j","true","img/T_ambi40.png","常人","prac_image_first",""
"","","","","","html-keyboard-response","30","236871","0.0-7.0-0.0-1.9","null","<span style='color:GreenYellow; font-size: 70px;'>正确! </span>","null","","","","","","","","","","","","","","","","","","","","","","","feedback_test"
"","","","","","psychophysics","31","239103","0.0-7.0-0.0-0.10","1079","","f","","","","","","","","","","","","","key","f","16.65321804511276","640","356","f","true","img/C_ambi40.png","常人","prac_image_first",""
"","","","","","html-keyboard-response","32","239413","0.0-7.0-0.0-1.10","null","<span style='color:GreenYellow; font-size: 70px;'>正确! </span>","null","","","","","","","","","","","","","","","","","","","","","","","feedback_test"
"","","","","","psychophysics","33","241156","0.0-7.0-0.0-0.11","586","","j","","","","","","","","","","","","","key","j","16.65276923076929","640","356","j","true","img/C_ambi40.png","好人","prac_image_first",""
"","","","","","html-keyboard-response","34","241459","0.0-7.0-0.0-1.11","null","<span style='color:GreenYellow; font-size: 70px;'>正确! </span>","null","","","","","","","","","","","","","","","","","","","","","","","feedback_test"
"","","","","","psychophysics","35","243316","0.0-7.0-0.0-0.12","698","","j","","","","","","","","","","","","","key","j","16.653800000000047","640","356","j","true","img/S_ambi40.png","坏人","prac_image_first",""
"","","","","","html-keyboard-response","36","243626","0.0-7.0-0.0-1.12","null","<span style='color:GreenYellow; font-size: 70px;'>正确! </span>","null","","","","","","","","","","","","","","","","","","","","","","","feedback_test"
"","","","","","psychophysics","37","245536","0.0-7.0-0.0-0.13","758","","j","","","","","","","","","","","","","key","j","16.652929824561475","640","356","j","true","img/C_ambi40.png","好人","prac_image_first",""
"","","","","","html-keyboard-response","38","245854","0.0-7.0-0.0-1.13","null","<span style='color:GreenYellow; font-size: 70px;'>正确! </span>","null","","","","","","","","","","","","","","","","","","","","","","","feedback_test"
"","","","","","psychophysics","39","247637","0.0-7.0-0.0-0.14","628","","f","","","","","","","","","","","","","key","f","16.652632075471733","640","356","f","true","img/C_ambi40.png","坏人","prac_image_first",""
"","","","","","html-keyboard-response","40","247957","0.0-7.0-0.0-1.14","null","<span style='color:GreenYellow; font-size: 70px;'>正确! </span>","null","","","","","","","","","","","","","","","","","","","","","","","feedback_test"
"","","","","","psychophysics","41","249826","0.0-7.0-0.0-0.15","712","","f","","","","","","","","","","","","","key","f","16.653054054054067","640","356","f","true","img/C_ambi40.png","常人","prac_image_first",""
"","","","","","html-keyboard-response","42","250137","0.0-7.0-0.0-1.15","null","<span style='color:GreenYellow; font-size: 70px;'>正确! </span>","null","","","","","","","","","","","","","","","","","","","","","","","feedback_test"
"","","","","","psychophysics","43","252001","0.0-7.0-0.0-0.16","711","","j","","","","","","","","","","","","","key","j","16.65269369369363","640","356","j","true","img/S_ambi40.png","坏人","prac_image_first",""
"","","","","","html-keyboard-response","44","252317","0.0-7.0-0.0-1.16","null","<span style='color:GreenYellow; font-size: 70px;'>正确! </span>","null","","","","","","","","","","","","","","","","","","","","","","","feedback_test"
"","","","","","psychophysics","45","254203","0.0-7.0-0.0-0.17","730","","j","","","","","","","","","","","","","key","j","16.653267857142833","640","356","j","true","img/T_ambi40.png","常人","prac_image_first",""
"","","","","","html-keyboard-response","46","254518","0.0-7.0-0.0-1.17","null","<span style='color:GreenYellow; font-size: 70px;'>正确! </span>","null","","","","","","","","","","","","","","","","","","","","","","","feedback_test"
"","","","","","psychophysics","47","256585","0.0-7.0-0.0-0.18","911","","f","","","","","","","","","","","","","key","f","16.65327642276425","640","356","f","true","img/T_ambi40.png","好人","prac_image_first",""
"","","","","","html-keyboard-response","48","256899","0.0-7.0-0.0-1.18","null","<span style='color:GreenYellow; font-size: 70px;'>正确! </span>","null","","","","","","","","","","","","","","","","","","","","","","","feedback_test"
"","","","","","psychophysics","49","258718","0.0-7.0-0.0-0.19","660","","f","","","","","","","","","","","","","key","f","16.653388888888813","640","356","f","true","img/S_ambi40.png","好人","prac_image_first",""
"","","","","","html-keyboard-response","50","259036","0.0-7.0-0.0-1.19","null","<span style='color:GreenYellow; font-size: 70px;'>正确! </span>","null","","","","","","","","","","","","","","","","","","","","","","","feedback_test"
"","","","","","psychophysics","51","261249","0.0-7.0-0.0-0.20","1059","","j","","","","","","","","","","","","","key","j","16.653303030303064","640","356","j","true","img/T_ambi40.png","常人","prac_image_first",""
"","","","","","html-keyboard-response","52","261556","0.0-7.0-0.0-1.20","null","<span style='color:GreenYellow; font-size: 70px;'>正确! </span>","null","","","","","","","","","","","","","","","","","","","","","","","feedback_test"
"","","","","","psychophysics","53","263301","0.0-7.0-0.0-0.21","587","","j","","","","","","","","","","","","","key","j","16.652475728154933","640","356","j","true","img/C_ambi40.png","好人","prac_image_first",""
"","","","","","html-keyboard-response","54","263624","0.0-7.0-0.0-1.21","null","<span style='color:GreenYellow; font-size: 70px;'>正确! </span>","null","","","","","","","","","","","","","","","","","","","","","","","feedback_test"
"","","","","","psychophysics","55","265565","0.0-7.0-0.0-0.22","786","","f","","","","","","","","","","","","","key","f","16.65495652173919","640","356","f","true","img/S_ambi40.png","常人","prac_image_first",""
"","","","","","html-keyboard-response","56","265882","0.0-7.0-0.0-1.22","null","<span style='color:GreenYellow; font-size: 70px;'>正确! </span>","null","","","","","","","","","","","","","","","","","","","","","","","feedback_test"
"","","","","","psychophysics","57","267814","0.0-7.0-0.0-0.23","779","","f","","","","","","","","","","","","","key","f","16.652773913043127","640","356","f","true","img/T_ambi40.png","坏人","prac_image_first",""
"","","","","","html-keyboard-response","58","268124","0.0-7.0-0.0-1.23","null","<span style='color:GreenYellow; font-size: 70px;'>正确! </span>","null","","","","","","","","","","","","","","","","","","","","","","","feedback_test"
"","","","","","html-keyboard-response","59","280897","0.0-8.0","12771","<style>.context{color:white; font-size: 35px; line-height:40px}</style>                              <div><p class='context'>您正确回答了100% 的试次。</p><p class='context'>您的平均反应时为783毫秒。</p><p class='context'>恭喜您完成这一阶段的练习。按任意键进入<span style='color: yellow;'>先文字后图形条件</span>的练习。</p></div>","j","","","","","","","","","","","","","","","","","","","","","","",""
"","","","","","psychophysics","60","282757","0.0-9.0-0.0-0.0","702","","j","","","","","","","","","","","","","key","j","16.653108108108068","640","356","j","true","img/S_ambi40.png","坏人","prac_word_first",""
"","","","","","html-keyboard-response","61","283075","0.0-9.0-0.0-1.0","null","<span style='color:GreenYellow; font-size: 70px;'>正确! </span>","null","","","","","","","","","","","","","","","","","","","","","","","feedback_test"
"","","","","","psychophysics","62","284910","0.0-9.0-0.0-0.1","676","","j","","","","","","","","","","","","","key","j","16.65346788990828","640","356","j","true","img/C_ambi40.png","好人","prac_word_first",""
"","","","","","html-keyboard-response","63","285222","0.0-9.0-0.0-1.1","null","<span style='color:GreenYellow; font-size: 70px;'>正确! </span>","null","","","","","","","","","","","","","","","","","","","","","","","feedback_test"
"","","","","","psychophysics","64","287054","0.0-9.0-0.0-0.2","675","","f","","","","","","","","","","","","","key","f","16.65287155963303","640","356","f","true","img/S_ambi40.png","常人","prac_word_first",""
"","","","","","html-keyboard-response","65","287373","0.0-9.0-0.0-1.2","null","<span style='color:GreenYellow; font-size: 70px;'>正确! </span>","null","","","","","","","","","","","","","","","","","","","","","","","feedback_test"
"","","","","","psychophysics","66","289464","0.0-9.0-0.0-0.3","933","","f","","","","","","","","","","","","","key","f","16.65324999999974","640","356","j","false","img/T_ambi40.png","常人","prac_word_first",""
"","","","","","html-keyboard-response","67","289774","0.0-9.0-0.0-1.3","null","<span style='color:red; font-size: 70px;'>错误! </span>","null","","","","","","","","","","","","","","","","","","","","","","","feedback_test"
"","","","","","psychophysics","68","291620","0.0-9.0-0.0-0.4","689","","j","","","","","","","","","","","","","key","j","16.652727272727166","640","356","j","true","img/S_ambi40.png","坏人","prac_word_first",""
"","","","","","html-keyboard-response","69","291922","0.0-9.0-0.0-1.4","null","<span style='color:GreenYellow; font-size: 70px;'>正确! </span>","null","","","","","","","","","","","","","","","","","","","","","","","feedback_test"
"","","","","","psychophysics","70","293916","0.0-9.0-0.0-0.5","841","","f","","","","","","","","","","","","","key","f","16.652521008403557","640","356","f","true","img/C_ambi40.png","坏人","prac_word_first",""
"","","","","","html-keyboard-response","71","294218","0.0-9.0-0.0-1.5","null","<span style='color:GreenYellow; font-size: 70px;'>正确! </span>","null","","","","","","","","","","","","","","","","","","","","","","","feedback_test"
"","","","","","psychophysics","72","296323","0.0-9.0-0.0-0.6","953","","f","","","","","","","","","","","","","key","f","16.653399999999905","640","356","f","true","img/T_ambi40.png","坏人","prac_word_first",""
"","","","","","html-keyboard-response","73","296629","0.0-9.0-0.0-1.6","null","<span style='color:GreenYellow; font-size: 70px;'>正确! </span>","null","","","","","","","","","","","","","","","","","","","","","","","feedback_test"
"","","","","","psychophysics","74","298587","0.0-9.0-0.0-0.7","801","","j","","","","","","","","","","","","","key","j","16.65296551724143","640","356","j","true","img/T_ambi40.png","常人","prac_word_first",""
"","","","","","html-keyboard-response","75","298901","0.0-9.0-0.0-1.7","null","<span style='color:GreenYellow; font-size: 70px;'>正确! </span>","null","","","","","","","","","","","","","","","","","","","","","","","feedback_test"
"","","","","","psychophysics","76","300825","0.0-9.0-0.0-0.8","768","","f","","","","","","","","","","","","","key","f","16.65357391304367","640","356","f","true","img/S_ambi40.png","好人","prac_word_first",""
"","","","","","html-keyboard-response","77","301132","0.0-9.0-0.0-1.8","null","<span style='color:GreenYellow; font-size: 70px;'>正确! </span>","null","","","","","","","","","","","","","","","","","","","","","","","feedback_test"
"","","","","","psychophysics","78","302867","0.0-9.0-0.0-0.9","578","","j","","","","","","","","","","","","","key","j","16.653262135922542","640","356","j","true","img/C_ambi40.png","好人","prac_word_first",""
"","","","","","html-keyboard-response","79","303177","0.0-9.0-0.0-1.9","null","<span style='color:GreenYellow; font-size: 70px;'>正确! </span>","null","","","","","","","","","","","","","","","","","","","","","","","feedback_test"
"","","","","","psychophysics","80","304925","0.0-9.0-0.0-0.10","595","","f","","","","","","","","","","","","","key","f","16.65263461538472","640","356","f","true","img/C_ambi40.png","常人","prac_word_first",""
"","","","","","html-keyboard-response","81","305247","0.0-9.0-0.0-1.10","null","<span style='color:GreenYellow; font-size: 70px;'>正确! </span>","null","","","","","","","","","","","","","","","","","","","","","","","feedback_test"
"","","","","","psychophysics","82","307094","0.0-9.0-0.0-0.11","693","","f","","","","","","","","","","","","","key","f","16.6533545454546","640","356","f","true","img/T_ambi40.png","好人","prac_word_first",""
"","","","","","html-keyboard-response","83","307409","0.0-9.0-0.0-1.11","null","<span style='color:GreenYellow; font-size: 70px;'>正确! </span>","null","","","","","","","","","","","","","","","","","","","","","","","feedback_test"
"","","","","","psychophysics","84","309238","0.0-9.0-0.0-0.12","677","","f","","","","","","","","","","","","","key","f","16.653550458715273","640","356","f","true","img/S_ambi40.png","常人","prac_word_first",""
"","","","","","html-keyboard-response","85","309556","0.0-9.0-0.0-1.12","null","<span style='color:GreenYellow; font-size: 70px;'>正确! </span>","null","","","","","","","","","","","","","","","","","","","","","","","feedback_test"
"","","","","","psychophysics","86","311594","0.0-9.0-0.0-0.13","880","","j","","","","","","","","","","","","","key","j","16.653578512397043","640","356","j","true","img/T_ambi40.png","常人","prac_word_first",""
"","","","","","html-keyboard-response","87","311908","0.0-9.0-0.0-1.13","null","<span style='color:GreenYellow; font-size: 70px;'>正确! </span>","null","","","","","","","","","","","","","","","","","","","","","","","feedback_test"
"","","","","","psychophysics","88","313845","0.0-9.0-0.0-0.14","782","","f","","","","","","","","","","","","","key","f","16.65366956521757","640","356","f","true","img/C_ambi40.png","坏人","prac_word_first",""
"","","","","","html-keyboard-response","89","314151","0.0-9.0-0.0-1.14","null","<span style='color:GreenYellow; font-size: 70px;'>正确! </span>","null","","","","","","","","","","","","","","","","","","","","","","","feedback_test"
"","","","","","psychophysics","90","316010","0.0-9.0-0.0-0.15","703","","j","","","","","","","","","","","","","key","j","16.652963636363644","640","356","j","true","img/T_ambi40.png","常人","prac_word_first",""
"","","","","","html-keyboard-response","91","316329","0.0-9.0-0.0-1.15","null","<span style='color:GreenYellow; font-size: 70px;'>正确! </span>","null","","","","","","","","","","","","","","","","","","","","","","","feedback_test"
"","","","","","psychophysics","92","318296","0.0-9.0-0.0-0.16","814","","f","","","","","","","","","","","","","key","f","16.65345299145322","640","356","f","true","img/S_ambi40.png","好人","prac_word_first",""
"","","","","","html-keyboard-response","93","318608","0.0-9.0-0.0-1.16","null","<span style='color:GreenYellow; font-size: 70px;'>正确! </span>","null","","","","","","","","","","","","","","","","","","","","","","","feedback_test"
"","","","","","psychophysics","94","320496","0.0-9.0-0.0-0.17","722","","j","","","","","","","","","","","","","key","j","16.652642857142514","640","356","j","true","img/C_ambi40.png","好人","prac_word_first",""
"","","","","","html-keyboard-response","95","320817","0.0-9.0-0.0-1.17","null","<span style='color:GreenYellow; font-size: 70px;'>正确! </span>","null","","","","","","","","","","","","","","","","","","","","","","","feedback_test"
"","","","","","psychophysics","96","322655","0.0-9.0-0.0-0.18","684","","j","","","","","","","","","","","","","key","j","16.654743119265774","640","356","j","true","img/C_ambi40.png","好人","prac_word_first",""
"","","","","","html-keyboard-response","97","322976","0.0-9.0-0.0-1.18","null","<span style='color:GreenYellow; font-size: 70px;'>正确! </span>","null","","","","","","","","","","","","","","","","","","","","","","","feedback_test"
"","","","","","psychophysics","98","324715","0.0-9.0-0.0-0.19","585","","f","","","","","","","","","","","","","key","f","16.652796116504973","640","356","f","true","img/C_ambi40.png","常人","prac_word_first",""
"","","","","","html-keyboard-response","99","325028","0.0-9.0-0.0-1.19","null","<span style='color:GreenYellow; font-size: 70px;'>正确! </span>","null","","","","","","","","","","","","","","","","","","","","","","","feedback_test"
"","","","","","psychophysics","100","327042","0.0-9.0-0.0-0.20","856","","f","","","","","","","","","","","","","key","f","16.653241666666872","640","356","f","true","img/T_ambi40.png","好人","prac_word_first",""
"","","","","","html-keyboard-response","101","327346","0.0-9.0-0.0-1.20","null","<span style='color:GreenYellow; font-size: 70px;'>正确! </span>","null","","","","","","","","","","","","","","","","","","","","","","","feedback_test"
"","","","","","psychophysics","102","329109","0.0-9.0-0.0-0.21","610","","j","","","","","","","","","","","","","key","j","16.653190476190122","640","356","j","true","img/S_ambi40.png","坏人","prac_word_first",""
"","","","","","html-keyboard-response","103","329414","0.0-9.0-0.0-1.21","null","<span style='color:GreenYellow; font-size: 70px;'>正确! </span>","null","","","","","","","","","","","","","","","","","","","","","","","feedback_test"
"","","","","","psychophysics","104","331366","0.0-9.0-0.0-0.22","800","","f","","","","","","","","","","","","","key","f","16.545801724138137","640","356","f","true","img/T_ambi40.png","坏人","prac_word_first",""
"","","","","","html-keyboard-response","105","331680","0.0-9.0-0.0-1.22","null","<span style='color:GreenYellow; font-size: 70px;'>正确! </span>","null","","","","","","","","","","","","","","","","","","","","","","","feedback_test"
"","","","","","psychophysics","106","333524","0.0-9.0-0.0-0.23","690","","j","","","","","","","","","","","","","key","j","16.529752293578134","640","356","j","true","img/S_ambi40.png","坏人","prac_word_first",""
"","","","","","html-keyboard-response","107","333834","0.0-9.0-0.0-1.23","null","<span style='color:GreenYellow; font-size: 70px;'>正确! </span>","null","","","","","","","","","","","","","","","","","","","","","","","feedback_test"
"","","","","","html-keyboard-response","108","342124","0.0-10.0","8288","<style>.context{color:white; font-size: 35px; line-height:40px}</style>                              <div><p class='context'>您正确回答了96% 的试次。</p><p class='context'>您的平均反应时为729毫秒。</p><p class='context'>恭喜您完成练习。按任意键进入<span style='color: yellow;'>图形和文字同时呈现条件</span>的练习。</p></div>","j","","","","","","","","","","","","","","","","","","","","","","",""
"","","","","","psychophysics","109","343953","0.0-11.0-0.0-0.0","823","","j","","","","","","","","","","","","","key","j","16.65175925925939","640","356","j","true","img/C_ambi40.png","好人","prac_simultaneous",""
"","","","","","html-keyboard-response","110","344260","0.0-11.0-0.0-1.0","null","<span style='color:GreenYellow; font-size: 70px;'>正确! </span>","null","","","","","","","","","","","","","","","","","","","","","","","feedback_test"
"","","","","","psychophysics","111","346428","0.0-11.0-0.0-0.1","1161","","f","","","","","","","","","","","","","key","f","16.65292248062026","640","356","j","false","img/S_ambi40.png","坏人","prac_simultaneous",""
"","","","","","html-keyboard-response","112","346738","0.0-11.0-0.0-1.1","null","<span style='color:red; font-size: 70px;'>错误! </span>","null","","","","","","","","","","","","","","","","","","","","","","","feedback_test"
"","","","","","psychophysics","113","349020","0.0-11.0-0.0-0.2","1273","","f","","","","","","","","","","","","","key","f","16.653117647058988","640","356","j","false","img/T_ambi40.png","常人","prac_simultaneous",""
"","","","","","html-keyboard-response","114","349335","0.0-11.0-0.0-1.2","null","<span style='color:red; font-size: 70px;'>错误! </span>","null","","","","","","","","","","","","","","","","","","","","","","","feedback_test"
"","","","","","psychophysics","115","351218","0.0-11.0-0.0-0.3","880","","f","","","","","","","","","","","","","key","f","16.651598214285645","640","356","f","true","img/C_ambi40.png","常人","prac_simultaneous",""
"","","","","","html-keyboard-response","116","351527","0.0-11.0-0.0-1.3","null","<span style='color:GreenYellow; font-size: 70px;'>正确! </span>","null","","","","","","","","","","","","","","","","","","","","","","","feedback_test"
"","","","","","psychophysics","117","353200","0.0-11.0-0.0-0.4","670","","j","","","","","","","","","","","","","key","j","16.65313000000024","640","356","j","true","img/S_ambi40.png","坏人","prac_simultaneous",""
"","","","","","html-keyboard-response","118","353521","0.0-11.0-0.0-1.4","null","<span style='color:GreenYellow; font-size: 70px;'>正确! </span>","null","","","","","","","","","","","","","","","","","","","","","","","feedback_test"
"","","","","","psychophysics","119","355515","0.0-11.0-0.0-0.5","992","","f","","","","","","","","","","","","","key","f","16.65315966386526","640","356","f","true","img/S_ambi40.png","好人","prac_simultaneous",""
"","","","","","html-keyboard-response","120","355830","0.0-11.0-0.0-1.5","null","<span style='color:GreenYellow; font-size: 70px;'>正确! </span>","null","","","","","","","","","","","","","","","","","","","","","","","feedback_test"
"","","","","","psychophysics","121","357728","0.0-11.0-0.0-0.6","893","","f","","","","","","","","","","","","","key","f","16.652761061946794","640","356","f","true","img/S_ambi40.png","常人","prac_simultaneous",""
"","","","","","html-keyboard-response","122","358041","0.0-11.0-0.0-1.6","null","<span style='color:GreenYellow; font-size: 70px;'>正确! </span>","null","","","","","","","","","","","","","","","","","","","","","","","feedback_test"
"","","","","","psychophysics","123","360007","0.0-11.0-0.0-0.7","965","","f","","","","","","","","","","","","","key","f","16.533818965517327","640","356","f","true","img/C_ambi40.png","坏人","prac_simultaneous",""
"","","","","","html-keyboard-response","124","360328","0.0-11.0-0.0-1.7","null","<span style='color:GreenYellow; font-size: 70px;'>正确! </span>","null","","","","","","","","","","","","","","","","","","","","","","","feedback_test"
"","","","","","psychophysics","125","362206","0.0-11.0-0.0-0.8","875","","j","","","","","","","","","","","","","key","j","16.65362162162185","640","356","j","true","img/T_ambi40.png","常人","prac_simultaneous",""
"","","","","","html-keyboard-response","126","362517","0.0-11.0-0.0-1.8","null","<span style='color:GreenYellow; font-size: 70px;'>正确! </span>","null","","","","","","","","","","","","","","","","","","","","","","","feedback_test"
"","","","","","psychophysics","127","364458","0.0-11.0-0.0-0.9","937","","f","","","","","","","","","","","","","key","f","16.654163793103713","640","356","f","true","img/T_ambi40.png","坏人","prac_simultaneous",""
"","","","","","html-keyboard-response","128","364773","0.0-11.0-0.0-1.9","null","<span style='color:GreenYellow; font-size: 70px;'>正确! </span>","null","","","","","","","","","","","","","","","","","","","","","","","feedback_test"
"","","","","","psychophysics","129","366456","0.0-11.0-0.0-0.10","678","","j","","","","","","","","","","","","","key","j","16.653449999999722","640","356","j","true","img/C_ambi40.png","好人","prac_simultaneous",""
"","","","","","html-keyboard-response","130","366772","0.0-11.0-0.0-1.10","null","<span style='color:GreenYellow; font-size: 70px;'>正确! </span>","null","","","","","","","","","","","","","","","","","","","","","","","feedback_test"
"","","","","","psychophysics","131","368644","0.0-11.0-0.0-0.11","866","","f","","","","","","","","","","","","","key","f","16.653243243243327","640","356","f","true","img/T_ambi40.png","好人","prac_simultaneous",""
"","","","","","html-keyboard-response","132","368948","0.0-11.0-0.0-1.11","null","<span style='color:GreenYellow; font-size: 70px;'>正确! </span>","null","","","","","","","","","","","","","","","","","","","","","","","feedback_test"
"","","","","","psychophysics","133","370707","0.0-11.0-0.0-0.12","757","","j","","","","","","","","","","","","","key","j","16.653371428571354","640","356","j","true","img/T_ambi40.png","常人","prac_simultaneous",""
"","","","","","html-keyboard-response","134","371014","0.0-11.0-0.0-1.12","null","<span style='color:GreenYellow; font-size: 70px;'>正确! </span>","null","","","","","","","","","","","","","","","","","","","","","","","feedback_test"
"","","","","","psychophysics","135","372985","0.0-11.0-0.0-0.13","967","","f","","","","","","","","","","","","","key","f","16.653008547008564","640","356","f","true","img/T_ambi40.png","好人","prac_simultaneous",""
"","","","","","html-keyboard-response","136","373304","0.0-11.0-0.0-1.13","null","<span style='color:GreenYellow; font-size: 70px;'>正确! </span>","null","","","","","","","","","","","","","","","","","","","","","","","feedback_test"
"","","","","","psychophysics","137","375325","0.0-11.0-0.0-0.14","1019","","j","","","","","","","","","","","","","key","j","16.65352500000008","640","356","j","true","img/T_ambi40.png","常人","prac_simultaneous",""
"","","","","","html-keyboard-response","138","375636","0.0-11.0-0.0-1.14","null","<span style='color:GreenYellow; font-size: 70px;'>正确! </span>","null","","","","","","","","","","","","","","","","","","","","","","","feedback_test"
"","","","","","psychophysics","139","377487","0.0-11.0-0.0-0.15","845","","f","","","","","","","","","","","","","key","f","16.653390909091105","640","356","f","true","img/S_ambi40.png","好人","prac_simultaneous",""
"","","","","","html-keyboard-response","140","377804","0.0-11.0-0.0-1.15","null","<span style='color:GreenYellow; font-size: 70px;'>正确! </span>","null","","","","","","","","","","","","","","","","","","","","","","","feedback_test"
"","","","","","psychophysics","141","379537","0.0-11.0-0.0-0.16","728","","j","","","","","","","","","","","","","key","j","16.653359223301273","640","356","j","true","img/C_ambi40.png","好人","prac_simultaneous",""
"","","","","","html-keyboard-response","142","379844","0.0-11.0-0.0-1.16","null","<span style='color:GreenYellow; font-size: 70px;'>正确! </span>","null","","","","","","","","","","","","","","","","","","","","","","","feedback_test"
"","","","","","psychophysics","143","381715","0.0-11.0-0.0-0.17","859","","f","","","","","","","","","","","","","key","f","16.653126126126416","640","356","f","true","img/C_ambi40.png","坏人","prac_simultaneous",""
"","","","","","html-keyboard-response","144","382020","0.0-11.0-0.0-1.17","null","<span style='color:GreenYellow; font-size: 70px;'>正确! </span>","null","","","","","","","","","","","","","","","","","","","","","","","feedback_test"
"","","","","","psychophysics","145","383871","0.0-11.0-0.0-0.18","850","","f","","","","","","","","","","","","","key","f","16.546390909090935","640","356","f","true","img/S_ambi40.png","常人","prac_simultaneous",""
"","","","","","html-keyboard-response","146","384187","0.0-11.0-0.0-1.18","null","<span style='color:GreenYellow; font-size: 70px;'>正确! </span>","null","","","","","","","","","","","","","","","","","","","","","","","feedback_test"
"","","","","","psychophysics","147","386107","0.0-11.0-0.0-0.19","913","","j","","","","","","","","","","","","","key","j","16.652701754385927","640","356","j","true","img/S_ambi40.png","坏人","prac_simultaneous",""
"","","","","","html-keyboard-response","148","386415","0.0-11.0-0.0-1.19","null","<span style='color:GreenYellow; font-size: 70px;'>正确! </span>","null","","","","","","","","","","","","","","","","","","","","","","","feedback_test"
"","","","","","psychophysics","149","388177","0.0-11.0-0.0-0.20","760","","j","","","","","","","","","","","","","key","j","16.65386666666683","640","356","j","true","img/C_ambi40.png","好人","prac_simultaneous",""
"","","","","","html-keyboard-response","150","388486","0.0-11.0-0.0-1.20","null","<span style='color:GreenYellow; font-size: 70px;'>正确! </span>","null","","","","","","","","","","","","","","","","","","","","","","","feedback_test"
"","","","","","psychophysics","151","390512","0.0-11.0-0.0-0.21","1023","","f","","","","","","","","","","","","","key","f","16.653233333333144","640","356","f","true","img/T_ambi40.png","坏人","prac_simultaneous",""
"","","","","","html-keyboard-response","152","390828","0.0-11.0-0.0-1.21","null","<span style='color:GreenYellow; font-size: 70px;'>正确! </span>","null","","","","","","","","","","","","","","","","","","","","","","","feedback_test"
"","","","","","psychophysics","153","392564","0.0-11.0-0.0-0.22","734","","j","","","","","","","","","","","","","key","j","16.653432692307643","640","356","j","true","img/S_ambi40.png","坏人","prac_simultaneous",""
"","","","","","html-keyboard-response","154","392885","0.0-11.0-0.0-1.22","null","<span style='color:GreenYellow; font-size: 70px;'>正确! </span>","null","","","","","","","","","","","","","","","","","","","","","","","feedback_test"
"","","","","","psychophysics","155","394702","0.0-11.0-0.0-0.23","813","","f","","","","","","","","","","","","","key","f","16.653185185185134","640","356","f","true","img/C_ambi40.png","常人","prac_simultaneous",""
"","","","","","html-keyboard-response","156","395021","0.0-11.0-0.0-1.23","null","<span style='color:GreenYellow; font-size: 70px;'>正确! </span>","null","","","","","","","","","","","","","","","","","","","","","","","feedback_test"
"","","","","","html-keyboard-response","157","423068","0.0-12.0","28045","<style>.context{color:white; font-size: 35px; line-height:40px}</style>                              <div><p class='context'>您正确回答了92% 的试次。</p><p class='context'>您的平均反应时为857毫秒。</p><p class='context'>恭喜您完成练习。按任意键进入正式实验。</p><p class='footer' style='font-size: 35px; line-height:40px;'>请在进入正式实验实验之前将您的<span style='color: lightgreen;'>食指</span>放在电脑键盘的相应键位上进行按键。</p>","j","","","","","","","","","","","","","","","","","","","","","","",""
"","","","","","html-keyboard-response","158","479325","0.0-13.0-0.0-0.0","56253","
      <p>请您将手指放在按键上，准备进入呈现顺序为<span style='color: yellow;'>先图形后文字条件</span>的正式匹配任务</p>
      <p> <div style = ""color: green""><按任意键进入下一阶段的匹配任务></div></p>
      ","j","","","","","","","","","","","","","","","","","","","","","","",""
"","","","","","psychophysics","159","481298","0.0-13.0-0.0-1.0-0.0-0.0","822","","f","","","","","","","","","","","","","key","f","16.594102564102645","640","356","f","true","img/S_ambi40.png","常人","image_first",""
"","","","","","html-keyboard-response","160","481607","0.0-13.0-0.0-1.0-0.0-1.0","null","<span style='color:GreenYellow; font-size: 70px;'>正确! </span>","null","","","","","","","","","","","","","","","","","","","","","","","feedback_test"
"","","","","","psychophysics","161","483514","0.0-13.0-0.0-1.0-0.0-0.1","741","","f","","","","","","","","","","","","","key","f","16.653044247787562","640","356","f","true","img/T_ambi40.png","好人","image_first",""
"","","","","","html-keyboard-response","162","483834","0.0-13.0-0.0-1.0-0.0-1.1","null","<span style='color:GreenYellow; font-size: 70px;'>正确! </span>","null","","","","","","","","","","","","","","","","","","","","","","","feedback_test"
"","","","","","psychophysics","163","485768","0.0-13.0-0.0-1.0-0.0-0.2","781","","j","","","","","","","","","","","","","key","j","16.653139130434568","640","356","j","true","img/T_ambi40.png","常人","image_first",""
"","","","","","html-keyboard-response","164","486077","0.0-13.0-0.0-1.0-0.0-1.2","null","<span style='color:GreenYellow; font-size: 70px;'>正确! </span>","null","","","","","","","","","","","","","","","","","","","","","","","feedback_test"
"","","","","","psychophysics","165","487917","0.0-13.0-0.0-1.0-0.0-0.3","683","","f","","","","","","","","","","","","","key","f","16.65328440366958","640","356","f","true","img/C_ambi40.png","坏人","image_first",""
"","","","","","html-keyboard-response","166","488230","0.0-13.0-0.0-1.0-0.0-1.3","null","<span style='color:GreenYellow; font-size: 70px;'>正确! </span>","null","","","","","","","","","","","","","","","","","","","","","","","feedback_test"
"","","","","","psychophysics","167","489983","0.0-13.0-0.0-1.0-0.0-0.4","599","","j","","","","","","","","","","","","","key","j","16.653615384615616","640","356","j","true","img/T_ambi40.png","常人","image_first",""
"","","","","","html-keyboard-response","168","490298","0.0-13.0-0.0-1.0-0.0-1.4","null","<span style='color:GreenYellow; font-size: 70px;'>正确! </span>","null","","","","","","","","","","","","","","","","","","","","","","","feedback_test"
"","","","","","psychophysics","169","492233","0.0-13.0-0.0-1.0-0.0-0.5","783","","f","","","","","","","","","","","","","key","f","16.654603448275935","640","356","f","true","img/S_ambi40.png","好人","image_first",""
"","","","","","html-keyboard-response","170","492548","0.0-13.0-0.0-1.0-0.0-1.5","null","<span style='color:GreenYellow; font-size: 70px;'>正确! </span>","null","","","","","","","","","","","","","","","","","","","","","","","feedback_test"
"","","","","","psychophysics","171","494310","0.0-13.0-0.0-1.0-0.0-0.6","603","","j","","","","","","","","","","","","","key","j","16.652836538461717","640","356","j","true","img/S_ambi40.png","坏人","image_first",""
"","","","","","html-keyboard-response","172","494622","0.0-13.0-0.0-1.0-0.0-1.6","null","<span style='color:GreenYellow; font-size: 70px;'>正确! </span>","null","","","","","","","","","","","","","","","","","","","","","","","feedback_test"
"","","","","","psychophysics","173","496503","0.0-13.0-0.0-1.0-0.0-0.7","724","","f","","","","","","","","","","","","","key","f","16.653892857143155","640","356","f","true","img/C_ambi40.png","常人","image_first",""
"","","","","","html-keyboard-response","174","496819","0.0-13.0-0.0-1.0-0.0-1.7","null","<span style='color:GreenYellow; font-size: 70px;'>正确! </span>","null","","","","","","","","","","","","","","","","","","","","","","","feedback_test"
"","","","","","psychophysics","175","498888","0.0-13.0-0.0-1.0-0.0-0.8","918","","j","","","","","","","","","","","","","key","j","16.653357723577333","640","356","j","true","img/C_ambi40.png","好人","image_first",""
"","","","","","html-keyboard-response","176","499197","0.0-13.0-0.0-1.0-0.0-1.8","null","<span style='color:GreenYellow; font-size: 70px;'>正确! </span>","null","","","","","","","","","","","","","","","","","","","","","","","feedback_test"
"","","","","","psychophysics","177","501085","0.0-13.0-0.0-1.0-0.0-0.9","731","","f","","","","","","","","","","","","","key","f","16.653437499999978","640","356","f","true","img/T_ambi40.png","坏人","image_first",""
"","","","","","html-keyboard-response","178","501409","0.0-13.0-0.0-1.0-0.0-1.9","null","<span style='color:GreenYellow; font-size: 70px;'>正确! </span>","null","","","","","","","","","","","","","","","","","","","","","","","feedback_test"
"","","","","","psychophysics","179","503185","0.0-13.0-0.0-1.0-0.0-0.10","623","","j","","","","","","","","","","","","","key","j","16.655152380952632","640","356","j","true","img/S_ambi40.png","坏人","image_first",""
"","","","","","html-keyboard-response","180","503493","0.0-13.0-0.0-1.0-0.0-1.10","null","<span style='color:GreenYellow; font-size: 70px;'>正确! </span>","null","","","","","","","","","","","","","","","","","","","","","","","feedback_test"
"","","","","","psychophysics","181","505268","0.0-13.0-0.0-1.0-0.0-0.11","617","","j","","","","","","","","","","","","","key","j","16.65382857142859","640","356","j","true","img/C_ambi40.png","好人","image_first",""
"","","","","","html-keyboard-response","182","505582","0.0-13.0-0.0-1.0-0.0-1.11","null","<span style='color:GreenYellow; font-size: 70px;'>正确! </span>","null","","","","","","","","","","","","","","","","","","","","","","","feedback_test"
"","","","","","psychophysics","183","507305","0.0-13.0-0.0-1.0-0.0-0.12","568","","j","","","","","","","","","","","","","key","j","16.65329126213639","640","356","j","true","img/C_ambi40.png","好人","image_first",""
"","","","","","html-keyboard-response","184","507613","0.0-13.0-0.0-1.0-0.0-1.12","null","<span style='color:GreenYellow; font-size: 70px;'>正确! </span>","null","","","","","","","","","","","","","","","","","","","","","","","feedback_test"
"","","","","","psychophysics","185","509424","0.0-13.0-0.0-1.0-0.0-0.13","656","","f","","","","","","","","","","","","","key","f","16.653574074074168","640","356","f","true","img/S_ambi40.png","好人","image_first",""
"","","","","","html-keyboard-response","186","509731","0.0-13.0-0.0-1.0-0.0-1.13","null","<span style='color:GreenYellow; font-size: 70px;'>正确! </span>","null","","","","","","","","","","","","","","","","","","","","","","","feedback_test"
"","","","","","psychophysics","187","511591","0.0-13.0-0.0-1.0-0.0-0.14","708","","f","","","","","","","","","","","","","key","f","16.65325225225224","640","356","f","true","img/C_ambi40.png","坏人","image_first",""
"","","","","","html-keyboard-response","188","511909","0.0-13.0-0.0-1.0-0.0-1.14","null","<span style='color:GreenYellow; font-size: 70px;'>正确! </span>","null","","","","","","","","","","","","","","","","","","","","","","","feedback_test"
"","","","","","psychophysics","189","513595","0.0-13.0-0.0-1.0-0.0-0.15","531","","j","","","","","","","","","","","","","key","j","16.65369000000006","640","356","j","true","img/T_ambi40.png","常人","image_first",""
"","","","","","html-keyboard-response","190","513910","0.0-13.0-0.0-1.0-0.0-1.15","null","<span style='color:GreenYellow; font-size: 70px;'>正确! </span>","null","","","","","","","","","","","","","","","","","","","","","","","feedback_test"
"","","","","","psychophysics","191","515858","0.0-13.0-0.0-1.0-0.0-0.16","795","","f","","","","","","","","","","","","","key","f","16.653181034483012","640","356","f","true","img/S_ambi40.png","常人","image_first",""
"","","","","","html-keyboard-response","192","516177","0.0-13.0-0.0-1.0-0.0-1.16","null","<span style='color:GreenYellow; font-size: 70px;'>正确! </span>","null","","","","","","","","","","","","","","","","","","","","","","","feedback_test"
"","","","","","psychophysics","193","518037","0.0-13.0-0.0-1.0-0.0-0.17","709","","f","","","","","","","","","","","","","key","f","16.536118181818164","640","356","f","true","img/T_ambi40.png","坏人","image_first",""
"","","","","","html-keyboard-response","194","518343","0.0-13.0-0.0-1.0-0.0-1.17","null","<span style='color:GreenYellow; font-size: 70px;'>正确! </span>","null","","","","","","","","","","","","","","","","","","","","","","","feedback_test"
"","","","","","psychophysics","195","520536","0.0-13.0-0.0-1.0-0.0-0.18","1042","","f","","","","","","","","","","","","","key","f","16.653015384615326","640","356","f","true","img/C_ambi40.png","常人","image_first",""
"","","","","","html-keyboard-response","196","520854","0.0-13.0-0.0-1.0-0.0-1.18","null","<span style='color:GreenYellow; font-size: 70px;'>正确! </span>","null","","","","","","","","","","","","","","","","","","","","","","","feedback_test"
"","","","","","psychophysics","197","522741","0.0-13.0-0.0-1.0-0.0-0.19","734","","j","","","","","","","","","","","","","key","j","16.654017699115386","640","356","j","true","img/S_ambi40.png","坏人","image_first",""
"","","","","","html-keyboard-response","198","523049","0.0-13.0-0.0-1.0-0.0-1.19","null","<span style='color:GreenYellow; font-size: 70px;'>正确! </span>","null","","","","","","","","","","","","","","","","","","","","","","","feedback_test"
"","","","","","psychophysics","199","524908","0.0-13.0-0.0-1.0-0.0-0.20","705","","j","","","","","","","","","","","","","key","j","16.652963963964417","640","356","j","true","img/S_ambi40.png","坏人","image_first",""
"","","","","","html-keyboard-response","200","525220","0.0-13.0-0.0-1.0-0.0-1.20","null","<span style='color:GreenYellow; font-size: 70px;'>正确! </span>","null","","","","","","","","","","","","","","","","","","","","","","","feedback_test"
"","","","","","psychophysics","201","527107","0.0-13.0-0.0-1.0-0.0-0.21","736","","j","","","","","","","","","","","","","key","j","16.531455357142217","640","356","j","true","img/T_ambi40.png","常人","image_first",""
"","","","","","html-keyboard-response","202","527420","0.0-13.0-0.0-1.0-0.0-1.21","null","<span style='color:GreenYellow; font-size: 70px;'>正确! </span>","null","","","","","","","","","","","","","","","","","","","","","","","feedback_test"
"","","","","","psychophysics","203","529169","0.0-13.0-0.0-1.0-0.0-0.22","591","","j","","","","","","","","","","","","","key","j","16.653932692307325","640","356","j","true","img/C_ambi40.png","好人","image_first",""
"","","","","","html-keyboard-response","204","529479","0.0-13.0-0.0-1.0-0.0-1.22","null","<span style='color:GreenYellow; font-size: 70px;'>正确! </span>","null","","","","","","","","","","","","","","","","","","","","","","","feedback_test"
"","","","","","psychophysics","205","531315","0.0-13.0-0.0-1.0-0.0-0.23","683","","f","","","","","","","","","","","","","key","f","16.653247706422267","640","356","f","true","img/T_ambi40.png","好人","image_first",""
"","","","","","html-keyboard-response","206","531624","0.0-13.0-0.0-1.0-0.0-1.23","null","<span style='color:GreenYellow; font-size: 70px;'>正确! </span>","null","","","","","","","","","","","","","","","","","","","","","","","feedback_test"
"","","","","","psychophysics","207","533495","0.0-13.0-0.0-1.0-0.0-0.24","718","","f","","","","","","","","","","","","","key","f","16.653729729729847","640","356","f","true","img/S_ambi40.png","常人","image_first",""
"","","","","","html-keyboard-response","208","533804","0.0-13.0-0.0-1.0-0.0-1.24","null","<span style='color:GreenYellow; font-size: 70px;'>正确! </span>","null","","","","","","","","","","","","","","","","","","","","","","","feedback_test"
"","","","","","psychophysics","209","535588","0.0-13.0-0.0-1.0-0.0-0.25","627","","j","","","","","","","","","","","","","key","j","16.653367924528144","640","356","j","true","img/S_ambi40.png","坏人","image_first",""
"","","","","","html-keyboard-response","210","535896","0.0-13.0-0.0-1.0-0.0-1.25","null","<span style='color:GreenYellow; font-size: 70px;'>正确! </span>","null","","","","","","","","","","","","","","","","","","","","","","","feedback_test"
"","","","","","psychophysics","211","537686","0.0-13.0-0.0-1.0-0.0-0.26","635","","f","","","","","","","","","","","","","key","f","16.65233018867922","640","356","f","true","img/T_ambi40.png","坏人","image_first",""
"","","","","","html-keyboard-response","212","537998","0.0-13.0-0.0-1.0-0.0-1.26","null","<span style='color:GreenYellow; font-size: 70px;'>正确! </span>","null","","","","","","","","","","","","","","","","","","","","","","","feedback_test"
"","","","","","psychophysics","213","539793","0.0-13.0-0.0-1.0-0.0-0.27","639","","f","","","","","","","","","","","","","key","f","16.653532710279965","640","356","f","true","img/C_ambi40.png","坏人","image_first",""
"","","","","","html-keyboard-response","214","540101","0.0-13.0-0.0-1.0-0.0-1.27","null","<span style='color:GreenYellow; font-size: 70px;'>正确! </span>","null","","","","","","","","","","","","","","","","","","","","","","","feedback_test"
"","","","","","psychophysics","215","541918","0.0-13.0-0.0-1.0-0.0-0.28","661","","f","","","","","","","","","","","","","key","f","16.65351851851921","640","356","f","true","img/T_ambi40.png","好人","image_first",""
"","","","","","html-keyboard-response","216","542233","0.0-13.0-0.0-1.0-0.0-1.28","null","<span style='color:GreenYellow; font-size: 70px;'>正确! </span>","null","","","","","","","","","","","","","","","","","","","","","","","feedback_test"
"","","","","","psychophysics","217","544187","0.0-13.0-0.0-1.0-0.0-0.29","802","","f","","","","","","","","","","","","","key","f","16.65329310344833","640","356","f","true","img/C_ambi40.png","常人","image_first",""
"","","","","","html-keyboard-response","218","544500","0.0-13.0-0.0-1.0-0.0-1.29","null","<span style='color:GreenYellow; font-size: 70px;'>正确! </span>","null","","","","","","","","","","","","","","","","","","","","","","","feedback_test"
"","","","","","psychophysics","219","546356","0.0-13.0-0.0-1.0-0.0-0.30","702","","j","","","","","","","","","","","","","key","j","16.65350450450441","640","356","j","true","img/T_ambi40.png","常人","image_first",""
"","","","","","html-keyboard-response","220","546664","0.0-13.0-0.0-1.0-0.0-1.30","null","<span style='color:GreenYellow; font-size: 70px;'>正确! </span>","null","","","","","","","","","","","","","","","","","","","","","","","feedback_test"
"","","","","","psychophysics","221","548529","0.0-13.0-0.0-1.0-0.0-0.31","711","","j","","","","","","","","","","","","","key","j","16.653729729729847","640","356","j","true","img/C_ambi40.png","好人","image_first",""
"","","","","","html-keyboard-response","222","548850","0.0-13.0-0.0-1.0-0.0-1.31","null","<span style='color:GreenYellow; font-size: 70px;'>正确! </span>","null","","","","","","","","","","","","","","","","","","","","","","","feedback_test"
"","","","","","psychophysics","223","550698","0.0-13.0-0.0-1.0-0.0-0.32","698","","f","","","","","","","","","","","","","key","f","16.53507339449625","640","356","f","true","img/S_ambi40.png","好人","image_first",""
"","","","","","html-keyboard-response","224","551005","0.0-13.0-0.0-1.0-0.0-1.32","null","<span style='color:GreenYellow; font-size: 70px;'>正确! </span>","null","","","","","","","","","","","","","","","","","","","","","","","feedback_test"
"","","","","","psychophysics","225","552708","0.0-13.0-0.0-1.0-0.0-0.33","546","","j","","","","","","","","","","","","","key","j","16.65636633663429","640","356","j","true","img/C_ambi40.png","好人","image_first",""
"","","","","","html-keyboard-response","226","553024","0.0-13.0-0.0-1.0-0.0-1.33","null","<span style='color:GreenYellow; font-size: 70px;'>正确! </span>","null","","","","","","","","","","","","","","","","","","","","","","","feedback_test"
"","","","","","psychophysics","227","554848","0.0-13.0-0.0-1.0-0.0-0.34","670","","j","","","","","","","","","","","","","key","j","16.65366055045828","640","356","j","true","img/S_ambi40.png","坏人","image_first",""
"","","","","","html-keyboard-response","228","555161","0.0-13.0-0.0-1.0-0.0-1.34","null","<span style='color:GreenYellow; font-size: 70px;'>正确! </span>","null","","","","","","","","","","","","","","","","","","","","","","","feedback_test"
"","","","","","psychophysics","229","557068","0.0-13.0-0.0-1.0-0.0-0.35","755","","j","","","","","","","","","","","","","key","j","16.528380530972893","640","356","j","true","img/T_ambi40.png","常人","image_first",""
"","","","","","html-keyboard-response","230","557374","0.0-13.0-0.0-1.0-0.0-1.35","null","<span style='color:GreenYellow; font-size: 70px;'>正确! </span>","null","","","","","","","","","","","","","","","","","","","","","","","feedback_test"
"","","","","","psychophysics","231","559216","0.0-13.0-0.0-1.0-0.0-0.36","690","","j","","","","","","","","","","","","","key","j","16.65335454545513","640","356","j","true","img/T_ambi40.png","常人","image_first",""
"","","","","","html-keyboard-response","232","559537","0.0-13.0-0.0-1.0-0.0-1.36","null","<span style='color:GreenYellow; font-size: 70px;'>正确! </span>","null","","","","","","","","","","","","","","","","","","","","","","","feedback_test"
"","","","","","psychophysics","233","561293","0.0-13.0-0.0-1.0-0.0-0.37","603","","j","","","","","","","","","","","","","key","j","16.653438095238414","640","356","j","true","img/C_ambi40.png","好人","image_first",""
"","","","","","html-keyboard-response","234","561609","0.0-13.0-0.0-1.0-0.0-1.37","null","<span style='color:GreenYellow; font-size: 70px;'>正确! </span>","null","","","","","","","","","","","","","","","","","","","","","","","feedback_test"
"","","","","","psychophysics","235","563387","0.0-13.0-0.0-1.0-0.0-0.38","625","","f","","","","","","","","","","","","","key","f","16.65232380952442","640","356","f","true","img/S_ambi40.png","好人","image_first",""
"","","","","","html-keyboard-response","236","563702","0.0-13.0-0.0-1.0-0.0-1.38","null","<span style='color:GreenYellow; font-size: 70px;'>正确! </span>","null","","","","","","","","","","","","","","","","","","","","","","","feedback_test"
"","","","","","psychophysics","237","565526","0.0-13.0-0.0-1.0-0.0-0.39","672","","j","","","","","","","","","","","","","key","j","16.653761467888927","640","356","j","true","img/C_ambi40.png","好人","image_first",""
"","","","","","html-keyboard-response","238","565845","0.0-13.0-0.0-1.0-0.0-1.39","null","<span style='color:GreenYellow; font-size: 70px;'>正确! </span>","null","","","","","","","","","","","","","","","","","","","","","","","feedback_test"
"","","","","","psychophysics","239","567671","0.0-13.0-0.0-1.0-0.0-0.40","669","","j","","","","","","","","","","","","","key","j","16.655743119266276","640","356","j","true","img/T_ambi40.png","常人","image_first",""
"","","","","","html-keyboard-response","240","567987","0.0-13.0-0.0-1.0-0.0-1.40","null","<span style='color:GreenYellow; font-size: 70px;'>正确! </span>","null","","","","","","","","","","","","","","","","","","","","","","","feedback_test"
"","","","","","psychophysics","241","569948","0.0-13.0-0.0-1.0-0.0-0.41","801","","f","","","","","","","","","","","","","key","f","16.653508620689912","640","356","f","true","img/C_ambi40.png","常人","image_first",""
"","","","","","html-keyboard-response","242","570252","0.0-13.0-0.0-1.0-0.0-1.41","null","<span style='color:GreenYellow; font-size: 70px;'>正确! </span>","null","","","","","","","","","","","","","","","","","","","","","","","feedback_test"
"","","","","","psychophysics","243","571968","0.0-13.0-0.0-1.0-0.0-0.42","557","","j","","","","","","","","","","","","","key","j","16.652539215686357","640","356","j","true","img/S_ambi40.png","坏人","image_first",""
"","","","","","html-keyboard-response","244","572277","0.0-13.0-0.0-1.0-0.0-1.42","null","<span style='color:GreenYellow; font-size: 70px;'>正确! </span>","null","","","","","","","","","","","","","","","","","","","","","","","feedback_test"
"","","","","","psychophysics","245","574114","0.0-13.0-0.0-1.0-0.0-0.43","682","","f","","","","","","","","","","","","","key","f","16.653422018348607","640","356","f","true","img/T_ambi40.png","坏人","image_first",""
"","","","","","html-keyboard-response","246","574427","0.0-13.0-0.0-1.0-0.0-1.43","null","<span style='color:GreenYellow; font-size: 70px;'>正确! </span>","null","","","","","","","","","","","","","","","","","","","","","","","feedback_test"
"","","","","","psychophysics","247","576419","0.0-13.0-0.0-1.0-0.0-0.44","840","","f","","","","","","","","","","","","","key","f","16.653369747899557","640","356","f","true","img/S_ambi40.png","常人","image_first",""
"","","","","","html-keyboard-response","248","576733","0.0-13.0-0.0-1.0-0.0-1.44","null","<span style='color:GreenYellow; font-size: 70px;'>正确! </span>","null","","","","","","","","","","","","","","","","","","","","","","","feedback_test"
"","","","","","psychophysics","249","578603","0.0-13.0-0.0-1.0-0.0-0.45","712","","f","","","","","","","","","","","","","key","f","16.652855855855368","640","356","f","true","img/T_ambi40.png","好人","image_first",""
"","","","","","html-keyboard-response","250","578912","0.0-13.0-0.0-1.0-0.0-1.45","null","<span style='color:GreenYellow; font-size: 70px;'>正确! </span>","null","","","","","","","","","","","","","","","","","","","","","","","feedback_test"
"","","","","","psychophysics","251","580660","0.0-13.0-0.0-1.0-0.0-0.46","593","","j","","","","","","","","","","","","","key","j","16.653615384615616","640","356","j","true","img/S_ambi40.png","坏人","image_first",""
"","","","","","html-keyboard-response","252","580970","0.0-13.0-0.0-1.0-0.0-1.46","null","<span style='color:GreenYellow; font-size: 70px;'>正确! </span>","null","","","","","","","","","","","","","","","","","","","","","","","feedback_test"
"","","","","","psychophysics","253","582726","0.0-13.0-0.0-1.0-0.0-0.47","604","","f","","","","","","","","","","","","","key","f","16.657095238095195","640","356","f","true","img/C_ambi40.png","坏人","image_first",""
"","","","","","html-keyboard-response","254","583042","0.0-13.0-0.0-1.0-0.0-1.47","null","<span style='color:GreenYellow; font-size: 70px;'>正确! </span>","null","","","","","","","","","","","","","","","","","","","","","","","feedback_test"
"","","","","","psychophysics","255","584761","0.0-13.0-0.0-1.0-0.0-0.48","567","","j","","","","","","","","","","","","","key","j","16.65270588235295","640","356","j","true","img/C_ambi40.png","好人","image_first",""
"","","","","","html-keyboard-response","256","585069","0.0-13.0-0.0-1.0-0.0-1.48","null","<span style='color:GreenYellow; font-size: 70px;'>正确! </span>","null","","","","","","","","","","","","","","","","","","","","","","","feedback_test"
"","","","","","psychophysics","257","586895","0.0-13.0-0.0-1.0-0.0-0.49","675","","j","","","","","","","","","","","","","key","j","16.65363302752333","640","356","j","true","img/C_ambi40.png","好人","image_first",""
"","","","","","html-keyboard-response","258","587218","0.0-13.0-0.0-1.0-0.0-1.49","null","<span style='color:GreenYellow; font-size: 70px;'>正确! </span>","null","","","","","","","","","","","","","","","","","","","","","","","feedback_test"
"","","","","","psychophysics","259","589190","0.0-13.0-0.0-1.0-0.0-0.50","821","","f","","","","","","","","","","","","","key","f","16.546324786325144","640","356","f","true","img/S_ambi40.png","好人","image_first",""
"","","","","","html-keyboard-response","260","589507","0.0-13.0-0.0-1.0-0.0-1.50","null","<span style='color:GreenYellow; font-size: 70px;'>正确! </span>","null","","","","","","","","","","","","","","","","","","","","","","","feedback_test"
"","","","","","psychophysics","261","591281","0.0-13.0-0.0-1.0-0.0-0.51","615","","f","","","","","","","","","","","","","key","f","16.652352380952134","640","356","f","true","img/T_ambi40.png","坏人","image_first",""
"","","","","","html-keyboard-response","262","591586","0.0-13.0-0.0-1.0-0.0-1.51","null","<span style='color:GreenYellow; font-size: 70px;'>正确! </span>","null","","","","","","","","","","","","","","","","","","","","","","","feedback_test"
"","","","","","psychophysics","263","593454","0.0-13.0-0.0-1.0-0.0-0.52","709","","f","","","","","","","","","","","","","key","f","16.65303603603572","640","356","f","true","img/S_ambi40.png","常人","image_first",""
"","","","","","html-keyboard-response","264","593766","0.0-13.0-0.0-1.0-0.0-1.52","null","<span style='color:GreenYellow; font-size: 70px;'>正确! </span>","null","","","","","","","","","","","","","","","","","","","","","","","feedback_test"
"","","","","","psychophysics","265","595593","0.0-13.0-0.0-1.0-0.0-0.53","671","","j","","","","","","","","","","","","","key","j","16.65277777777778","640","356","j","true","img/S_ambi40.png","坏人","image_first",""
"","","","","","html-keyboard-response","266","595909","0.0-13.0-0.0-1.0-0.0-1.53","null","<span style='color:GreenYellow; font-size: 70px;'>正确! </span>","null","","","","","","","","","","","","","","","","","","","","","","","feedback_test"
"","","","","","psychophysics","267","597705","0.0-13.0-0.0-1.0-0.0-0.54","644","","f","","","","","","","","","","","","","key","f","16.65384112149542","640","356","f","true","img/T_ambi40.png","好人","image_first",""
"","","","","","html-keyboard-response","268","598018","0.0-13.0-0.0-1.0-0.0-1.54","null","<span style='color:GreenYellow; font-size: 70px;'>正确! </span>","null","","","","","","","","","","","","","","","","","","","","","","","feedback_test"
"","","","","","psychophysics","269","599996","0.0-13.0-0.0-1.0-0.0-0.55","819","","f","","","","","","","","","","","","","key","f","16.65327966101645","640","356","f","true","img/C_ambi40.png","坏人","image_first",""
"","","","","","html-keyboard-response","270","600302","0.0-13.0-0.0-1.0-0.0-1.55","null","<span style='color:GreenYellow; font-size: 70px;'>正确! </span>","null","","","","","","","","","","","","","","","","","","","","","","","feedback_test"
"","","","","","psychophysics","271","602092","0.0-13.0-0.0-1.0-0.0-0.56","634","","j","","","","","","","","","","","","","key","j","16.654205607476637","640","356","j","true","img/T_ambi40.png","常人","image_first",""
"","","","","","html-keyboard-response","272","602404","0.0-13.0-0.0-1.0-0.0-1.56","null","<span style='color:GreenYellow; font-size: 70px;'>正确! </span>","null","","","","","","","","","","","","","","","","","","","","","","","feedback_test"
"","","","","","psychophysics","273","604208","0.0-13.0-0.0-1.0-0.0-0.57","652","","f","","","","","","","","","","","","","key","f","16.652861111111836","640","356","f","true","img/C_ambi40.png","常人","image_first",""
"","","","","","html-keyboard-response","274","604524","0.0-13.0-0.0-1.0-0.0-1.57","null","<span style='color:GreenYellow; font-size: 70px;'>正确! </span>","null","","","","","","","","","","","","","","","","","","","","","","","feedback_test"
"","","","","","psychophysics","275","606334","0.0-13.0-0.0-1.0-0.0-0.58","652","","j","","","","","","","","","","","","","key","j","16.6535420560748","640","356","j","true","img/S_ambi40.png","坏人","image_first",""
"","","","","","html-keyboard-response","276","606645","0.0-13.0-0.0-1.0-0.0-1.58","null","<span style='color:GreenYellow; font-size: 70px;'>正确! </span>","null","","","","","","","","","","","","","","","","","","","","","","","feedback_test"
"","","","","","psychophysics","277","608443","0.0-13.0-0.0-1.0-0.0-0.59","641","","j","","","","","","","","","","","","","key","j","16.653728971962824","640","356","j","true","img/T_ambi40.png","常人","image_first",""
"","","","","","html-keyboard-response","278","608749","0.0-13.0-0.0-1.0-0.0-1.59","null","<span style='color:GreenYellow; font-size: 70px;'>正确! </span>","null","","","","","","","","","","","","","","","","","","","","","","","feedback_test"
"","","","","","html-keyboard-response","279","617449","0.0-13.0-0.0-1.0-1.0","8699","<style>.context{color:white; font-size: 35px; line-height:40px}</style>                              <div><p class='context'>您正确回答了100% 的试次。</p><p class='context'>您的平均反应时为690毫秒。</p><p class='context'>请按任意键进入休息</p></div>","j","","","","","","","","","","","","","","","","","","","","","","",""
"","","","","","html-button-response","280","629378","0.0-13.0-0.0-1.0-2.0","11926","
                      <p>您当前还剩余3组实验</p>
                      <p>现在是休息时间，当您结束休息后，您可以点击 结束休息 按钮 继续</p>
                      <p>建议休息时间还剩余<span id=""iii"">60</span>秒</p>","0","","","","","","","","","","","","","","","","","","","","","","",""
"","","","","","psychophysics","281","631462","0.0-13.0-0.0-1.0-0.1-0.60","932","","j","","","","","","","","","","","","","key","j","16.655895161290367","640","356","j","true","img/C_ambi40.png","好人","image_first",""
"","","","","","html-keyboard-response","282","631778","0.0-13.0-0.0-1.0-0.1-1.60","null","<span style='color:GreenYellow; font-size: 70px;'>正确! </span>","null","","","","","","","","","","","","","","","","","","","","","","","feedback_test"
"","","","","","psychophysics","283","633538","0.0-13.0-0.0-1.0-0.1-0.61","608","","j","","","","","","","","","","","","","key","j","16.653952380952735","640","356","j","true","img/S_ambi40.png","坏人","image_first",""
"","","","","","html-keyboard-response","284","633856","0.0-13.0-0.0-1.0-0.1-1.61","null","<span style='color:GreenYellow; font-size: 70px;'>正确! </span>","null","","","","","","","","","","","","","","","","","","","","","","","feedback_test"
"","","","","","psychophysics","285","635642","0.0-13.0-0.0-1.0-0.1-0.62","632","","j","","","","","","","","","","","","","key","j","16.653113207546994","640","356","j","true","img/S_ambi40.png","坏人","image_first",""
"","","","","","html-keyboard-response","286","635959","0.0-13.0-0.0-1.0-0.1-1.62","null","<span style='color:GreenYellow; font-size: 70px;'>正确! </span>","null","","","","","","","","","","","","","","","","","","","","","","","feedback_test"
"","","","","","psychophysics","287","637700","0.0-13.0-0.0-1.0-0.1-0.63","589","","f","","","","","","","","","","","","","key","f","16.65415384615391","640","356","f","true","img/S_ambi40.png","好人","image_first",""
"","","","","","html-keyboard-response","288","638009","0.0-13.0-0.0-1.0-0.1-1.63","null","<span style='color:GreenYellow; font-size: 70px;'>正确! </span>","null","","","","","","","","","","","","","","","","","","","","","","","feedback_test"
"","","","","","psychophysics","289","640023","0.0-13.0-0.0-1.0-0.1-0.64","863","","f","","","","","","","","","","","","","key","f","16.65347500000013","640","356","f","true","img/T_ambi40.png","坏人","image_first",""
"","","","","","html-keyboard-response","290","640335","0.0-13.0-0.0-1.0-0.1-1.64","null","<span style='color:GreenYellow; font-size: 70px;'>正确! </span>","null","","","","","","","","","","","","","","","","","","","","","","","feedback_test"
"","","","","","psychophysics","291","642243","0.0-13.0-0.0-1.0-0.1-0.65","754","","f","","","","","","","","","","","","","key","f","16.653175438596996","640","356","f","true","img/C_ambi40.png","坏人","image_first",""
"","","","","","html-keyboard-response","292","642555","0.0-13.0-0.0-1.0-0.1-1.65","null","<span style='color:GreenYellow; font-size: 70px;'>正确! </span>","null","","","","","","","","","","","","","","","","","","","","","","","feedback_test"
"","","","","","psychophysics","293","644657","0.0-13.0-0.0-1.0-0.1-0.66","951","","f","","","","","","","","","","","","","key","f","16.652825396824888","640","356","f","true","img/T_ambi40.png","好人","image_first",""
"","","","","","html-keyboard-response","294","644972","0.0-13.0-0.0-1.0-0.1-1.66","null","<span style='color:GreenYellow; font-size: 70px;'>正确! </span>","null","","","","","","","","","","","","","","","","","","","","","","","feedback_test"
"","","","","","psychophysics","295","646966","0.0-13.0-0.0-1.0-0.1-0.67","836","","f","","","","","","","","","","","","","key","f","16.653635593219978","640","356","f","true","img/S_ambi40.png","常人","image_first",""
"","","","","","html-keyboard-response","296","647289","0.0-13.0-0.0-1.0-0.1-1.67","null","<span style='color:GreenYellow; font-size: 70px;'>正确! </span>","null","","","","","","","","","","","","","","","","","","","","","","","feedback_test"
"","","","","","psychophysics","297","649007","0.0-13.0-0.0-1.0-0.1-0.68","564","","j","","","","","","","","","","","","","key","j","16.653137254901914","640","356","j","true","img/C_ambi40.png","好人","image_first",""
"","","","","","html-keyboard-response","298","649327","0.0-13.0-0.0-1.0-0.1-1.68","null","<span style='color:GreenYellow; font-size: 70px;'>正确! </span>","null","","","","","","","","","","","","","","","","","","","","","","","feedback_test"
"","","","","","psychophysics","299","651125","0.0-13.0-0.0-1.0-0.1-0.69","642","","j","","","","","","","","","","","","","key","j","16.653355140186775","640","356","j","true","img/T_ambi40.png","常人","image_first",""
"","","","","","html-keyboard-response","300","651445","0.0-13.0-0.0-1.0-0.1-1.69","null","<span style='color:GreenYellow; font-size: 70px;'>正确! </span>","null","","","","","","","","","","","","","","","","","","","","","","","feedback_test"
"","","","","","psychophysics","301","653288","0.0-13.0-0.0-1.0-0.1-0.70","689","","f","","","","","","","","","","","","","key","f","16.6528454545462","640","356","f","true","img/C_ambi40.png","常人","image_first",""
"","","","","","html-keyboard-response","302","653596","0.0-13.0-0.0-1.0-0.1-1.70","null","<span style='color:GreenYellow; font-size: 70px;'>正确! </span>","null","","","","","","","","","","","","","","","","","","","","","","","feedback_test"
"","","","","","psychophysics","303","655456","0.0-13.0-0.0-1.0-0.1-0.71","709","","j","","","","","","","","","","","","","key","j","16.6532252252255","640","356","j","true","img/T_ambi40.png","常人","image_first",""
"","","","","","html-keyboard-response","304","655763","0.0-13.0-0.0-1.0-0.1-1.71","null","<span style='color:GreenYellow; font-size: 70px;'>正确! </span>","null","","","","","","","","","","","","","","","","","","","","","","","feedback_test"
"","","","","","psychophysics","305","657803","0.0-13.0-0.0-1.0-0.1-0.72","881","","f","","","","","","","","","","","","","key","f","16.653644628099297","640","356","f","true","img/S_ambi40.png","好人","image_first",""
"","","","","","html-keyboard-response","306","658111","0.0-13.0-0.0-1.0-0.1-1.72","null","<span style='color:GreenYellow; font-size: 70px;'>正确! </span>","null","","","","","","","","","","","","","","","","","","","","","","","feedback_test"
"","","","","","psychophysics","307","659940","0.0-13.0-0.0-1.0-0.1-0.73","673","","f","","","","","","","","","","","","","key","f","16.65335185185109","640","356","f","true","img/T_ambi40.png","好人","image_first",""
"","","","","","html-keyboard-response","308","660254","0.0-13.0-0.0-1.0-0.1-1.73","null","<span style='color:GreenYellow; font-size: 70px;'>正确! </span>","null","","","","","","","","","","","","","","","","","","","","","","","feedback_test"
"","","","","","psychophysics","309","662116","0.0-13.0-0.0-1.0-0.1-0.74","707","","j","","","","","","","","","","","","","key","j","16.653189189188804","640","356","j","true","img/T_ambi40.png","常人","image_first",""
"","","","","","html-keyboard-response","310","662432","0.0-13.0-0.0-1.0-0.1-1.74","null","<span style='color:GreenYellow; font-size: 70px;'>正确! </span>","null","","","","","","","","","","","","","","","","","","","","","","","feedback_test"
"","","","","","psychophysics","311","664372","0.0-13.0-0.0-1.0-0.1-0.75","786","","f","","","","","","","","","","","","","key","f","16.65346956521718","640","356","f","true","img/S_ambi40.png","常人","image_first",""
"","","","","","html-keyboard-response","312","664681","0.0-13.0-0.0-1.0-0.1-1.75","null","<span style='color:GreenYellow; font-size: 70px;'>正确! </span>","null","","","","","","","","","","","","","","","","","","","","","","","feedback_test"
"","","","","","psychophysics","313","666546","0.0-13.0-0.0-1.0-0.1-0.76","712","","f","","","","","","","","","","","","","key","f","16.653216216216066","640","356","f","true","img/C_ambi40.png","坏人","image_first",""
"","","","","","html-keyboard-response","314","666865","0.0-13.0-0.0-1.0-0.1-1.76","null","<span style='color:GreenYellow; font-size: 70px;'>正确! </span>","null","","","","","","","","","","","","","","","","","","","","","","","feedback_test"
"","","","","","psychophysics","315","668691","0.0-13.0-0.0-1.0-0.1-0.77","673","","j","","","","","","","","","","","","","key","j","16.652486238532504","640","356","j","true","img/T_ambi40.png","常人","image_first",""
"","","","","","html-keyboard-response","316","668999","0.0-13.0-0.0-1.0-0.1-1.77","null","<span style='color:GreenYellow; font-size: 70px;'>正确! </span>","null","","","","","","","","","","","","","","","","","","","","","","","feedback_test"
"","","","","","psychophysics","317","670769","0.0-13.0-0.0-1.0-0.1-0.78","618","","j","","","","","","","","","","","","","key","j","16.654292452830013","640","356","j","true","img/C_ambi40.png","好人","image_first",""
"","","","","","html-keyboard-response","318","671087","0.0-13.0-0.0-1.0-0.1-1.78","null","<span style='color:GreenYellow; font-size: 70px;'>正确! </span>","null","","","","","","","","","","","","","","","","","","","","","","","feedback_test"
"","","","","","psychophysics","319","672959","0.0-13.0-0.0-1.0-0.1-0.79","716","","j","","","","","","","","","","","","","key","j","16.653072072072415","640","356","j","true","img/S_ambi40.png","坏人","image_first",""
"","","","","","html-keyboard-response","320","673271","0.0-13.0-0.0-1.0-0.1-1.79","null","<span style='color:GreenYellow; font-size: 70px;'>正确! </span>","null","","","","","","","","","","","","","","","","","","","","","","","feedback_test"
"","","","","","psychophysics","321","675126","0.0-13.0-0.0-1.0-0.1-0.80","700","","f","","","","","","","","","","","","","key","f","16.653681818181013","640","356","f","true","img/T_ambi40.png","坏人","image_first",""
"","","","","","html-keyboard-response","322","675441","0.0-13.0-0.0-1.0-0.1-1.80","null","<span style='color:GreenYellow; font-size: 70px;'>正确! </span>","null","","","","","","","","","","","","","","","","","","","","","","","feedback_test"
"","","","","","psychophysics","323","677163","0.0-13.0-0.0-1.0-0.1-0.81","568","","j","","","","","","","","","","","","","key","j","16.653165048543247","640","356","j","true","img/C_ambi40.png","好人","image_first",""
"","","","","","html-keyboard-response","324","677482","0.0-13.0-0.0-1.0-0.1-1.81","null","<span style='color:GreenYellow; font-size: 70px;'>正确! </span>","null","","","","","","","","","","","","","","","","","","","","","","","feedback_test"
"","","","","","psychophysics","325","679297","0.0-13.0-0.0-1.0-0.1-0.82","662","","j","","","","","","","","","","","","","key","j","16.653416666666832","640","356","j","true","img/S_ambi40.png","坏人","image_first",""
"","","","","","html-keyboard-response","326","679614","0.0-13.0-0.0-1.0-0.1-1.82","null","<span style='color:GreenYellow; font-size: 70px;'>正确! </span>","null","","","","","","","","","","","","","","","","","","","","","","","feedback_test"
"","","","","","psychophysics","327","681437","0.0-13.0-0.0-1.0-0.1-0.83","667","","f","","","","","","","","","","","","","key","f","16.653018518518095","640","356","f","true","img/C_ambi40.png","常人","image_first",""
"","","","","","html-keyboard-response","328","681750","0.0-13.0-0.0-1.0-0.1-1.83","null","<span style='color:GreenYellow; font-size: 70px;'>正确! </span>","null","","","","","","","","","","","","","","","","","","","","","","","feedback_test"
"","","","","","psychophysics","329","683689","0.0-13.0-0.0-1.0-0.1-0.84","783","","f","","","","","","","","","","","","","key","f","16.653799999999286","640","356","f","true","img/S_ambi40.png","常人","image_first",""
"","","","","","html-keyboard-response","330","684009","0.0-13.0-0.0-1.0-0.1-1.84","null","<span style='color:GreenYellow; font-size: 70px;'>正确! </span>","null","","","","","","","","","","","","","","","","","","","","","","","feedback_test"
"","","","","","psychophysics","331","685892","0.0-13.0-0.0-1.0-0.1-0.85","731","","f","","","","","","","","","","","","","key","f","16.652276785714744","640","356","f","true","img/C_ambi40.png","常人","image_first",""
"","","","","","html-keyboard-response","332","686209","0.0-13.0-0.0-1.0-0.1-1.85","null","<span style='color:GreenYellow; font-size: 70px;'>正确! </span>","null","","","","","","","","","","","","","","","","","","","","","","","feedback_test"
"","","","","","psychophysics","333","688262","0.0-13.0-0.0-1.0-0.1-0.86","894","","f","","","","","","","","","","","","","key","f","16.652942622950697","640","356","f","true","img/C_ambi40.png","坏人","image_first",""
"","","","","","html-keyboard-response","334","688584","0.0-13.0-0.0-1.0-0.1-1.86","null","<span style='color:GreenYellow; font-size: 70px;'>正确! </span>","null","","","","","","","","","","","","","","","","","","","","","","","feedback_test"
"","","","","","psychophysics","335","690511","0.0-13.0-0.0-1.0-0.1-0.87","775","","j","","","","","","","","","","","","","key","j","16.653400000000534","640","356","j","true","img/C_ambi40.png","好人","image_first",""
"","","","","","html-keyboard-response","336","690825","0.0-13.0-0.0-1.0-0.1-1.87","null","<span style='color:GreenYellow; font-size: 70px;'>正确! </span>","null","","","","","","","","","","","","","","","","","","","","","","","feedback_test"
"","","","","","psychophysics","337","692583","0.0-13.0-0.0-1.0-0.1-0.88","605","","f","","","","","","","","","","","","","key","f","16.653365384614936","640","356","f","true","img/T_ambi40.png","好人","image_first",""
"","","","","","html-keyboard-response","338","692899","0.0-13.0-0.0-1.0-0.1-1.88","null","<span style='color:GreenYellow; font-size: 70px;'>正确! </span>","null","","","","","","","","","","","","","","","","","","","","","","","feedback_test"
"","","","","","psychophysics","339","694659","0.0-13.0-0.0-1.0-0.1-0.89","601","","j","","","","","","","","","","","","","key","j","16.65296153846094","640","356","j","true","img/T_ambi40.png","常人","image_first",""
"","","","","","html-keyboard-response","340","694976","0.0-13.0-0.0-1.0-0.1-1.89","null","<span style='color:GreenYellow; font-size: 70px;'>正确! </span>","null","","","","","","","","","","","","","","","","","","","","","","","feedback_test"
"","","","","","psychophysics","341","696774","0.0-13.0-0.0-1.0-0.1-0.90","644","","f","","","","","","","","","","","","","key","f","16.65387850467368","640","356","f","true","img/T_ambi40.png","坏人","image_first",""
"","","","","","html-keyboard-response","342","697092","0.0-13.0-0.0-1.0-0.1-1.90","null","<span style='color:GreenYellow; font-size: 70px;'>正确! </span>","null","","","","","","","","","","","","","","","","","","","","","","","feedback_test"
"","","","","","psychophysics","343","698842","0.0-13.0-0.0-1.0-0.1-0.91","597","","j","","","","","","","","","","","","","key","j","16.65318269230752","640","356","j","true","img/S_ambi40.png","坏人","image_first",""
"","","","","","html-keyboard-response","344","699148","0.0-13.0-0.0-1.0-0.1-1.91","null","<span style='color:GreenYellow; font-size: 70px;'>正确! </span>","null","","","","","","","","","","","","","","","","","","","","","","","feedback_test"
"","","","","","psychophysics","345","700882","0.0-13.0-0.0-1.0-0.1-0.92","575","","f","","","","","","","","","","","","","key","f","16.653165048543247","640","356","f","true","img/S_ambi40.png","好人","image_first",""
"","","","","","html-keyboard-response","346","701199","0.0-13.0-0.0-1.0-0.1-1.92","null","<span style='color:GreenYellow; font-size: 70px;'>正确! </span>","null","","","","","","","","","","","","","","","","","","","","","","","feedback_test"
"","","","","","psychophysics","347","702928","0.0-13.0-0.0-1.0-0.1-0.93","573","","j","","","","","","","","","","","","","key","j","16.6525242718443","640","356","j","true","img/C_ambi40.png","好人","image_first",""
"","","","","","html-keyboard-response","348","703239","0.0-13.0-0.0-1.0-0.1-1.93","null","<span style='color:GreenYellow; font-size: 70px;'>正确! </span>","null","","","","","","","","","","","","","","","","","","","","","","","feedback_test"
"","","","","","psychophysics","349","705063","0.0-13.0-0.0-1.0-0.1-0.94","672","","j","","","","","","","","","","","","","key","j","16.537583333333412","640","356","j","true","img/T_ambi40.png","常人","image_first",""
"","","","","","html-keyboard-response","350","705382","0.0-13.0-0.0-1.0-0.1-1.94","null","<span style='color:GreenYellow; font-size: 70px;'>正确! </span>","null","","","","","","","","","","","","","","","","","","","","","","","feedback_test"
"","","","","","psychophysics","351","707109","0.0-13.0-0.0-1.0-0.1-0.95","571","","j","","","","","","","","","","","","","key","j","16.65363106796138","640","356","j","true","img/S_ambi40.png","坏人","image_first",""
"","","","","","html-keyboard-response","352","707424","0.0-13.0-0.0-1.0-0.1-1.95","null","<span style='color:GreenYellow; font-size: 70px;'>正确! </span>","null","","","","","","","","","","","","","","","","","","","","","","","feedback_test"
"","","","","","psychophysics","353","709208","0.0-13.0-0.0-1.0-0.1-0.96","629","","f","","","","","","","","","","","","","key","f","16.65400000000021","640","356","f","true","img/T_ambi40.png","坏人","image_first",""
"","","","","","html-keyboard-response","354","709515","0.0-13.0-0.0-1.0-0.1-1.96","null","<span style='color:GreenYellow; font-size: 70px;'>正确! </span>","null","","","","","","","","","","","","","","","","","","","","","","","feedback_test"
"","","","","","psychophysics","355","711307","0.0-13.0-0.0-1.0-0.1-0.97","641","","f","","","","","","","","","","","","","key","f","16.653495327102796","640","356","f","true","img/C_ambi40.png","坏人","image_first",""
"","","","","","html-keyboard-response","356","711619","0.0-13.0-0.0-1.0-0.1-1.97","null","<span style='color:GreenYellow; font-size: 70px;'>正确! </span>","null","","","","","","","","","","","","","","","","","","","","","","","feedback_test"
"","","","","","psychophysics","357","713601","0.0-13.0-0.0-1.0-0.1-0.98","823","","f","","","","","","","","","","","","","key","f","16.652889830508204","640","356","f","true","img/S_ambi40.png","好人","image_first",""
"","","","","","html-keyboard-response","358","713909","0.0-13.0-0.0-1.0-0.1-1.98","null","<span style='color:GreenYellow; font-size: 70px;'>正确! </span>","null","","","","","","","","","","","","","","","","","","","","","","","feedback_test"
"","","","","","psychophysics","359","715722","0.0-13.0-0.0-1.0-0.1-0.99","657","","j","","","","","","","","","","","","","key","j","16.653185185185134","640","356","j","true","img/S_ambi40.png","坏人","image_first",""
"","","","","","html-keyboard-response","360","716031","0.0-13.0-0.0-1.0-0.1-1.99","null","<span style='color:GreenYellow; font-size: 70px;'>正确! </span>","null","","","","","","","","","","","","","","","","","","","","","","","feedback_test"
"","","","","","psychophysics","361","717832","0.0-13.0-0.0-1.0-0.1-0.100","646","","j","","","","","","","","","","","","","key","j","16.652962616822144","640","356","j","true","img/T_ambi40.png","常人","image_first",""
"","","","","","html-keyboard-response","362","718148","0.0-13.0-0.0-1.0-0.1-1.100","null","<span style='color:GreenYellow; font-size: 70px;'>正确! </span>","null","","","","","","","","","","","","","","","","","","","","","","","feedback_test"
"","","","","","psychophysics","363","719988","0.0-13.0-0.0-1.0-0.1-0.101","682","","j","","","","","","","","","","","","","key","j","16.65371559633032","640","356","j","true","img/T_ambi40.png","常人","image_first",""
"","","","","","html-keyboard-response","364","720293","0.0-13.0-0.0-1.0-0.1-1.101","null","<span style='color:GreenYellow; font-size: 70px;'>正确! </span>","null","","","","","","","","","","","","","","","","","","","","","","","feedback_test"
"","","","","","psychophysics","365","722023","0.0-13.0-0.0-1.0-0.1-0.102","573","","j","","","","","","","","","","","","","key","j","16.65338235294136","640","356","j","true","img/C_ambi40.png","好人","image_first",""
"","","","","","html-keyboard-response","366","722336","0.0-13.0-0.0-1.0-0.1-1.102","null","<span style='color:GreenYellow; font-size: 70px;'>正确! </span>","null","","","","","","","","","","","","","","","","","","","","","","","feedback_test"
"","","","","","psychophysics","367","724185","0.0-13.0-0.0-1.0-0.1-0.103","694","","f","","","","","","","","","","","","","key","f","16.653463636363053","640","356","f","true","img/T_ambi40.png","好人","image_first",""
"","","","","","html-keyboard-response","368","724490","0.0-13.0-0.0-1.0-0.1-1.103","null","<span style='color:GreenYellow; font-size: 70px;'>正确! </span>","null","","","","","","","","","","","","","","","","","","","","","","","feedback_test"
"","","","","","psychophysics","369","726327","0.0-13.0-0.0-1.0-0.1-0.104","685","","f","","","","","","","","","","","","","key","f","16.652577981650786","640","356","f","true","img/C_ambi40.png","常人","image_first",""
"","","","","","html-keyboard-response","370","726636","0.0-13.0-0.0-1.0-0.1-1.104","null","<span style='color:GreenYellow; font-size: 70px;'>正确! </span>","null","","","","","","","","","","","","","","","","","","","","","","","feedback_test"
"","","","","","psychophysics","371","728372","0.0-13.0-0.0-1.0-0.1-0.105","585","","j","","","","","","","","","","","","","key","j","16.653480769230207","640","356","j","true","img/C_ambi40.png","好人","image_first",""
"","","","","","html-keyboard-response","372","728674","0.0-13.0-0.0-1.0-0.1-1.105","null","<span style='color:GreenYellow; font-size: 70px;'>正确! </span>","null","","","","","","","","","","","","","","","","","","","","","","","feedback_test"
"","","","","","psychophysics","373","730395","0.0-13.0-0.0-1.0-0.1-0.106","569","","j","","","","","","","","","","","","","key","j","16.6535098039221","640","356","j","true","img/S_ambi40.png","坏人","image_first",""
"","","","","","html-keyboard-response","374","730710","0.0-13.0-0.0-1.0-0.1-1.106","null","<span style='color:GreenYellow; font-size: 70px;'>正确! </span>","null","","","","","","","","","","","","","","","","","","","","","","","feedback_test"
"","","","","","psychophysics","375","732519","0.0-13.0-0.0-1.0-0.1-0.107","653","","f","","","","","","","","","","","","","key","f","16.654296296296202","640","356","f","true","img/S_ambi40.png","常人","image_first",""
"","","","","","html-keyboard-response","376","732831","0.0-13.0-0.0-1.0-0.1-1.107","null","<span style='color:GreenYellow; font-size: 70px;'>正确! </span>","null","","","","","","","","","","","","","","","","","","","","","","","feedback_test"
"","","","","","psychophysics","377","734642","0.0-13.0-0.0-1.0-0.1-0.108","660","","j","","","","","","","","","","","","","key","j","16.65288888888878","640","356","j","true","img/S_ambi40.png","坏人","image_first",""
"","","","","","html-keyboard-response","378","734948","0.0-13.0-0.0-1.0-0.1-1.108","null","<span style='color:GreenYellow; font-size: 70px;'>正确! </span>","null","","","","","","","","","","","","","","","","","","","","","","","feedback_test"
"","","","","","psychophysics","379","736718","0.0-13.0-0.0-1.0-0.1-0.109","611","","f","","","","","","","","","","","","","key","f","16.65299999999947","640","356","f","true","img/C_ambi40.png","坏人","image_first",""
"","","","","","html-keyboard-response","380","737035","0.0-13.0-0.0-1.0-0.1-1.109","null","<span style='color:GreenYellow; font-size: 70px;'>正确! </span>","null","","","","","","","","","","","","","","","","","","","","","","","feedback_test"
"","","","","","psychophysics","381","738841","0.0-13.0-0.0-1.0-0.1-0.110","655","","j","","","","","","","","","","","","","key","j","16.653635514018813","640","356","j","true","img/T_ambi40.png","常人","image_first",""
"","","","","","html-keyboard-response","382","739153","0.0-13.0-0.0-1.0-0.1-1.110","null","<span style='color:GreenYellow; font-size: 70px;'>正确! </span>","null","","","","","","","","","","","","","","","","","","","","","","","feedback_test"
"","","","","","psychophysics","383","741140","0.0-13.0-0.0-1.0-0.1-0.111","834","","f","","","","","","","","","","","","","key","f","16.653694915254718","640","356","f","true","img/C_ambi40.png","常人","image_first",""
"","","","","","html-keyboard-response","384","741445","0.0-13.0-0.0-1.0-0.1-1.111","null","<span style='color:GreenYellow; font-size: 70px;'>正确! </span>","null","","","","","","","","","","","","","","","","","","","","","","","feedback_test"
"","","","","","psychophysics","385","743174","0.0-13.0-0.0-1.0-0.1-0.112","571","","j","","","","","","","","","","","","","key","j","16.653352941177538","640","356","j","true","img/S_ambi40.png","坏人","image_first",""
"","","","","","html-keyboard-response","386","743486","0.0-13.0-0.0-1.0-0.1-1.112","null","<span style='color:GreenYellow; font-size: 70px;'>正确! </span>","null","","","","","","","","","","","","","","","","","","","","","","","feedback_test"
"","","","","","psychophysics","387","745210","0.0-13.0-0.0-1.0-0.1-0.113","570","","f","","","","","","","","","","","","","key","f","16.652941747571937","640","356","f","true","img/S_ambi40.png","好人","image_first",""
"","","","","","html-keyboard-response","388","745527","0.0-13.0-0.0-1.0-0.1-1.113","null","<span style='color:GreenYellow; font-size: 70px;'>正确! </span>","null","","","","","","","","","","","","","","","","","","","","","","","feedback_test"
"","","","","","psychophysics","389","747326","0.0-13.0-0.0-1.0-0.1-0.114","645","","j","","","","","","","","","","","","","key","j","16.653168224298753","640","356","j","true","img/T_ambi40.png","常人","image_first",""
"","","","","","html-keyboard-response","390","747637","0.0-13.0-0.0-1.0-0.1-1.114","null","<span style='color:GreenYellow; font-size: 70px;'>正确! </span>","null","","","","","","","","","","","","","","","","","","","","","","","feedback_test"
"","","","","","psychophysics","391","749348","0.0-13.0-0.0-1.0-0.1-0.115","553","","f","","","","","","","","","","","","","key","f","16.652673267325994","640","356","f","true","img/T_ambi40.png","好人","image_first",""
"","","","","","html-keyboard-response","392","749657","0.0-13.0-0.0-1.0-0.1-1.115","null","<span style='color:GreenYellow; font-size: 70px;'>正确! </span>","null","","","","","","","","","","","","","","","","","","","","","","","feedback_test"
"","","","","","psychophysics","393","751497","0.0-13.0-0.0-1.0-0.1-0.116","687","","f","","","","","","","","","","","","","key","f","16.653220183486248","640","356","f","true","img/T_ambi40.png","坏人","image_first",""
"","","","","","html-keyboard-response","394","751802","0.0-13.0-0.0-1.0-0.1-1.116","null","<span style='color:GreenYellow; font-size: 70px;'>正确! </span>","null","","","","","","","","","","","","","","","","","","","","","","","feedback_test"
"","","","","","psychophysics","395","753647","0.0-13.0-0.0-1.0-0.1-0.117","693","","j","","","","","","","","","","","","","key","j","16.653238532109903","640","356","j","true","img/C_ambi40.png","好人","image_first",""
"","","","","","html-keyboard-response","396","753957","0.0-13.0-0.0-1.0-0.1-1.117","null","<span style='color:GreenYellow; font-size: 70px;'>正确! </span>","null","","","","","","","","","","","","","","","","","","","","","","","feedback_test"
"","","","","","psychophysics","397","755708","0.0-13.0-0.0-1.0-0.1-0.118","594","","j","","","","","","","","","","","","","key","j","16.652663461538257","640","356","j","true","img/C_ambi40.png","好人","image_first",""
"","","","","","html-keyboard-response","398","756015","0.0-13.0-0.0-1.0-0.1-1.118","null","<span style='color:GreenYellow; font-size: 70px;'>正确! </span>","null","","","","","","","","","","","","","","","","","","","","","","","feedback_test"
"","","","","","psychophysics","399","757765","0.0-13.0-0.0-1.0-0.1-0.119","595","","f","","","","","","","","","","","","","key","f","16.65325000000079","640","356","f","true","img/S_ambi40.png","常人","image_first",""
"","","","","","html-keyboard-response","400","758085","0.0-13.0-0.0-1.0-0.1-1.119","null","<span style='color:GreenYellow; font-size: 70px;'>正确! </span>","null","","","","","","","","","","","","","","","","","","","","","","","feedback_test"
"","","","","","html-keyboard-response","401","768387","0.0-13.0-0.0-1.0-1.1","10299","<style>.context{color:white; font-size: 35px; line-height:40px}</style>                              <div><p class='context'>您正确回答了100% 的试次。</p><p class='context'>您的平均反应时为678毫秒。</p><p class='context'>请按任意键进入休息</p></div>","j","","","","","","","","","","","","","","","","","","","","","","",""
"","","","","","html-button-response","402","829960","0.0-13.0-0.0-1.0-2.1","61569","
                      <p>您当前还剩余2组实验</p>
                      <p>现在是休息时间，当您结束休息后，您可以点击 结束休息 按钮 继续</p>
                      <p>建议休息时间还剩余<span id=""iii"">60</span>秒</p>","0","","","","","","","","","","","","","","","","","","","","","","",""
"","","","","","psychophysics","403","831808","0.0-13.0-0.0-1.0-0.2-0.120","695","","f","","","","","","","","","","","","","key","f","16.65316363636362","640","356","f","true","img/T_ambi40.png","坏人","image_first",""
"","","","","","html-keyboard-response","404","832121","0.0-13.0-0.0-1.0-0.2-1.120","null","<span style='color:GreenYellow; font-size: 70px;'>正确! </span>","null","","","","","","","","","","","","","","","","","","","","","","","feedback_test"
"","","","","","psychophysics","405","833891","0.0-13.0-0.0-1.0-0.2-0.121","617","","j","","","","","","","","","","","","","key","j","16.65384761904854","640","356","j","true","img/T_ambi40.png","常人","image_first",""
"","","","","","html-keyboard-response","406","834194","0.0-13.0-0.0-1.0-0.2-1.121","null","<span style='color:GreenYellow; font-size: 70px;'>正确! </span>","null","","","","","","","","","","","","","","","","","","","","","","","feedback_test"
"","","","","","psychophysics","407","835950","0.0-13.0-0.0-1.0-0.2-0.122","603","","j","","","","","","","","","","","","","key","j","16.65357142857143","640","356","j","true","img/C_ambi40.png","好人","image_first",""
"","","","","","html-keyboard-response","408","836271","0.0-13.0-0.0-1.0-0.2-1.122","null","<span style='color:GreenYellow; font-size: 70px;'>正确! </span>","null","","","","","","","","","","","","","","","","","","","","","","","feedback_test"
"","","","","","psychophysics","409","838015","0.0-13.0-0.0-1.0-0.2-0.123","589","","f","","","","","","","","","","","","","key","f","16.652499999999865","640","356","f","true","img/C_ambi40.png","坏人","image_first",""
"","","","","","html-keyboard-response","410","838333","0.0-13.0-0.0-1.0-0.2-1.123","null","<span style='color:GreenYellow; font-size: 70px;'>正确! </span>","null","","","","","","","","","","","","","","","","","","","","","","","feedback_test"
"","","","","","psychophysics","411","840180","0.0-13.0-0.0-1.0-0.2-0.124","690","","f","","","","","","","","","","","","","key","f","16.653709090908524","640","356","f","true","img/T_ambi40.png","好人","image_first",""
"","","","","","html-keyboard-response","412","840488","0.0-13.0-0.0-1.0-0.2-1.124","null","<span style='color:GreenYellow; font-size: 70px;'>正确! </span>","null","","","","","","","","","","","","","","","","","","","","","","","feedback_test"
"","","","","","psychophysics","413","842245","0.0-13.0-0.0-1.0-0.2-0.125","603","","j","","","","","","","","","","","","","key","j","16.653733333333264","640","356","j","true","img/S_ambi40.png","坏人","image_first",""
"","","","","","html-keyboard-response","414","842558","0.0-13.0-0.0-1.0-0.2-1.125","null","<span style='color:GreenYellow; font-size: 70px;'>正确! </span>","null","","","","","","","","","","","","","","","","","","","","","","","feedback_test"
"","","","","","psychophysics","415","844395","0.0-13.0-0.0-1.0-0.2-0.126","681","","f","","","","","","","","","","","","","key","f","16.65354128440291","640","356","f","true","img/C_ambi40.png","常人","image_first",""
"","","","","","html-keyboard-response","416","844703","0.0-13.0-0.0-1.0-0.2-1.126","null","<span style='color:GreenYellow; font-size: 70px;'>正确! </span>","null","","","","","","","","","","","","","","","","","","","","","","","feedback_test"
"","","","","","psychophysics","417","846474","0.0-13.0-0.0-1.0-0.2-0.127","618","","j","","","","","","","","","","","","","key","j","16.652792452830152","640","356","j","true","img/C_ambi40.png","好人","image_first",""
"","","","","","html-keyboard-response","418","846785","0.0-13.0-0.0-1.0-0.2-1.127","null","<span style='color:GreenYellow; font-size: 70px;'>正确! </span>","null","","","","","","","","","","","","","","","","","","","","","","","feedback_test"
"","","","","","psychophysics","419","848667","0.0-13.0-0.0-1.0-0.2-0.128","729","","f","","","","","","","","","","","","","key","f","16.65322321428539","640","356","f","true","img/S_ambi40.png","常人","image_first",""
"","","","","","html-keyboard-response","420","848979","0.0-13.0-0.0-1.0-0.2-1.128","null","<span style='color:GreenYellow; font-size: 70px;'>正确! </span>","null","","","","","","","","","","","","","","","","","","","","","","","feedback_test"
"","","","","","psychophysics","421","850799","0.0-13.0-0.0-1.0-0.2-0.129","663","","j","","","","","","","","","","","","","key","j","16.653796296296168","640","356","j","true","img/T_ambi40.png","常人","image_first",""
"","","","","","html-keyboard-response","422","851106","0.0-13.0-0.0-1.0-0.2-1.129","null","<span style='color:GreenYellow; font-size: 70px;'>正确! </span>","null","","","","","","","","","","","","","","","","","","","","","","","feedback_test"
"","","","","","psychophysics","423","852948","0.0-13.0-0.0-1.0-0.2-0.130","682","","j","","","","","","","","","","","","","key","j","16.653926605503973","640","356","j","true","img/S_ambi40.png","坏人","image_first",""
"","","","","","html-keyboard-response","424","853257","0.0-13.0-0.0-1.0-0.2-1.130","null","<span style='color:GreenYellow; font-size: 70px;'>正确! </span>","null","","","","","","","","","","","","","","","","","","","","","","","feedback_test"
"","","","","","psychophysics","425","855021","0.0-13.0-0.0-1.0-0.2-0.131","610","","f","","","","","","","","","","","","","key","f","16.652980952380624","640","356","f","true","img/S_ambi40.png","好人","image_first",""
"","","","","","html-keyboard-response","426","855333","0.0-13.0-0.0-1.0-0.2-1.131","null","<span style='color:GreenYellow; font-size: 70px;'>正确! </span>","null","","","","","","","","","","","","","","","","","","","","","","","feedback_test"
"","","","","","psychophysics","427","857228","0.0-13.0-0.0-1.0-0.2-0.132","737","","f","","","","","","","","","","","","","key","f","16.652839285714435","640","356","f","true","img/T_ambi40.png","好人","image_first",""
"","","","","","html-keyboard-response","428","857540","0.0-13.0-0.0-1.0-0.2-1.132","null","<span style='color:GreenYellow; font-size: 70px;'>正确! </span>","null","","","","","","","","","","","","","","","","","","","","","","","feedback_test"
"","","","","","psychophysics","429","859322","0.0-13.0-0.0-1.0-0.2-0.133","627","","f","","","","","","","","","","","","","key","f","16.65463207547118","640","356","f","true","img/C_ambi40.png","坏人","image_first",""
"","","","","","html-keyboard-response","430","859626","0.0-13.0-0.0-1.0-0.2-1.133","null","<span style='color:GreenYellow; font-size: 70px;'>正确! </span>","null","","","","","","","","","","","","","","","","","","","","","","","feedback_test"
"","","","","","psychophysics","431","861421","0.0-13.0-0.0-1.0-0.2-0.134","643","","j","","","","","","","","","","","","","key","j","16.5282641509438","640","356","j","true","img/T_ambi40.png","常人","image_first",""
