"success","timeout","failed_images","failed_audio","failed_video","trial_type","trial_index","time_elapsed","internal_node_id","rt","stimulus","response","value","item_width_mm","item_height_mm","item_width_px","px2mm","view_dist_mm","item_width_deg","px2deg","scale_factor","win_width_deg","win_height_deg","view_history","response_type","key_press","avg_frame_time","center_x","center_y","correct_response","correct","Image","word","condition","screen_id"
"true","false","[]","[]","[]","preload","0","385","0.0-0.0","","","","","","","","","","","","","","","","","","","","","","","","","",""
"","","","","","html-keyboard-response","1","3674","0.0-1.0","3288","
     <p>您好，欢迎参加本次实验。</p>
     <p>为充分保障您的权利，请确保您已经知晓并同意《参与实验同意书》以及《数据公开知情同意书》。</p>
     <p>如果您未见过上述内容，请咨询实验员。</p>
     <p>如果您选择继续实验，则表示您已经清楚两份知情同意书的内容并同意。</p>
     <p> <div style = ""color: green""><按任意键至下页></div> </p>
     "," ","","","","","","","","","","","","","","","","","","","","","","",""
"","","","","","html-keyboard-response","2","4687","0.0-2.0","1012","
     <p>本实验首先需要您填写一些基本个人信息。</p>
     <p> <div style = ""color: green""><按任意键至下页></div></p>
     "," ","","","","","","","","","","","","","","","","","","","","","","",""
"","","","","","call-function","3","4688","0.0-3.0-0.0","","","","","","","","","","","","","","","","","","","","","","","","","",""
"","","","","","survey-html-form","4","7573","0.0-3.0-1.0","2868","","{""Q0"":""6""}","","","","","","","","","","","","","","","","","","","","","","",""
"","","","","","html-button-response","5","8380","0.0-3.0-2.0","805","<p style = 'color : white'>您的性别</p>","0","","","","","","","","","","","","","","","","","","","","","","",""
"","","","","","survey-html-form","6","12038","0.0-3.0-3.0","3656","","{""Q0"":""1997""}","","","","","","","","","","","","","","","","","","","","","","",""
"","","","","","survey-html-form","7","13909","0.0-3.0-4.0","1869","","{""Q0"":""6""}","","","","","","","","","","","","","","","","","","","","","","",""
"","","","","","virtual-chinrest","8","59771","0.0-4.0","45856","","","","85.6","53.98","485.65375058424206","5.678607656570955","503.73","9.713075011684841","50","0.7906867794968072","30.72","15.08","","","","","","","","","","","",""
"true","","","","","fullscreen","9","63218","0.0-5.0","","","","","","","","","","","","","","","","","","","","","","","","","",""
"","","","","","instructions","10","71220","0.0-6.0","8002","","","","","","","","","","","","","","[{""page_index"":0,""viewing_time"":2340},{""page_index"":1,""viewing_time"":2566},{""page_index"":2,""viewing_time"":1768},{""page_index"":3,""viewing_time"":1328}]","","","","","","","","","","",""
"","","","","","psychophysics","11","73441","0.0-7.0-0.0-0.0","1063","","j","","","","","","","","","","","","","key","j","16.663687022900756","768","428","j","true","img/S_ambi40.png","好人","prac_image_first",""
"","","","","","html-keyboard-response","12","73747","0.0-7.0-0.0-1.0","null","<span style='color:GreenYellow; font-size: 70px;'>正确! </span>","null","","","","","","","","","","","","","","","","","","","","","","","feedback_test"
"","","","","","psychophysics","13","75809","0.0-7.0-0.0-0.1","903","","f","","","","","","","","","","","","","key","f","16.663295081967263","768","428","f","true","img/S_ambi40.png","常人","prac_image_first",""
"","","","","","html-keyboard-response","14","76123","0.0-7.0-0.0-1.1","null","<span style='color:GreenYellow; font-size: 70px;'>正确! </span>","null","","","","","","","","","","","","","","","","","","","","","","","feedback_test"
"","","","","","psychophysics","15","78412","0.0-7.0-0.0-0.2","1135","","f","","","","","","","","","","","","","key","f","16.66480291970809","768","428","f","true","img/C_ambi40.png","好人","prac_image_first",""
"","","","","","html-keyboard-response","16","78728","0.0-7.0-0.0-1.2","null","<span style='color:GreenYellow; font-size: 70px;'>正确! </span>","null","","","","","","","","","","","","","","","","","","","","","","","feedback_test"
"","","","","","psychophysics","17","80484","0.0-7.0-0.0-0.3","601","","f","","","","","","","","","","","","","key","f","16.66325961538454","768","428","f","true","img/S_ambi40.png","常人","prac_image_first",""
"","","","","","html-keyboard-response","18","80797","0.0-7.0-0.0-1.3","null","<span style='color:GreenYellow; font-size: 70px;'>正确! </span>","null","","","","","","","","","","","","","","","","","","","","","","","feedback_test"
"","","","","","psychophysics","19","82799","0.0-7.0-0.0-0.4","845","","j","","","","","","","","","","","","","key","j","16.664092436974805","768","428","j","true","img/T_ambi40.png","常人","prac_image_first",""
"","","","","","html-keyboard-response","20","83109","0.0-7.0-0.0-1.4","null","<span style='color:GreenYellow; font-size: 70px;'>正确! </span>","null","","","","","","","","","","","","","","","","","","","","","","","feedback_test"
"","","","","","psychophysics","21","85442","0.0-7.0-0.0-0.5","1180","","f","","","","","","","","","","","","","key","f","16.664500000000007","768","428","f","true","img/T_ambi40.png","坏人","prac_image_first",""
"","","","","","html-keyboard-response","22","85758","0.0-7.0-0.0-1.5","null","<span style='color:GreenYellow; font-size: 70px;'>正确! </span>","null","","","","","","","","","","","","","","","","","","","","","","","feedback_test"
"","","","","","psychophysics","23","88414","0.0-7.0-0.0-0.6","1505","","j","","","","","","","","","","","","","key","j","16.66320886075947","768","428","j","true","img/T_ambi40.png","好人","prac_image_first",""
"","","","","","html-keyboard-response","24","88737","0.0-7.0-0.0-1.6","null","<span class='add_' style='color:yellow; font-size: 70px;'> 太慢! </span>","null","","","","","","","","","","","","","","","","","","","","","","","feedback_test"
"","","","","","psychophysics","25","91020","0.0-7.0-0.0-0.7","1129","","f","","","","","","","","","","","","","key","f","16.663794117647043","768","428","f","true","img/T_ambi40.png","坏人","prac_image_first",""
"","","","","","html-keyboard-response","26","91322","0.0-7.0-0.0-1.7","null","<span style='color:GreenYellow; font-size: 70px;'>正确! </span>","null","","","","","","","","","","","","","","","","","","","","","","","feedback_test"
"","","","","","psychophysics","27","93452","0.0-7.0-0.0-0.8","979","","j","","","","","","","","","","","","","key","j","16.66467460317457","768","428","j","true","img/S_ambi40.png","坏人","prac_image_first",""
"","","","","","html-keyboard-response","28","93757","0.0-7.0-0.0-1.8","null","<span style='color:GreenYellow; font-size: 70px;'>正确! </span>","null","","","","","","","","","","","","","","","","","","","","","","","feedback_test"
"","","","","","psychophysics","29","95614","0.0-7.0-0.0-0.9","699","","f","","","","","","","","","","","","","key","f","16.664363636363653","768","428","j","false","img/C_ambi40.png","常人","prac_image_first",""
"","","","","","html-keyboard-response","30","95923","0.0-7.0-0.0-1.9","null","<span style='color:red; font-size: 70px;'>错误! </span>","null","","","","","","","","","","","","","","","","","","","","","","","feedback_test"
"","","","","","psychophysics","31","97964","0.0-7.0-0.0-0.10","889","","j","","","","","","","","","","","","","key","j","16.66374380165285","768","428","j","true","img/C_ambi40.png","坏人","prac_image_first",""
"","","","","","html-keyboard-response","32","98286","0.0-7.0-0.0-1.10","null","<span style='color:GreenYellow; font-size: 70px;'>正确! </span>","null","","","","","","","","","","","","","","","","","","","","","","","feedback_test"
"","","","","","psychophysics","33","100303","0.0-7.0-0.0-0.11","864","","f","","","","","","","","","","","","","key","f","16.662541666666584","768","428","f","true","img/C_ambi40.png","好人","prac_image_first",""
"","","","","","html-keyboard-response","34","100617","0.0-7.0-0.0-1.11","null","<span style='color:GreenYellow; font-size: 70px;'>正确! </span>","null","","","","","","","","","","","","","","","","","","","","","","","feedback_test"
"","","","","","psychophysics","35","102681","0.0-7.0-0.0-0.12","911","","j","","","","","","","","","","","","","key","j","16.663991869918718","768","428","j","true","img/T_ambi40.png","常人","prac_image_first",""
"","","","","","html-keyboard-response","36","103001","0.0-7.0-0.0-1.12","null","<span style='color:GreenYellow; font-size: 70px;'>正确! </span>","null","","","","","","","","","","","","","","","","","","","","","","","feedback_test"
"","","","","","psychophysics","37","105219","0.0-7.0-0.0-0.13","1063","","j","","","","","","","","","","","","","key","j","16.664431818181722","768","428","j","true","img/S_ambi40.png","好人","prac_image_first",""
"","","","","","html-keyboard-response","38","105530","0.0-7.0-0.0-1.13","null","<span style='color:GreenYellow; font-size: 70px;'>正确! </span>","null","","","","","","","","","","","","","","","","","","","","","","","feedback_test"
"","","","","","psychophysics","39","107901","0.0-7.0-0.0-0.14","1219","","f","","","","","","","","","","","","","key","f","16.6632198581561","768","428","j","false","img/C_ambi40.png","常人","prac_image_first",""
"","","","","","html-keyboard-response","40","108205","0.0-7.0-0.0-1.14","null","<span style='color:red; font-size: 70px;'>错误! </span>","null","","","","","","","","","","","","","","","","","","","","","","","feedback_test"
"","","","","","psychophysics","41","110077","0.0-7.0-0.0-0.15","714","","f","","","","","","","","","","","","","key","f","16.663711711711635","768","428","f","true","img/T_ambi40.png","坏人","prac_image_first",""
"","","","","","html-keyboard-response","42","110382","0.0-7.0-0.0-1.15","null","<span style='color:GreenYellow; font-size: 70px;'>正确! </span>","null","","","","","","","","","","","","","","","","","","","","","","","feedback_test"
"","","","","","psychophysics","43","112444","0.0-7.0-0.0-0.16","907","","j","","","","","","","","","","","","","key","j","16.663634146341526","768","428","f","false","img/S_ambi40.png","常人","prac_image_first",""
"","","","","","html-keyboard-response","44","112761","0.0-7.0-0.0-1.16","null","<span style='color:red; font-size: 70px;'>错误! </span>","null","","","","","","","","","","","","","","","","","","","","","","","feedback_test"
"","","","","","psychophysics","45","114412","0.0-7.0-0.0-0.17","498","","f","","","","","","","","","","","","","key","f","16.663734693877572","768","428","f","true","img/C_ambi40.png","好人","prac_image_first",""
"","","","","","html-keyboard-response","46","114723","0.0-7.0-0.0-1.17","null","<span style='color:GreenYellow; font-size: 70px;'>正确! </span>","null","","","","","","","","","","","","","","","","","","","","","","","feedback_test"
"","","","","","psychophysics","47","116702","0.0-7.0-0.0-0.18","819","","j","","","","","","","","","","","","","key","j","16.66361538461548","768","428","j","true","img/S_ambi40.png","坏人","prac_image_first",""
"","","","","","html-keyboard-response","48","117024","0.0-7.0-0.0-1.18","null","<span style='color:GreenYellow; font-size: 70px;'>正确! </span>","null","","","","","","","","","","","","","","","","","","","","","","","feedback_test"
"","","","","","psychophysics","49","118807","0.0-7.0-0.0-0.19","629","","j","","","","","","","","","","","","","key","j","16.664179245283073","768","428","j","true","img/T_ambi40.png","好人","prac_image_first",""
"","","","","","html-keyboard-response","50","119122","0.0-7.0-0.0-1.19","null","<span style='color:GreenYellow; font-size: 70px;'>正确! </span>","null","","","","","","","","","","","","","","","","","","","","","","","feedback_test"
"","","","","","psychophysics","51","121008","0.0-7.0-0.0-0.20","732","","j","","","","","","","","","","","","","key","j","16.66498214285704","768","428","j","true","img/C_ambi40.png","坏人","prac_image_first",""
"","","","","","html-keyboard-response","52","121325","0.0-7.0-0.0-1.20","null","<span style='color:GreenYellow; font-size: 70px;'>正确! </span>","null","","","","","","","","","","","","","","","","","","","","","","","feedback_test"
"","","","","","psychophysics","53","123311","0.0-7.0-0.0-0.21","829","","f","","","","","","","","","","","","","key","f","16.66345762711865","768","428","f","true","img/T_ambi40.png","坏人","prac_image_first",""
"","","","","","html-keyboard-response","54","123623","0.0-7.0-0.0-1.21","null","<span style='color:GreenYellow; font-size: 70px;'>正确! </span>","null","","","","","","","","","","","","","","","","","","","","","","","feedback_test"
"","","","","","psychophysics","55","125313","0.0-7.0-0.0-0.22","533","","f","","","","","","","","","","","","","key","f","16.66334999999992","768","428","f","true","img/C_ambi40.png","好人","prac_image_first",""
"","","","","","html-keyboard-response","56","125624","0.0-7.0-0.0-1.22","null","<span style='color:GreenYellow; font-size: 70px;'>正确! </span>","null","","","","","","","","","","","","","","","","","","","","","","","feedback_test"
"","","","","","psychophysics","57","127225","0.0-7.0-0.0-0.23","445","","f","","","","","","","","","","","","","key","f","16.663800000000016","768","428","f","true","img/S_ambi40.png","常人","prac_image_first",""
"","","","","","html-keyboard-response","58","127544","0.0-7.0-0.0-1.23","null","<span style='color:GreenYellow; font-size: 70px;'>正确! </span>","null","","","","","","","","","","","","","","","","","","","","","","","feedback_test"
"","","","","","html-keyboard-response","59","128899","0.0-8.0","1351","<style>.context{color:white; font-size: 35px; line-height:40px}</style>                              <div><p class='context'>您正确回答了88% 的试次。</p><p class='context'>您的平均反应时为870毫秒。</p><p class='context'>恭喜您完成这一阶段的练习。按任意键进入<span style='color: yellow;'>先文字后图形条件</span>的练习。</p></div>"," ","","","","","","","","","","","","","","","","","","","","","","",""
"","","","","","psychophysics","60","130754","0.0-9.0-0.0-0.0","688","","j","","","","","","","","","","","","","key","j","16.663763636363598","768","428","j","true","img/T_ambi40.png","好人","prac_word_first",""
"","","","","","html-keyboard-response","61","131069","0.0-9.0-0.0-1.0","null","<span style='color:GreenYellow; font-size: 70px;'>正确! </span>","null","","","","","","","","","","","","","","","","","","","","","","","feedback_test"
"","","","","","psychophysics","62","132876","0.0-9.0-0.0-0.1","650","","f","","","","","","","","","","","","","key","f","16.663869158878637","768","428","f","true","img/T_ambi40.png","坏人","prac_word_first",""
"","","","","","html-keyboard-response","63","133192","0.0-9.0-0.0-1.1","null","<span style='color:GreenYellow; font-size: 70px;'>正确! </span>","null","","","","","","","","","","","","","","","","","","","","","","","feedback_test"
"","","","","","psychophysics","64","135059","0.0-9.0-0.0-0.2","713","","j","","","","","","","","","","","","","key","j","16.663585585585547","768","428","f","false","img/T_ambi40.png","坏人","prac_word_first",""
"","","","","","html-keyboard-response","65","135367","0.0-9.0-0.0-1.2","null","<span style='color:red; font-size: 70px;'>错误! </span>","null","","","","","","","","","","","","","","","","","","","","","","","feedback_test"
"","","","","","psychophysics","66","137095","0.0-9.0-0.0-0.3","573","","f","","","","","","","","","","","","","key","f","16.663764705882333","768","428","f","true","img/C_ambi40.png","好人","prac_word_first",""
"","","","","","html-keyboard-response","67","137403","0.0-9.0-0.0-1.3","null","<span style='color:GreenYellow; font-size: 70px;'>正确! </span>","null","","","","","","","","","","","","","","","","","","","","","","","feedback_test"
"","","","","","psychophysics","68","139310","0.0-9.0-0.0-0.4","748","","j","","","","","","","","","","","","","key","j","16.663761061946943","768","428","j","true","img/S_ambi40.png","好人","prac_word_first",""
"","","","","","html-keyboard-response","69","139620","0.0-9.0-0.0-1.4","null","<span style='color:GreenYellow; font-size: 70px;'>正确! </span>","null","","","","","","","","","","","","","","","","","","","","","","","feedback_test"
"","","","","","psychophysics","70","141607","0.0-9.0-0.0-0.5","829","","f","","","","","","","","","","","","","key","f","16.66388135593211","768","428","f","true","img/S_ambi40.png","常人","prac_word_first",""
"","","","","","html-keyboard-response","71","141928","0.0-9.0-0.0-1.5","null","<span style='color:GreenYellow; font-size: 70px;'>正确! </span>","null","","","","","","","","","","","","","","","","","","","","","","","feedback_test"
"","","","","","psychophysics","72","143574","0.0-9.0-0.0-0.6","494","","f","","","","","","","","","","","","","key","f","16.663969387755284","768","428","f","true","img/S_ambi40.png","常人","prac_word_first",""
"","","","","","html-keyboard-response","73","143891","0.0-9.0-0.0-1.6","null","<span style='color:GreenYellow; font-size: 70px;'>正确! </span>","null","","","","","","","","","","","","","","","","","","","","","","","feedback_test"
"","","","","","psychophysics","74","145694","0.0-9.0-0.0-0.7","647","","j","","","","","","","","","","","","","key","j","16.663000000000192","768","428","j","true","img/T_ambi40.png","常人","prac_word_first",""
"","","","","","html-keyboard-response","75","146017","0.0-9.0-0.0-1.7","null","<span style='color:GreenYellow; font-size: 70px;'>正确! </span>","null","","","","","","","","","","","","","","","","","","","","","","","feedback_test"
"","","","","","psychophysics","76","147893","0.0-9.0-0.0-0.8","721","","j","","","","","","","","","","","","","key","j","16.664414414414413","768","428","j","true","img/C_ambi40.png","坏人","prac_word_first",""
"","","","","","html-keyboard-response","77","148199","0.0-9.0-0.0-1.8","null","<span style='color:GreenYellow; font-size: 70px;'>正确! </span>","null","","","","","","","","","","","","","","","","","","","","","","","feedback_test"
"","","","","","psychophysics","78","150187","0.0-9.0-0.0-0.9","832","","j","","","","","","","","","","","","","key","j","16.664296610169387","768","428","j","true","img/S_ambi40.png","坏人","prac_word_first",""
"","","","","","html-keyboard-response","79","150496","0.0-9.0-0.0-1.9","null","<span style='color:GreenYellow; font-size: 70px;'>正确! </span>","null","","","","","","","","","","","","","","","","","","","","","","","feedback_test"
"","","","","","psychophysics","80","152085","0.0-9.0-0.0-0.10","436","","f","","","","","","","","","","","","","key","f","16.663670212766057","768","428","f","true","img/C_ambi40.png","好人","prac_word_first",""
"","","","","","html-keyboard-response","81","152391","0.0-9.0-0.0-1.10","null","<span style='color:GreenYellow; font-size: 70px;'>正确! </span>","null","","","","","","","","","","","","","","","","","","","","","","","feedback_test"
"","","","","","psychophysics","82","154294","0.0-9.0-0.0-0.11","749","","j","","","","","","","","","","","","","key","j","16.66401769911491","768","428","j","true","img/C_ambi40.png","常人","prac_word_first",""
"","","","","","html-keyboard-response","83","154607","0.0-9.0-0.0-1.11","null","<span style='color:GreenYellow; font-size: 70px;'>正确! </span>","null","","","","","","","","","","","","","","","","","","","","","","","feedback_test"
"","","","","","psychophysics","84","156370","0.0-9.0-0.0-0.12","607","","j","","","","","","","","","","","","","key","j","16.663923809523805","768","428","j","true","img/C_ambi40.png","坏人","prac_word_first",""
"","","","","","html-keyboard-response","85","156678","0.0-9.0-0.0-1.12","null","<span style='color:GreenYellow; font-size: 70px;'>正确! </span>","null","","","","","","","","","","","","","","","","","","","","","","","feedback_test"
"","","","","","psychophysics","86","158718","0.0-9.0-0.0-0.13","889","","f","","","","","","","","","","","","","key","f","16.66395041322305","768","428","j","false","img/C_ambi40.png","常人","prac_word_first",""
"","","","","","html-keyboard-response","87","159030","0.0-9.0-0.0-1.13","null","<span style='color:red; font-size: 70px;'>错误! </span>","null","","","","","","","","","","","","","","","","","","","","","","","feedback_test"
"","","","","","psychophysics","88","161110","0.0-9.0-0.0-0.14","924","","j","","","","","","","","","","","","","key","j","16.663951219512175","768","428","j","true","img/S_ambi40.png","坏人","prac_word_first",""
"","","","","","html-keyboard-response","89","161428","0.0-9.0-0.0-1.14","null","<span style='color:GreenYellow; font-size: 70px;'>正确! </span>","null","","","","","","","","","","","","","","","","","","","","","","","feedback_test"
"","","","","","psychophysics","90","163322","0.0-9.0-0.0-0.15","734","","f","","","","","","","","","","","","","key","f","16.664669642857138","768","428","f","true","img/T_ambi40.png","坏人","prac_word_first",""
"","","","","","html-keyboard-response","91","163639","0.0-9.0-0.0-1.15","null","<span style='color:GreenYellow; font-size: 70px;'>正确! </span>","null","","","","","","","","","","","","","","","","","","","","","","","feedback_test"
"","","","","","psychophysics","92","165466","0.0-9.0-0.0-0.16","673","","f","","","","","","","","","","","","","key","f","16.6641284403671","768","428","f","true","img/T_ambi40.png","坏人","prac_word_first",""
"","","","","","html-keyboard-response","93","165779","0.0-9.0-0.0-1.16","null","<span style='color:GreenYellow; font-size: 70px;'>正确! </span>","null","","","","","","","","","","","","","","","","","","","","","","","feedback_test"
"","","","","","psychophysics","94","167532","0.0-9.0-0.0-0.17","592","","j","","","","","","","","","","","","","key","j","16.663701923076868","768","428","j","true","img/S_ambi40.png","好人","prac_word_first",""
"","","","","","html-keyboard-response","95","167842","0.0-9.0-0.0-1.17","null","<span style='color:GreenYellow; font-size: 70px;'>正确! </span>","null","","","","","","","","","","","","","","","","","","","","","","","feedback_test"
"","","","","","psychophysics","96","169972","0.0-9.0-0.0-0.18","978","","j","","","","","","","","","","","","","key","j","16.66373809523805","768","428","j","true","img/T_ambi40.png","常人","prac_word_first",""
"","","","","","html-keyboard-response","97","170275","0.0-9.0-0.0-1.18","null","<span style='color:GreenYellow; font-size: 70px;'>正确! </span>","null","","","","","","","","","","","","","","","","","","","","","","","feedback_test"
"","","","","","psychophysics","98","172359","0.0-9.0-0.0-0.19","923","","f","","","","","","","","","","","","","key","f","16.663572580645127","768","428","f","true","img/S_ambi40.png","常人","prac_word_first",""
"","","","","","html-keyboard-response","99","172674","0.0-9.0-0.0-1.19","null","<span style='color:GreenYellow; font-size: 70px;'>正确! </span>","null","","","","","","","","","","","","","","","","","","","","","","","feedback_test"
"","","","","","psychophysics","100","174485","0.0-9.0-0.0-0.20","660","","f","","","","","","","","","","","","","key","f","16.662084112149742","768","428","f","true","img/C_ambi40.png","好人","prac_word_first",""
"","","","","","html-keyboard-response","101","174795","0.0-9.0-0.0-1.20","null","<span style='color:GreenYellow; font-size: 70px;'>正确! </span>","null","","","","","","","","","","","","","","","","","","","","","","","feedback_test"
"","","","","","psychophysics","102","176583","0.0-9.0-0.0-0.21","628","","f","","","","","","","","","","","","","key","f","16.66406603773588","768","428","f","true","img/S_ambi40.png","常人","prac_word_first",""
"","","","","","html-keyboard-response","103","176893","0.0-9.0-0.0-1.21","null","<span style='color:GreenYellow; font-size: 70px;'>正确! </span>","null","","","","","","","","","","","","","","","","","","","","","","","feedback_test"
"","","","","","psychophysics","104","178738","0.0-9.0-0.0-0.22","688","","j","","","","","","","","","","","","","key","j","16.663642201834858","768","428","j","true","img/T_ambi40.png","好人","prac_word_first",""
"","","","","","html-keyboard-response","105","179043","0.0-9.0-0.0-1.22","null","<span style='color:GreenYellow; font-size: 70px;'>正确! </span>","null","","","","","","","","","","","","","","","","","","","","","","","feedback_test"
"","","","","","psychophysics","106","181014","0.0-9.0-0.0-0.23","820","","f","","","","","","","","","","","","","key","f","16.66386324786342","768","428","f","true","img/C_ambi40.png","好人","prac_word_first",""
"","","","","","html-keyboard-response","107","181325","0.0-9.0-0.0-1.23","null","<span style='color:GreenYellow; font-size: 70px;'>正确! </span>","null","","","","","","","","","","","","","","","","","","","","","","","feedback_test"
"","","","","","html-keyboard-response","108","184382","0.0-10.0","3055","<style>.context{color:white; font-size: 35px; line-height:40px}</style>                              <div><p class='context'>您正确回答了92% 的试次。</p><p class='context'>您的平均反应时为709毫秒。</p><p class='context'>恭喜您完成练习。按任意键进入<span style='color: yellow;'>图形和文字同时呈现条件</span>的练习。</p></div>"," ","","","","","","","","","","","","","","","","","","","","","","",""
"","","","","","psychophysics","109","186314","0.0-11.0-0.0-0.0","910","","f","","","","","","","","","","","","","key","f","16.663217391304258","768","428","f","true","img/T_ambi40.png","坏人","prac_simultaneous",""
"","","","","","html-keyboard-response","110","186618","0.0-11.0-0.0-1.0","null","<span style='color:GreenYellow; font-size: 70px;'>正确! </span>","null","","","","","","","","","","","","","","","","","","","","","","","feedback_test"
"","","","","","psychophysics","111","188269","0.0-11.0-0.0-0.1","648","","f","","","","","","","","","","","","","key","f","16.5338969072165","768","428","f","true","img/S_ambi40.png","常人","prac_simultaneous",""
"","","","","","html-keyboard-response","112","188587","0.0-11.0-0.0-1.1","null","<span style='color:GreenYellow; font-size: 70px;'>正确! </span>","null","","","","","","","","","","","","","","","","","","","","","","","feedback_test"
"","","","","","psychophysics","113","190434","0.0-11.0-0.0-0.2","840","","j","","","","","","","","","","","","","key","j","16.66347706422008","768","428","j","true","img/S_ambi40.png","坏人","prac_simultaneous",""
"","","","","","html-keyboard-response","114","190746","0.0-11.0-0.0-1.2","null","<span style='color:GreenYellow; font-size: 70px;'>正确! </span>","null","","","","","","","","","","","","","","","","","","","","","","","feedback_test"
"","","","","","psychophysics","115","192511","0.0-11.0-0.0-0.3","758","","f","","","","","","","","","","","","","key","f","16.66321904761911","768","428","f","true","img/S_ambi40.png","常人","prac_simultaneous",""
"","","","","","html-keyboard-response","116","192825","0.0-11.0-0.0-1.3","null","<span style='color:GreenYellow; font-size: 70px;'>正确! </span>","null","","","","","","","","","","","","","","","","","","","","","","","feedback_test"
"","","","","","psychophysics","117","194533","0.0-11.0-0.0-0.4","699","","j","","","","","","","","","","","","","key","j","16.663732673267436","768","428","j","true","img/C_ambi40.png","常人","prac_simultaneous",""
"","","","","","html-keyboard-response","118","194855","0.0-11.0-0.0-1.4","null","<span style='color:GreenYellow; font-size: 70px;'>正确! </span>","null","","","","","","","","","","","","","","","","","","","","","","","feedback_test"
"","","","","","psychophysics","119","196805","0.0-11.0-0.0-0.5","948","","j","","","","","","","","","","","","","key","j","16.663594827586074","768","428","j","true","img/T_ambi40.png","常人","prac_simultaneous",""
"","","","","","html-keyboard-response","120","197122","0.0-11.0-0.0-1.5","null","<span style='color:GreenYellow; font-size: 70px;'>正确! </span>","null","","","","","","","","","","","","","","","","","","","","","","","feedback_test"
"","","","","","psychophysics","121","198859","0.0-11.0-0.0-0.6","729","","f","","","","","","","","","","","","","key","f","16.663893203883436","768","428","f","true","img/T_ambi40.png","坏人","prac_simultaneous",""
"","","","","","html-keyboard-response","122","199166","0.0-11.0-0.0-1.6","null","<span style='color:GreenYellow; font-size: 70px;'>正确! </span>","null","","","","","","","","","","","","","","","","","","","","","","","feedback_test"
"","","","","","psychophysics","123","200890","0.0-11.0-0.0-0.7","722","","f","","","","","","","","","","","","","key","f","16.527098039215645","768","428","f","true","img/C_ambi40.png","好人","prac_simultaneous",""
"","","","","","html-keyboard-response","124","201195","0.0-11.0-0.0-1.7","null","<span style='color:GreenYellow; font-size: 70px;'>正确! </span>","null","","","","","","","","","","","","","","","","","","","","","","","feedback_test"
"","","","","","psychophysics","125","202928","0.0-11.0-0.0-0.8","727","","f","","","","","","","","","","","","","key","f","16.66476699029117","768","428","f","true","img/C_ambi40.png","好人","prac_simultaneous",""
"","","","","","html-keyboard-response","126","203234","0.0-11.0-0.0-1.8","null","<span style='color:GreenYellow; font-size: 70px;'>正确! </span>","null","","","","","","","","","","","","","","","","","","","","","","","feedback_test"
"","","","","","psychophysics","127","205027","0.0-11.0-0.0-0.9","789","","j","","","","","","","","","","","","","key","j","16.663849056603933","768","428","j","true","img/T_ambi40.png","好人","prac_simultaneous",""
"","","","","","html-keyboard-response","128","205341","0.0-11.0-0.0-1.9","null","<span style='color:GreenYellow; font-size: 70px;'>正确! </span>","null","","","","","","","","","","","","","","","","","","","","","","","feedback_test"
"","","","","","psychophysics","129","207240","0.0-11.0-0.0-0.10","894","","j","","","","","","","","","","","","","key","j","16.66375221238926","768","428","j","true","img/C_ambi40.png","坏人","prac_simultaneous",""
"","","","","","html-keyboard-response","130","207560","0.0-11.0-0.0-1.10","null","<span style='color:GreenYellow; font-size: 70px;'>正确! </span>","null","","","","","","","","","","","","","","","","","","","","","","","feedback_test"
"","","","","","psychophysics","131","209374","0.0-11.0-0.0-0.11","808","","j","","","","","","","","","","","","","key","j","16.662972222222177","768","428","j","true","img/S_ambi40.png","好人","prac_simultaneous",""
"","","","","","html-keyboard-response","132","209684","0.0-11.0-0.0-1.11","null","<span style='color:GreenYellow; font-size: 70px;'>正确! </span>","null","","","","","","","","","","","","","","","","","","","","","","","feedback_test"
"","","","","","psychophysics","133","211422","0.0-11.0-0.0-0.12","732","","j","","","","","","","","","","","","","key","j","16.663922330096998","768","428","j","true","img/S_ambi40.png","好人","prac_simultaneous",""
"","","","","","html-keyboard-response","134","211735","0.0-11.0-0.0-1.12","null","<span style='color:GreenYellow; font-size: 70px;'>正确! </span>","null","","","","","","","","","","","","","","","","","","","","","","","feedback_test"
"","","","","","psychophysics","135","213530","0.0-11.0-0.0-0.13","792","","j","","","","","","","","","","","","","key","j","16.66523584905646","768","428","f","false","img/S_ambi40.png","常人","prac_simultaneous",""
"","","","","","html-keyboard-response","136","213841","0.0-11.0-0.0-1.13","null","<span style='color:red; font-size: 70px;'>错误! </span>","null","","","","","","","","","","","","","","","","","","","","","","","feedback_test"
"","","","","","psychophysics","137","215556","0.0-11.0-0.0-0.14","708","","f","","","","","","","","","","","","","key","f","16.663990196078277","768","428","f","true","img/T_ambi40.png","坏人","prac_simultaneous",""
"","","","","","html-keyboard-response","138","215870","0.0-11.0-0.0-1.14","null","<span style='color:GreenYellow; font-size: 70px;'>正确! </span>","null","","","","","","","","","","","","","","","","","","","","","","","feedback_test"
"","","","","","psychophysics","139","217929","0.0-11.0-0.0-0.15","1055","","j","","","","","","","","","","","","","key","j","16.66430327868839","768","428","j","true","img/C_ambi40.png","常人","prac_simultaneous",""
"","","","","","html-keyboard-response","140","218244","0.0-11.0-0.0-1.15","null","<span style='color:GreenYellow; font-size: 70px;'>正确! </span>","null","","","","","","","","","","","","","","","","","","","","","","","feedback_test"
"","","","","","psychophysics","141","220217","0.0-11.0-0.0-0.16","969","","j","","","","","","","","","","","","","key","j","16.662974576271186","768","428","j","true","img/T_ambi40.png","好人","prac_simultaneous",""
"","","","","","html-keyboard-response","142","220529","0.0-11.0-0.0-1.16","null","<span style='color:GreenYellow; font-size: 70px;'>正确! </span>","null","","","","","","","","","","","","","","","","","","","","","","","feedback_test"
"","","","","","psychophysics","143","222182","0.0-11.0-0.0-0.17","651","","f","","","","","","","","","","","","","key","f","16.51647959183664","768","428","f","true","img/C_ambi40.png","好人","prac_simultaneous",""
"","","","","","html-keyboard-response","144","222502","0.0-11.0-0.0-1.17","null","<span style='color:GreenYellow; font-size: 70px;'>正确! </span>","null","","","","","","","","","","","","","","","","","","","","","","","feedback_test"
"","","","","","psychophysics","145","224421","0.0-11.0-0.0-0.18","915","","j","","","","","","","","","","","","","key","j","16.664026315789414","768","428","j","true","img/S_ambi40.png","坏人","prac_simultaneous",""
"","","","","","html-keyboard-response","146","224733","0.0-11.0-0.0-1.18","null","<span style='color:GreenYellow; font-size: 70px;'>正确! </span>","null","","","","","","","","","","","","","","","","","","","","","","","feedback_test"
"","","","","","psychophysics","147","226697","0.0-11.0-0.0-0.19","959","","j","","","","","","","","","","","","","key","j","16.664094017094207","768","428","j","true","img/T_ambi40.png","常人","prac_simultaneous",""
"","","","","","html-keyboard-response","148","227013","0.0-11.0-0.0-1.19","null","<span style='color:GreenYellow; font-size: 70px;'>正确! </span>","null","","","","","","","","","","","","","","","","","","","","","","","feedback_test"
"","","","","","psychophysics","149","228836","0.0-11.0-0.0-0.20","818","","j","","","","","","","","","","","","","key","j","16.663268518518535","768","428","j","true","img/C_ambi40.png","坏人","prac_simultaneous",""
"","","","","","html-keyboard-response","150","229150","0.0-11.0-0.0-1.20","null","<span style='color:GreenYellow; font-size: 70px;'>正确! </span>","null","","","","","","","","","","","","","","","","","","","","","","","feedback_test"
"","","","","","psychophysics","151","230754","0.0-11.0-0.0-0.21","600","","f","","","","","","","","","","","","","key","f","16.66386315789484","768","428","f","true","img/C_ambi40.png","好人","prac_simultaneous",""
"","","","","","html-keyboard-response","152","231058","0.0-11.0-0.0-1.21","null","<span style='color:GreenYellow; font-size: 70px;'>正确! </span>","null","","","","","","","","","","","","","","","","","","","","","","","feedback_test"
"","","","","","psychophysics","153","232849","0.0-11.0-0.0-0.22","787","","f","","","","","","","","","","","","","key","f","16.66766355140189","768","428","f","true","img/S_ambi40.png","常人","prac_simultaneous",""
"","","","","","html-keyboard-response","154","233158","0.0-11.0-0.0-1.22","null","<span style='color:GreenYellow; font-size: 70px;'>正确! </span>","null","","","","","","","","","","","","","","","","","","","","","","","feedback_test"
"","","","","","psychophysics","155","234894","0.0-11.0-0.0-0.23","732","","f","","","","","","","","","","","","","key","f","16.663834951456312","768","428","f","true","img/T_ambi40.png","坏人","prac_simultaneous",""
"","","","","","html-keyboard-response","156","235207","0.0-11.0-0.0-1.23","null","<span style='color:GreenYellow; font-size: 70px;'>正确! </span>","null","","","","","","","","","","","","","","","","","","","","","","","feedback_test"
"","","","","","html-keyboard-response","157","237302","0.0-12.0","2092","<style>.context{color:white; font-size: 35px; line-height:40px}</style>                              <div><p class='context'>您正确回答了96% 的试次。</p><p class='context'>您的平均反应时为800毫秒。</p><p class='context'>恭喜您完成练习。按任意键进入正式实验。</p><p class='footer' style='font-size: 35px; line-height:40px;'>请在进入正式实验实验之前将您的<span style='color: lightgreen;'>食指</span>放在电脑键盘的相应键位上进行按键。</p>"," ","","","","","","","","","","","","","","","","","","","","","","",""
"","","","","","html-keyboard-response","158","237976","0.0-13.0-0.0-0.0","669","
      <p>请您将手指放在按键上，准备进入呈现顺序为<span style='color: yellow;'>先图形后文字条件</span>的正式匹配任务</p>
      <p> <div style = ""color: green""><按任意键进入下一阶段的匹配任务></div></p>
      "," ","","","","","","","","","","","","","","","","","","","","","","",""
"","","","","","psychophysics","159","240017","0.0-13.0-0.0-1.0-0.0-0.0","879","","j","","","","","","","","","","","","","key","j","16.65504958677709","768","428","j","true","img/T_ambi40.png","常人","image_first",""
"","","","","","html-keyboard-response","160","240324","0.0-13.0-0.0-1.0-0.0-1.0","null","<span style='color:GreenYellow; font-size: 70px;'>正确! </span>","null","","","","","","","","","","","","","","","","","","","","","","","feedback_test"
"","","","","","psychophysics","161","242226","0.0-13.0-0.0-1.0-0.0-0.1","748","","f","","","","","","","","","","","","","key","f","16.66334513274348","768","428","f","true","img/T_ambi40.png","坏人","image_first",""
"","","","","","html-keyboard-response","162","242544","0.0-13.0-0.0-1.0-0.0-1.1","null","<span style='color:GreenYellow; font-size: 70px;'>正确! </span>","null","","","","","","","","","","","","","","","","","","","","","","","feedback_test"
"","","","","","psychophysics","163","244606","0.0-13.0-0.0-1.0-0.0-0.2","911","","j","","","","","","","","","","","","","key","j","16.663926229508284","768","428","j","true","img/S_ambi40.png","好人","image_first",""
"","","","","","html-keyboard-response","164","244920","0.0-13.0-0.0-1.0-0.0-1.2","null","<span style='color:GreenYellow; font-size: 70px;'>正确! </span>","null","","","","","","","","","","","","","","","","","","","","","","","feedback_test"
"","","","","","psychophysics","165","246636","0.0-13.0-0.0-1.0-0.0-0.3","562","","j","","","","","","","","","","","","","key","j","16.66244117647076","768","428","j","true","img/C_ambi40.png","坏人","image_first",""
"","","","","","html-keyboard-response","166","246938","0.0-13.0-0.0-1.0-0.0-1.3","null","<span style='color:GreenYellow; font-size: 70px;'>正确! </span>","null","","","","","","","","","","","","","","","","","","","","","","","feedback_test"
"","","","","","psychophysics","167","248857","0.0-13.0-0.0-1.0-0.0-0.4","767","","f","","","","","","","","","","","","","key","f","16.6633070175441","768","428","f","true","img/C_ambi40.png","好人","image_first",""
"","","","","","html-keyboard-response","168","249166","0.0-13.0-0.0-1.0-0.0-1.4","null","<span style='color:GreenYellow; font-size: 70px;'>正确! </span>","null","","","","","","","","","","","","","","","","","","","","","","","feedback_test"
"","","","","","psychophysics","169","250857","0.0-13.0-0.0-1.0-0.0-0.5","534","","j","","","","","","","","","","","","","key","j","16.66342000000004","768","428","j","true","img/C_ambi40.png","常人","image_first",""
"","","","","","html-keyboard-response","170","251169","0.0-13.0-0.0-1.0-0.0-1.5","null","<span style='color:GreenYellow; font-size: 70px;'>正确! </span>","null","","","","","","","","","","","","","","","","","","","","","","","feedback_test"
"","","","","","psychophysics","171","252865","0.0-13.0-0.0-1.0-0.0-0.6","542","","j","","","","","","","","","","","","","key","j","16.662514851485334","768","428","j","true","img/T_ambi40.png","好人","image_first",""
"","","","","","html-keyboard-response","172","253183","0.0-13.0-0.0-1.0-0.0-1.6","null","<span style='color:GreenYellow; font-size: 70px;'>正确! </span>","null","","","","","","","","","","","","","","","","","","","","","","","feedback_test"
"","","","","","psychophysics","173","255301","0.0-13.0-0.0-1.0-0.0-0.7","961","","f","","","","","","","","","","","","","key","f","16.664444444444452","768","428","f","true","img/T_ambi40.png","坏人","image_first",""
"","","","","","html-keyboard-response","174","255619","0.0-13.0-0.0-1.0-0.0-1.7","null","<span style='color:GreenYellow; font-size: 70px;'>正确! </span>","null","","","","","","","","","","","","","","","","","","","","","","","feedback_test"
"","","","","","psychophysics","175","257655","0.0-13.0-0.0-1.0-0.0-0.8","880","","j","","","","","","","","","","","","","key","j","16.66285950413228","768","428","j","true","img/S_ambi40.png","坏人","image_first",""
"","","","","","html-keyboard-response","176","257975","0.0-13.0-0.0-1.0-0.0-1.8","null","<span style='color:GreenYellow; font-size: 70px;'>正确! </span>","null","","","","","","","","","","","","","","","","","","","","","","","feedback_test"
"","","","","","psychophysics","177","259560","0.0-13.0-0.0-1.0-0.0-0.9","433","","f","","","","","","","","","","","","","key","f","16.662648936170413","768","428","f","true","img/C_ambi40.png","好人","image_first",""
"","","","","","html-keyboard-response","178","259878","0.0-13.0-0.0-1.0-0.0-1.9","null","<span style='color:GreenYellow; font-size: 70px;'>正确! </span>","null","","","","","","","","","","","","","","","","","","","","","","","feedback_test"
"","","","","","psychophysics","179","261560","0.0-13.0-0.0-1.0-0.0-0.10","525","","f","","","","","","","","","","","","","key","f","16.66386999999988","768","428","f","true","img/S_ambi40.png","常人","image_first",""
"","","","","","html-keyboard-response","180","261876","0.0-13.0-0.0-1.0-0.0-1.10","null","<span style='color:GreenYellow; font-size: 70px;'>正确! </span>","null","","","","","","","","","","","","","","","","","","","","","","","feedback_test"
"","","","","","psychophysics","181","263855","0.0-13.0-0.0-1.0-0.0-0.11","820","","f","","","","","","","","","","","","","key","f","16.663803418803738","768","428","f","true","img/S_ambi40.png","常人","image_first",""
"","","","","","html-keyboard-response","182","264167","0.0-13.0-0.0-1.0-0.0-1.11","null","<span style='color:GreenYellow; font-size: 70px;'>正确! </span>","null","","","","","","","","","","","","","","","","","","","","","","","feedback_test"
"","","","","","psychophysics","183","265933","0.0-13.0-0.0-1.0-0.0-0.12","610","","j","","","","","","","","","","","","","key","j","16.66350476190481","768","428","j","true","img/C_ambi40.png","常人","image_first",""
"","","","","","html-keyboard-response","184","266249","0.0-13.0-0.0-1.0-0.0-1.12","null","<span style='color:GreenYellow; font-size: 70px;'>正确! </span>","null","","","","","","","","","","","","","","","","","","","","","","","feedback_test"
"","","","","","psychophysics","185","268600","0.0-13.0-0.0-1.0-0.0-0.13","1198","","f","","","","","","","","","","","","","key","f","16.663714285714168","768","428","f","true","img/S_ambi40.png","常人","image_first",""
"","","","","","html-keyboard-response","186","268918","0.0-13.0-0.0-1.0-0.0-1.13","null","<span style='color:GreenYellow; font-size: 70px;'>正确! </span>","null","","","","","","","","","","","","","","","","","","","","","","","feedback_test"
"","","","","","psychophysics","187","270623","0.0-13.0-0.0-1.0-0.0-0.14","551","","j","","","","","","","","","","","","","key","j","16.664352941176713","768","428","j","true","img/S_ambi40.png","坏人","image_first",""
"","","","","","html-keyboard-response","188","270942","0.0-13.0-0.0-1.0-0.0-1.14","null","<span style='color:GreenYellow; font-size: 70px;'>正确! </span>","null","","","","","","","","","","","","","","","","","","","","","","","feedback_test"
"","","","","","psychophysics","189","272876","0.0-13.0-0.0-1.0-0.0-0.15","777","","f","","","","","","","","","","","","","key","f","16.664095652174286","768","428","f","true","img/T_ambi40.png","坏人","image_first",""
"","","","","","html-keyboard-response","190","273189","0.0-13.0-0.0-1.0-0.0-1.15","null","<span style='color:GreenYellow; font-size: 70px;'>正确! </span>","null","","","","","","","","","","","","","","","","","","","","","","","feedback_test"
"","","","","","psychophysics","191","275068","0.0-13.0-0.0-1.0-0.0-0.16","722","","j","","","","","","","","","","","","","key","j","16.663441441441375","768","428","j","true","img/T_ambi40.png","好人","image_first",""
"","","","","","html-keyboard-response","192","275373","0.0-13.0-0.0-1.0-0.0-1.16","null","<span style='color:GreenYellow; font-size: 70px;'>正确! </span>","null","","","","","","","","","","","","","","","","","","","","","","","feedback_test"
"","","","","","psychophysics","193","277165","0.0-13.0-0.0-1.0-0.0-0.17","635","","f","","","","","","","","","","","","","key","f","16.66403773584884","768","428","f","true","img/T_ambi40.png","坏人","image_first",""
"","","","","","html-keyboard-response","194","277486","0.0-13.0-0.0-1.0-0.0-1.17","null","<span style='color:GreenYellow; font-size: 70px;'>正确! </span>","null","","","","","","","","","","","","","","","","","","","","","","","feedback_test"
"","","","","","psychophysics","195","279443","0.0-13.0-0.0-1.0-0.0-0.18","805","","f","","","","","","","","","","","","","key","f","16.66388793103447","768","428","f","true","img/C_ambi40.png","好人","image_first",""
"","","","","","html-keyboard-response","196","279756","0.0-13.0-0.0-1.0-0.0-1.18","null","<span style='color:GreenYellow; font-size: 70px;'>正确! </span>","null","","","","","","","","","","","","","","","","","","","","","","","feedback_test"
"","","","","","psychophysics","197","281593","0.0-13.0-0.0-1.0-0.0-0.19","679","","f","","","","","","","","","","","","","key","f","16.66328440366928","768","428","f","true","img/C_ambi40.png","好人","image_first",""
"","","","","","html-keyboard-response","198","281907","0.0-13.0-0.0-1.0-0.0-1.19","null","<span style='color:GreenYellow; font-size: 70px;'>正确! </span>","null","","","","","","","","","","","","","","","","","","","","","","","feedback_test"
"","","","","","psychophysics","199","283879","0.0-13.0-0.0-1.0-0.0-0.20","821","","j","","","","","","","","","","","","","key","j","16.66400854700866","768","428","j","true","img/C_ambi40.png","坏人","image_first",""
"","","","","","html-keyboard-response","200","284186","0.0-13.0-0.0-1.0-0.0-1.20","null","<span style='color:GreenYellow; font-size: 70px;'>正确! </span>","null","","","","","","","","","","","","","","","","","","","","","","","feedback_test"
"","","","","","psychophysics","201","286366","0.0-13.0-0.0-1.0-0.0-0.21","1028","","j","","","","","","","","","","","","","key","j","16.663744186046227","768","428","j","true","img/S_ambi40.png","好人","image_first",""
"","","","","","html-keyboard-response","202","286684","0.0-13.0-0.0-1.0-0.0-1.21","null","<span style='color:GreenYellow; font-size: 70px;'>正确! </span>","null","","","","","","","","","","","","","","","","","","","","","","","feedback_test"
"","","","","","psychophysics","203","288625","0.0-13.0-0.0-1.0-0.0-0.22","789","","f","","","","","","","","","","","","","key","f","16.66396521739105","768","428","f","true","img/S_ambi40.png","常人","image_first",""
"","","","","","html-keyboard-response","204","288931","0.0-13.0-0.0-1.0-0.0-1.22","null","<span style='color:GreenYellow; font-size: 70px;'>正确! </span>","null","","","","","","","","","","","","","","","","","","","","","","","feedback_test"
"","","","","","psychophysics","205","290798","0.0-13.0-0.0-1.0-0.0-0.23","715","","j","","","","","","","","","","","","","key","j","16.663792792793156","768","428","j","true","img/T_ambi40.png","常人","image_first",""
"","","","","","html-keyboard-response","206","291120","0.0-13.0-0.0-1.0-0.0-1.23","null","<span style='color:GreenYellow; font-size: 70px;'>正确! </span>","null","","","","","","","","","","","","","","","","","","","","","","","feedback_test"
"","","","","","psychophysics","207","292929","0.0-13.0-0.0-1.0-0.0-0.24","654","","f","","","","","","","","","","","","","key","f","16.663476635514275","768","428","f","true","img/S_ambi40.png","常人","image_first",""
"","","","","","html-keyboard-response","208","293244","0.0-13.0-0.0-1.0-0.0-1.24","null","<span style='color:GreenYellow; font-size: 70px;'>正确! </span>","null","","","","","","","","","","","","","","","","","","","","","","","feedback_test"
"","","","","","psychophysics","209","295364","0.0-13.0-0.0-1.0-0.0-0.25","964","","j","","","","","","","","","","","","","key","j","16.663404761904587","768","428","j","true","img/S_ambi40.png","坏人","image_first",""
"","","","","","html-keyboard-response","210","295670","0.0-13.0-0.0-1.0-0.0-1.25","null","<span style='color:GreenYellow; font-size: 70px;'>正确! </span>","null","","","","","","","","","","","","","","","","","","","","","","","feedback_test"
"","","","","","psychophysics","211","297586","0.0-13.0-0.0-1.0-0.0-0.26","759","","f","","","","","","","","","","","","","key","f","16.66388596491245","768","428","f","true","img/S_ambi40.png","常人","image_first",""
"","","","","","html-keyboard-response","212","297897","0.0-13.0-0.0-1.0-0.0-1.26","null","<span style='color:GreenYellow; font-size: 70px;'>正确! </span>","null","","","","","","","","","","","","","","","","","","","","","","","feedback_test"
"","","","","","psychophysics","213","299713","0.0-13.0-0.0-1.0-0.0-0.27","664","","f","","","","","","","","","","","","","key","f","16.663814814815176","768","428","f","true","img/T_ambi40.png","坏人","image_first",""
"","","","","","html-keyboard-response","214","300029","0.0-13.0-0.0-1.0-0.0-1.27","null","<span style='color:GreenYellow; font-size: 70px;'>正确! </span>","null","","","","","","","","","","","","","","","","","","","","","","","feedback_test"
"","","","","","psychophysics","215","301928","0.0-13.0-0.0-1.0-0.0-0.28","746","","j","","","","","","","","","","","","","key","j","16.66322123893821","768","428","j","true","img/T_ambi40.png","常人","image_first",""
"","","","","","html-keyboard-response","216","302236","0.0-13.0-0.0-1.0-0.0-1.28","null","<span style='color:GreenYellow; font-size: 70px;'>正确! </span>","null","","","","","","","","","","","","","","","","","","","","","","","feedback_test"
"","","","","","psychophysics","217","303960","0.0-13.0-0.0-1.0-0.0-0.29","565","","j","","","","","","","","","","","","","key","j","16.66369607843123","768","428","j","true","img/C_ambi40.png","常人","image_first",""
"","","","","","html-keyboard-response","218","304279","0.0-13.0-0.0-1.0-0.0-1.29","null","<span style='color:GreenYellow; font-size: 70px;'>正确! </span>","null","","","","","","","","","","","","","","","","","","","","","","","feedback_test"
"","","","","","psychophysics","219","305997","0.0-13.0-0.0-1.0-0.0-0.30","566","","f","","","","","","","","","","","","","key","f","16.663813725489934","768","428","f","true","img/C_ambi40.png","好人","image_first",""
"","","","","","html-keyboard-response","220","306311","0.0-13.0-0.0-1.0-0.0-1.30","null","<span style='color:GreenYellow; font-size: 70px;'>正确! </span>","null","","","","","","","","","","","","","","","","","","","","","","","feedback_test"
"","","","","","psychophysics","221","308108","0.0-13.0-0.0-1.0-0.0-0.31","642","","j","","","","","","","","","","","","","key","j","16.663448598130856","768","428","j","true","img/T_ambi40.png","好人","image_first",""
"","","","","","html-keyboard-response","222","308423","0.0-13.0-0.0-1.0-0.0-1.31","null","<span style='color:GreenYellow; font-size: 70px;'>正确! </span>","null","","","","","","","","","","","","","","","","","","","","","","","feedback_test"
"","","","","","psychophysics","223","310420","0.0-13.0-0.0-1.0-0.0-0.32","841","","j","","","","","","","","","","","","","key","j","16.664000000000026","768","428","j","true","img/S_ambi40.png","好人","image_first",""
"","","","","","html-keyboard-response","224","310722","0.0-13.0-0.0-1.0-0.0-1.32","null","<span style='color:GreenYellow; font-size: 70px;'>正确! </span>","null","","","","","","","","","","","","","","","","","","","","","","","feedback_test"
"","","","","","psychophysics","225","312545","0.0-13.0-0.0-1.0-0.0-0.33","671","","f","","","","","","","","","","","","","key","f","16.664231481481153","768","428","f","true","img/T_ambi40.png","坏人","image_first",""
"","","","","","html-keyboard-response","226","312855","0.0-13.0-0.0-1.0-0.0-1.33","null","<span style='color:GreenYellow; font-size: 70px;'>正确! </span>","null","","","","","","","","","","","","","","","","","","","","","","","feedback_test"
"","","","","","psychophysics","227","314550","0.0-13.0-0.0-1.0-0.0-0.34","540","","j","","","","","","","","","","","","","key","j","16.663801980197963","768","428","j","true","img/C_ambi40.png","坏人","image_first",""
"","","","","","html-keyboard-response","228","314866","0.0-13.0-0.0-1.0-0.0-1.34","null","<span style='color:GreenYellow; font-size: 70px;'>正确! </span>","null","","","","","","","","","","","","","","","","","","","","","","","feedback_test"
"","","","","","psychophysics","229","316654","0.0-13.0-0.0-1.0-0.0-0.35","635","","f","","","","","","","","","","","","","key","f","16.66381132075473","768","428","f","true","img/C_ambi40.png","好人","image_first",""
"","","","","","html-keyboard-response","230","316963","0.0-13.0-0.0-1.0-0.0-1.35","null","<span style='color:GreenYellow; font-size: 70px;'>正确! </span>","null","","","","","","","","","","","","","","","","","","","","","","","feedback_test"
"","","","","","psychophysics","231","318643","0.0-13.0-0.0-1.0-0.0-0.36","528","","f","","","","","","","","","","","","","key","f","16.664646464646346","768","428","f","true","img/S_ambi40.png","常人","image_first",""
"","","","","","html-keyboard-response","232","318953","0.0-13.0-0.0-1.0-0.0-1.36","null","<span style='color:GreenYellow; font-size: 70px;'>正确! </span>","null","","","","","","","","","","","","","","","","","","","","","","","feedback_test"
"","","","","","psychophysics","233","320626","0.0-13.0-0.0-1.0-0.0-0.37","520","","j","","","","","","","","","","","","","key","j","16.663696969697025","768","428","j","true","img/C_ambi40.png","坏人","image_first",""
"","","","","","html-keyboard-response","234","320937","0.0-13.0-0.0-1.0-0.0-1.37","null","<span style='color:GreenYellow; font-size: 70px;'>正确! </span>","null","","","","","","","","","","","","","","","","","","","","","","","feedback_test"
"","","","","","psychophysics","235","322672","0.0-13.0-0.0-1.0-0.0-0.38","582","","f","","","","","","","","","","","","","key","f","16.66447572815526","768","428","f","true","img/S_ambi40.png","常人","image_first",""
"","","","","","html-keyboard-response","236","322982","0.0-13.0-0.0-1.0-0.0-1.38","null","<span style='color:GreenYellow; font-size: 70px;'>正确! </span>","null","","","","","","","","","","","","","","","","","","","","","","","feedback_test"
"","","","","","psychophysics","237","324696","0.0-13.0-0.0-1.0-0.0-0.39","557","","f","","","","","","","","","","","","","key","f","16.664245098039473","768","428","j","false","img/T_ambi40.png","好人","image_first",""
"","","","","","html-keyboard-response","238","325003","0.0-13.0-0.0-1.0-0.0-1.39","null","<span style='color:red; font-size: 70px;'>错误! </span>","null","","","","","","","","","","","","","","","","","","","","","","","feedback_test"
"","","","","","psychophysics","239","326916","0.0-13.0-0.0-1.0-0.0-0.40","755","","j","","","","","","","","","","","","","key","j","16.663807017543853","768","428","j","true","img/S_ambi40.png","好人","image_first",""
"","","","","","html-keyboard-response","240","327230","0.0-13.0-0.0-1.0-0.0-1.40","null","<span style='color:GreenYellow; font-size: 70px;'>正确! </span>","null","","","","","","","","","","","","","","","","","","","","","","","feedback_test"
"","","","","","psychophysics","241","328966","0.0-13.0-0.0-1.0-0.0-0.41","578","","f","","","","","","","","","","","","","key","f","16.664262135922275","768","428","f","true","img/C_ambi40.png","好人","image_first",""
"","","","","","html-keyboard-response","242","329278","0.0-13.0-0.0-1.0-0.0-1.41","null","<span style='color:GreenYellow; font-size: 70px;'>正确! </span>","null","","","","","","","","","","","","","","","","","","","","","","","feedback_test"
"","","","","","psychophysics","243","330987","0.0-13.0-0.0-1.0-0.0-0.42","553","","f","","","","","","","","","","","","","key","f","16.664108910891205","768","428","f","true","img/C_ambi40.png","好人","image_first",""
"","","","","","html-keyboard-response","244","331294","0.0-13.0-0.0-1.0-0.0-1.42","null","<span style='color:GreenYellow; font-size: 70px;'>正确! </span>","null","","","","","","","","","","","","","","","","","","","","","","","feedback_test"
"","","","","","psychophysics","245","333174","0.0-13.0-0.0-1.0-0.0-0.43","730","","f","","","","","","","","","","","","","key","f","16.66355855855881","768","428","f","true","img/T_ambi40.png","坏人","image_first",""
"","","","","","html-keyboard-response","246","333493","0.0-13.0-0.0-1.0-0.0-1.43","null","<span style='color:GreenYellow; font-size: 70px;'>正确! </span>","null","","","","","","","","","","","","","","","","","","","","","","","feedback_test"
"","","","","","psychophysics","247","335207","0.0-13.0-0.0-1.0-0.0-0.44","563","","j","","","","","","","","","","","","","key","j","16.663821782178527","768","428","j","true","img/C_ambi40.png","常人","image_first",""
"","","","","","html-keyboard-response","248","335511","0.0-13.0-0.0-1.0-0.0-1.44","null","<span style='color:GreenYellow; font-size: 70px;'>正确! </span>","null","","","","","","","","","","","","","","","","","","","","","","","feedback_test"
"","","","","","psychophysics","249","337398","0.0-13.0-0.0-1.0-0.0-0.45","732","","j","","","","","","","","","","","","","key","j","16.66341964285727","768","428","j","true","img/S_ambi40.png","坏人","image_first",""
"","","","","","html-keyboard-response","250","337719","0.0-13.0-0.0-1.0-0.0-1.45","null","<span style='color:GreenYellow; font-size: 70px;'>正确! </span>","null","","","","","","","","","","","","","","","","","","","","","","","feedback_test"
"","","","","","psychophysics","251","339487","0.0-13.0-0.0-1.0-0.0-0.46","613","","f","","","","","","","","","","","","","key","f","16.663447619047727","768","428","f","true","img/T_ambi40.png","坏人","image_first",""
"","","","","","html-keyboard-response","252","339809","0.0-13.0-0.0-1.0-0.0-1.46","null","<span style='color:GreenYellow; font-size: 70px;'>正确! </span>","null","","","","","","","","","","","","","","","","","","","","","","","feedback_test"
"","","","","","psychophysics","253","341608","0.0-13.0-0.0-1.0-0.0-0.47","646","","j","","","","","","","","","","","","","key","j","16.663905660376912","768","428","j","true","img/T_ambi40.png","常人","image_first",""
"","","","","","html-keyboard-response","254","341915","0.0-13.0-0.0-1.0-0.0-1.47","null","<span style='color:GreenYellow; font-size: 70px;'>正确! </span>","null","","","","","","","","","","","","","","","","","","","","","","","feedback_test"
"","","","","","psychophysics","255","343507","0.0-13.0-0.0-1.0-0.0-0.48","433","","f","","","","","","","","","","","","","key","f","16.663308510638554","768","428","f","true","img/C_ambi40.png","好人","image_first",""
"","","","","","html-keyboard-response","256","343825","0.0-13.0-0.0-1.0-0.0-1.48","null","<span style='color:GreenYellow; font-size: 70px;'>正确! </span>","null","","","","","","","","","","","","","","","","","","","","","","","feedback_test"
"","","","","","psychophysics","257","345434","0.0-13.0-0.0-1.0-0.0-0.49","455","","f","","","","","","","","","","","","","key","f","16.664252631578865","768","428","f","true","img/C_ambi40.png","好人","image_first",""
"","","","","","html-keyboard-response","258","345745","0.0-13.0-0.0-1.0-0.0-1.49","null","<span style='color:GreenYellow; font-size: 70px;'>正确! </span>","null","","","","","","","","","","","","","","","","","","","","","","","feedback_test"
"","","","","","psychophysics","259","347531","0.0-13.0-0.0-1.0-0.0-0.50","633","","j","","","","","","","","","","","","","key","j","16.66343396226436","768","428","j","true","img/C_ambi40.png","常人","image_first",""
"","","","","","html-keyboard-response","260","347846","0.0-13.0-0.0-1.0-0.0-1.50","null","<span style='color:GreenYellow; font-size: 70px;'>正确! </span>","null","","","","","","","","","","","","","","","","","","","","","","","feedback_test"
"","","","","","psychophysics","261","349463","0.0-13.0-0.0-1.0-0.0-0.51","460","","f","","","","","","","","","","","","","key","f","16.66385416666647","768","428","f","true","img/S_ambi40.png","常人","image_first",""
"","","","","","html-keyboard-response","262","349776","0.0-13.0-0.0-1.0-0.0-1.51","null","<span style='color:GreenYellow; font-size: 70px;'>正确! </span>","null","","","","","","","","","","","","","","","","","","","","","","","feedback_test"
"","","","","","psychophysics","263","351481","0.0-13.0-0.0-1.0-0.0-0.52","550","","j","","","","","","","","","","","","","key","j","16.663792079207393","768","428","j","true","img/T_ambi40.png","好人","image_first",""
"","","","","","html-keyboard-response","264","351792","0.0-13.0-0.0-1.0-0.0-1.52","null","<span style='color:GreenYellow; font-size: 70px;'>正确! </span>","null","","","","","","","","","","","","","","","","","","","","","","","feedback_test"
"","","","","","psychophysics","265","353452","0.0-13.0-0.0-1.0-0.0-0.53","506","","f","","","","","","","","","","","","","key","f","16.664928571428575","768","428","f","true","img/T_ambi40.png","坏人","image_first",""
"","","","","","html-keyboard-response","266","353760","0.0-13.0-0.0-1.0-0.0-1.53","null","<span style='color:GreenYellow; font-size: 70px;'>正确! </span>","null","","","","","","","","","","","","","","","","","","","","","","","feedback_test"
"","","","","","psychophysics","267","355494","0.0-13.0-0.0-1.0-0.0-0.54","579","","j","","","","","","","","","","","","","key","j","16.663728155339818","768","428","j","true","img/S_ambi40.png","好人","image_first",""
"","","","","","html-keyboard-response","268","355807","0.0-13.0-0.0-1.0-0.0-1.54","null","<span style='color:GreenYellow; font-size: 70px;'>正确! </span>","null","","","","","","","","","","","","","","","","","","","","","","","feedback_test"
"","","","","","psychophysics","269","357659","0.0-13.0-0.0-1.0-0.0-0.55","696","","j","","","","","","","","","","","","","key","j","16.663363636363382","768","428","j","true","img/C_ambi40.png","坏人","image_first",""
"","","","","","html-keyboard-response","270","357968","0.0-13.0-0.0-1.0-0.0-1.55","null","<span style='color:GreenYellow; font-size: 70px;'>正确! </span>","null","","","","","","","","","","","","","","","","","","","","","","","feedback_test"
"","","","","","psychophysics","271","359661","0.0-13.0-0.0-1.0-0.0-0.56","541","","f","","","","","","","","","","","","","key","f","16.65997029702977","768","428","f","true","img/S_ambi40.png","常人","image_first",""
"","","","","","html-keyboard-response","272","359983","0.0-13.0-0.0-1.0-0.0-1.56","null","<span style='color:GreenYellow; font-size: 70px;'>正确! </span>","null","","","","","","","","","","","","","","","","","","","","","","","feedback_test"
"","","","","","psychophysics","273","361766","0.0-13.0-0.0-1.0-0.0-0.57","630","","j","","","","","","","","","","","","","key","j","16.664216981132135","768","428","j","true","img/T_ambi40.png","常人","image_first",""
"","","","","","html-keyboard-response","274","362086","0.0-13.0-0.0-1.0-0.0-1.57","null","<span style='color:GreenYellow; font-size: 70px;'>正确! </span>","null","","","","","","","","","","","","","","","","","","","","","","","feedback_test"
"","","","","","psychophysics","275","363924","0.0-13.0-0.0-1.0-0.0-0.58","687","","j","","","","","","","","","","","","","key","j","16.663605504587544","768","428","j","true","img/S_ambi40.png","坏人","image_first",""
"","","","","","html-keyboard-response","276","364246","0.0-13.0-0.0-1.0-0.0-1.58","null","<span style='color:GreenYellow; font-size: 70px;'>正确! </span>","null","","","","","","","","","","","","","","","","","","","","","","","feedback_test"
"","","","","","psychophysics","277","366126","0.0-13.0-0.0-1.0-0.0-0.59","712","","f","","","","","","","","","","","","","key","f","16.66364864864846","768","428","f","true","img/T_ambi40.png","坏人","image_first",""
"","","","","","html-keyboard-response","278","366441","0.0-13.0-0.0-1.0-0.0-1.59","null","<span style='color:GreenYellow; font-size: 70px;'>正确! </span>","null","","","","","","","","","","","","","","","","","","","","","","","feedback_test"
"","","","","","html-keyboard-response","279","367887","0.0-13.0-0.0-1.0-1.0","1444","<style>.context{color:white; font-size: 35px; line-height:40px}</style>                              <div><p class='context'>您正确回答了98% 的试次。</p><p class='context'>您的平均反应时为675毫秒。</p><p class='context'>请按任意键进入休息</p></div>"," ","","","","","","","","","","","","","","","","","","","","","","",""
"","","","","","html-button-response","280","430012","0.0-13.0-0.0-1.0-2.0","62121","
                      <p>您当前还剩余3组实验</p>
                      <p>现在是休息时间，当您结束休息后，您可以点击 结束休息 按钮 继续</p>
                      <p>建议休息时间还剩余<span id=""iii"">60</span>秒</p>","0","","","","","","","","","","","","","","","","","","","","","","",""
"","","","","","psychophysics","281","431719","0.0-13.0-0.0-1.0-0.1-0.60","549","","j","","","","","","","","","","","","","key","j","16.664148514851753","768","428","j","true","img/C_ambi40.png","坏人","image_first",""
"","","","","","html-keyboard-response","282","432032","0.0-13.0-0.0-1.0-0.1-1.60","null","<span style='color:GreenYellow; font-size: 70px;'>正确! </span>","null","","","","","","","","","","","","","","","","","","","","","","","feedback_test"
"","","","","","psychophysics","283","433651","0.0-13.0-0.0-1.0-0.1-0.61","464","","f","","","","","","","","","","","","","key","f","16.6642291666667","768","428","f","true","img/C_ambi40.png","好人","image_first",""
"","","","","","html-keyboard-response","284","433967","0.0-13.0-0.0-1.0-0.1-1.61","null","<span style='color:GreenYellow; font-size: 70px;'>正确! </span>","null","","","","","","","","","","","","","","","","","","","","","","","feedback_test"
"","","","","","psychophysics","285","435663","0.0-13.0-0.0-1.0-0.1-0.62","540","","j","","","","","","","","","","","","","key","j","16.66352475247528","768","428","j","true","img/T_ambi40.png","好人","image_first",""
"","","","","","html-keyboard-response","286","435985","0.0-13.0-0.0-1.0-0.1-1.62","null","<span style='color:GreenYellow; font-size: 70px;'>正确! </span>","null","","","","","","","","","","","","","","","","","","","","","","","feedback_test"
"","","","","","psychophysics","287","437601","0.0-13.0-0.0-1.0-0.1-0.63","464","","f","","","","","","","","","","","","","key","f","16.663541666666788","768","428","f","true","img/C_ambi40.png","好人","image_first",""
"","","","","","html-keyboard-response","288","437911","0.0-13.0-0.0-1.0-0.1-1.63","null","<span style='color:GreenYellow; font-size: 70px;'>正确! </span>","null","","","","","","","","","","","","","","","","","","","","","","","feedback_test"
"","","","","","psychophysics","289","439699","0.0-13.0-0.0-1.0-0.1-0.64","632","","f","","","","","","","","","","","","","key","f","16.66366037735847","768","428","f","true","img/T_ambi40.png","坏人","image_first",""
"","","","","","html-keyboard-response","290","440010","0.0-13.0-0.0-1.0-0.1-1.64","null","<span style='color:GreenYellow; font-size: 70px;'>正确! </span>","null","","","","","","","","","","","","","","","","","","","","","","","feedback_test"
"","","","","","psychophysics","291","441782","0.0-13.0-0.0-1.0-0.1-0.65","619","","f","","","","","","","","","","","","","key","f","16.663342857142975","768","428","f","true","img/T_ambi40.png","坏人","image_first",""
"","","","","","html-keyboard-response","292","442092","0.0-13.0-0.0-1.0-0.1-1.65","null","<span style='color:GreenYellow; font-size: 70px;'>正确! </span>","null","","","","","","","","","","","","","","","","","","","","","","","feedback_test"
"","","","","","psychophysics","293","443781","0.0-13.0-0.0-1.0-0.1-0.66","531","","f","","","","","","","","","","","","","key","f","16.66347000000009","768","428","f","true","img/S_ambi40.png","常人","image_first",""
"","","","","","html-keyboard-response","294","444092","0.0-13.0-0.0-1.0-0.1-1.66","null","<span style='color:GreenYellow; font-size: 70px;'>正确! </span>","null","","","","","","","","","","","","","","","","","","","","","","","feedback_test"
"","","","","","psychophysics","295","445688","0.0-13.0-0.0-1.0-0.1-0.67","439","","j","","","","","","","","","","","","","key","j","16.663600000000166","768","428","j","true","img/T_ambi40.png","常人","image_first",""
"","","","","","html-keyboard-response","296","446002","0.0-13.0-0.0-1.0-0.1-1.67","null","<span style='color:GreenYellow; font-size: 70px;'>正确! </span>","null","","","","","","","","","","","","","","","","","","","","","","","feedback_test"
"","","","","","psychophysics","297","447826","0.0-13.0-0.0-1.0-0.1-0.68","672","","f","","","","","","","","","","","","","key","f","16.663018518518786","768","428","f","true","img/S_ambi40.png","常人","image_first",""
"","","","","","html-keyboard-response","298","448142","0.0-13.0-0.0-1.0-0.1-1.68","null","<span style='color:GreenYellow; font-size: 70px;'>正确! </span>","null","","","","","","","","","","","","","","","","","","","","","","","feedback_test"
"","","","","","psychophysics","299","450020","0.0-13.0-0.0-1.0-0.1-0.69","722","","j","","","","","","","","","","","","","key","j","16.66347321428579","768","428","j","true","img/C_ambi40.png","常人","image_first",""
"","","","","","html-keyboard-response","300","450341","0.0-13.0-0.0-1.0-0.1-1.69","null","<span style='color:GreenYellow; font-size: 70px;'>正确! </span>","null","","","","","","","","","","","","","","","","","","","","","","","feedback_test"
"","","","","","psychophysics","301","452144","0.0-13.0-0.0-1.0-0.1-0.70","645","","j","","","","","","","","","","","","","key","j","16.663971962617214","768","428","j","true","img/S_ambi40.png","好人","image_first",""
"","","","","","html-keyboard-response","302","452460","0.0-13.0-0.0-1.0-0.1-1.70","null","<span style='color:GreenYellow; font-size: 70px;'>正确! </span>","null","","","","","","","","","","","","","","","","","","","","","","","feedback_test"
"","","","","","psychophysics","303","454512","0.0-13.0-0.0-1.0-0.1-0.71","893","","j","","","","","","","","","","","","","key","j","16.664065573770518","768","428","j","true","img/S_ambi40.png","坏人","image_first",""
"","","","","","html-keyboard-response","304","454825","0.0-13.0-0.0-1.0-0.1-1.71","null","<span style='color:GreenYellow; font-size: 70px;'>正确! </span>","null","","","","","","","","","","","","","","","","","","","","","","","feedback_test"
"","","","","","psychophysics","305","456610","0.0-13.0-0.0-1.0-0.1-0.72","632","","f","","","","","","","","","","","","","key","f","16.662518867924657","768","428","f","true","img/T_ambi40.png","坏人","image_first",""
"","","","","","html-keyboard-response","306","456918","0.0-13.0-0.0-1.0-0.1-1.72","null","<span style='color:GreenYellow; font-size: 70px;'>正确! </span>","null","","","","","","","","","","","","","","","","","","","","","","","feedback_test"
"","","","","","psychophysics","307","459243","0.0-13.0-0.0-1.0-0.1-0.73","1174","","j","","","","","","","","","","","","","key","j","16.66826811594217","768","428","j","true","img/S_ambi40.png","好人","image_first",""
"","","","","","html-keyboard-response","308","459558","0.0-13.0-0.0-1.0-0.1-1.73","null","<span style='color:GreenYellow; font-size: 70px;'>正确! </span>","null","","","","","","","","","","","","","","","","","","","","","","","feedback_test"
"","","","","","psychophysics","309","461314","0.0-13.0-0.0-1.0-0.1-0.74","600","","j","","","","","","","","","","","","","key","j","16.663894230769635","768","428","j","true","img/S_ambi40.png","坏人","image_first",""
"","","","","","html-keyboard-response","310","461633","0.0-13.0-0.0-1.0-0.1-1.74","null","<span style='color:GreenYellow; font-size: 70px;'>正确! </span>","null","","","","","","","","","","","","","","","","","","","","","","","feedback_test"
"","","","","","psychophysics","311","463364","0.0-13.0-0.0-1.0-0.1-0.75","580","","f","","","","","","","","","","","","","key","f","16.519500000000015","768","428","f","true","img/C_ambi40.png","好人","image_first",""
"","","","","","html-keyboard-response","312","463666","0.0-13.0-0.0-1.0-0.1-1.75","null","<span style='color:GreenYellow; font-size: 70px;'>正确! </span>","null","","","","","","","","","","","","","","","","","","","","","","","feedback_test"
"","","","","","psychophysics","313","465439","0.0-13.0-0.0-1.0-0.1-0.76","621","","f","","","","","","","","","","","","","key","f","16.66408571428564","768","428","f","true","img/S_ambi40.png","常人","image_first",""
"","","","","","html-keyboard-response","314","465754","0.0-13.0-0.0-1.0-0.1-1.76","null","<span style='color:GreenYellow; font-size: 70px;'>正确! </span>","null","","","","","","","","","","","","","","","","","","","","","","","feedback_test"
"","","","","","psychophysics","315","467575","0.0-13.0-0.0-1.0-0.1-0.77","669","","j","","","","","","","","","","","","","key","j","16.66462962962989","768","428","j","true","img/T_ambi40.png","好人","image_first",""
"","","","","","html-keyboard-response","316","467889","0.0-13.0-0.0-1.0-0.1-1.77","null","<span style='color:GreenYellow; font-size: 70px;'>正确! </span>","null","","","","","","","","","","","","","","","","","","","","","","","feedback_test"
"","","","","","psychophysics","317","469857","0.0-13.0-0.0-1.0-0.1-0.78","814","","j","","","","","","","","","","","","","key","j","16.66399145299175","768","428","j","true","img/C_ambi40.png","常人","image_first",""
"","","","","","html-keyboard-response","318","470175","0.0-13.0-0.0-1.0-0.1-1.78","null","<span style='color:GreenYellow; font-size: 70px;'>正确! </span>","null","","","","","","","","","","","","","","","","","","","","","","","feedback_test"
"","","","","","psychophysics","319","472130","0.0-13.0-0.0-1.0-0.1-0.79","799","","j","","","","","","","","","","","","","key","j","16.66323275862067","768","428","j","true","img/C_ambi40.png","坏人","image_first",""
"","","","","","html-keyboard-response","320","472436","0.0-13.0-0.0-1.0-0.1-1.79","null","<span style='color:GreenYellow; font-size: 70px;'>正确! </span>","null","","","","","","","","","","","","","","","","","","","","","","","feedback_test"
"","","","","","psychophysics","321","474040","0.0-13.0-0.0-1.0-0.1-0.80","445","","f","","","","","","","","","","","","","key","f","16.664021052631526","768","428","f","true","img/C_ambi40.png","好人","image_first",""
"","","","","","html-keyboard-response","322","474351","0.0-13.0-0.0-1.0-0.1-1.80","null","<span style='color:GreenYellow; font-size: 70px;'>正确! </span>","null","","","","","","","","","","","","","","","","","","","","","","","feedback_test"
"","","","","","psychophysics","323","476059","0.0-13.0-0.0-1.0-0.1-0.81","552","","j","","","","","","","","","","","","","key","j","16.663851485148506","768","428","j","true","img/T_ambi40.png","常人","image_first",""
"","","","","","html-keyboard-response","324","476362","0.0-13.0-0.0-1.0-0.1-1.81","null","<span style='color:GreenYellow; font-size: 70px;'>正确! </span>","null","","","","","","","","","","","","","","","","","","","","","","","feedback_test"
"","","","","","psychophysics","325","478512","0.0-13.0-0.0-1.0-0.1-0.82","997","","f","","","","","","","","","","","","","key","f","16.558771653543136","768","428","f","true","img/S_ambi40.png","常人","image_first",""
"","","","","","html-keyboard-response","326","478821","0.0-13.0-0.0-1.0-0.1-1.82","null","<span style='color:GreenYellow; font-size: 70px;'>正确! </span>","null","","","","","","","","","","","","","","","","","","","","","","","feedback_test"
"","","","","","psychophysics","327","480644","0.0-13.0-0.0-1.0-0.1-0.83","666","","f","","","","","","","","","","","","","key","f","16.663074074074284","768","428","f","true","img/T_ambi40.png","坏人","image_first",""
"","","","","","html-keyboard-response","328","480951","0.0-13.0-0.0-1.0-0.1-1.83","null","<span style='color:GreenYellow; font-size: 70px;'>正确! </span>","null","","","","","","","","","","","","","","","","","","","","","","","feedback_test"
"","","","","","psychophysics","329","482494","0.0-13.0-0.0-1.0-0.1-0.84","387","","f","","","","","","","","","","","","","key","f","16.664296703296714","768","428","f","true","img/C_ambi40.png","好人","image_first",""
"","","","","","html-keyboard-response","330","482811","0.0-13.0-0.0-1.0-0.1-1.84","null","<span style='color:GreenYellow; font-size: 70px;'>正确! </span>","null","","","","","","","","","","","","","","","","","","","","","","","feedback_test"
"","","","","","psychophysics","331","484402","0.0-13.0-0.0-1.0-0.1-0.85","437","","f","","","","","","","","","","","","","key","f","16.51120212765973","768","428","f","true","img/C_ambi40.png","好人","image_first",""
"","","","","","html-keyboard-response","332","484717","0.0-13.0-0.0-1.0-0.1-1.85","null","<span style='color:GreenYellow; font-size: 70px;'>正确! </span>","null","","","","","","","","","","","","","","","","","","","","","","","feedback_test"
"","","","","","psychophysics","333","486321","0.0-13.0-0.0-1.0-0.1-0.86","446","","j","","","","","","","","","","","","","key","j","16.662652631578844","768","428","j","true","img/C_ambi40.png","坏人","image_first",""
"","","","","","html-keyboard-response","334","486641","0.0-13.0-0.0-1.0-0.1-1.86","null","<span style='color:GreenYellow; font-size: 70px;'>正确! </span>","null","","","","","","","","","","","","","","","","","","","","","","","feedback_test"
"","","","","","psychophysics","335","488296","0.0-13.0-0.0-1.0-0.1-0.87","502","","j","","","","","","","","","","","","","key","j","16.66350505050481","768","428","j","true","img/C_ambi40.png","常人","image_first",""
"","","","","","html-keyboard-response","336","488608","0.0-13.0-0.0-1.0-0.1-1.87","null","<span style='color:GreenYellow; font-size: 70px;'>正确! </span>","null","","","","","","","","","","","","","","","","","","","","","","","feedback_test"
"","","","","","psychophysics","337","490386","0.0-13.0-0.0-1.0-0.1-0.88","623","","j","","","","","","","","","","","","","key","j","16.663566037735745","768","428","j","true","img/S_ambi40.png","好人","image_first",""
"","","","","","html-keyboard-response","338","490699","0.0-13.0-0.0-1.0-0.1-1.88","null","<span style='color:GreenYellow; font-size: 70px;'>正确! </span>","null","","","","","","","","","","","","","","","","","","","","","","","feedback_test"
"","","","","","psychophysics","339","492341","0.0-13.0-0.0-1.0-0.1-0.89","489","","j","","","","","","","","","","","","","key","j","16.663659793814432","768","428","j","true","img/T_ambi40.png","常人","image_first",""
"","","","","","html-keyboard-response","340","492649","0.0-13.0-0.0-1.0-0.1-1.89","null","<span style='color:GreenYellow; font-size: 70px;'>正确! </span>","null","","","","","","","","","","","","","","","","","","","","","","","feedback_test"
"","","","","","psychophysics","341","494630","0.0-13.0-0.0-1.0-0.1-0.90","828","","j","","","","","","","","","","","","","key","j","16.664008474576296","768","428","j","true","img/S_ambi40.png","坏人","image_first",""
"","","","","","html-keyboard-response","342","494948","0.0-13.0-0.0-1.0-0.1-1.90","null","<span style='color:GreenYellow; font-size: 70px;'>正确! </span>","null","","","","","","","","","","","","","","","","","","","","","","","feedback_test"
"","","","","","psychophysics","343","497120","0.0-13.0-0.0-1.0-0.1-0.91","1013","","f","","","","","","","","","","","","","key","f","16.664062015503795","768","428","f","true","img/S_ambi40.png","常人","image_first",""
"","","","","","html-keyboard-response","344","497441","0.0-13.0-0.0-1.0-0.1-1.91","null","<span style='color:GreenYellow; font-size: 70px;'>正确! </span>","null","","","","","","","","","","","","","","","","","","","","","","","feedback_test"
"","","","","","psychophysics","345","499352","0.0-13.0-0.0-1.0-0.1-0.92","759","","f","","","","","","","","","","","","","key","f","16.664298245614383","768","428","f","true","img/T_ambi40.png","坏人","image_first",""
"","","","","","html-keyboard-response","346","499672","0.0-13.0-0.0-1.0-0.1-1.92","null","<span style='color:GreenYellow; font-size: 70px;'>正确! </span>","null","","","","","","","","","","","","","","","","","","","","","","","feedback_test"
"","","","","","psychophysics","347","501502","0.0-13.0-0.0-1.0-0.1-0.93","676","","f","","","","","","","","","","","","","key","f","16.663174311926273","768","428","f","true","img/S_ambi40.png","常人","image_first",""
"","","","","","html-keyboard-response","348","501820","0.0-13.0-0.0-1.0-0.1-1.93","null","<span style='color:GreenYellow; font-size: 70px;'>正确! </span>","null","","","","","","","","","","","","","","","","","","","","","","","feedback_test"
"","","","","","psychophysics","349","503560","0.0-13.0-0.0-1.0-0.1-0.94","585","","f","","","","","","","","","","","","","key","f","16.66301923076949","768","428","f","true","img/T_ambi40.png","坏人","image_first",""
"","","","","","html-keyboard-response","350","503871","0.0-13.0-0.0-1.0-0.1-1.94","null","<span style='color:GreenYellow; font-size: 70px;'>正确! </span>","null","","","","","","","","","","","","","","","","","","","","","","","feedback_test"
"","","","","","psychophysics","351","505562","0.0-13.0-0.0-1.0-0.1-0.95","536","","j","","","","","","","","","","","","","key","j","16.664059405940662","768","428","j","true","img/T_ambi40.png","好人","image_first",""
"","","","","","html-keyboard-response","352","505870","0.0-13.0-0.0-1.0-0.1-1.95","null","<span style='color:GreenYellow; font-size: 70px;'>正确! </span>","null","","","","","","","","","","","","","","","","","","","","","","","feedback_test"
"","","","","","psychophysics","353","507672","0.0-13.0-0.0-1.0-0.1-0.96","648","","f","","","","","","","","","","","","","key","f","16.664457943925317","768","428","f","true","img/T_ambi40.png","坏人","image_first",""
"","","","","","html-keyboard-response","354","507986","0.0-13.0-0.0-1.0-0.1-1.96","null","<span style='color:GreenYellow; font-size: 70px;'>正确! </span>","null","","","","","","","","","","","","","","","","","","","","","","","feedback_test"
"","","","","","psychophysics","355","509710","0.0-13.0-0.0-1.0-0.1-0.97","569","","j","","","","","","","","","","","","","key","j","16.664116504854178","768","428","j","true","img/T_ambi40.png","常人","image_first",""
"","","","","","html-keyboard-response","356","510023","0.0-13.0-0.0-1.0-0.1-1.97","null","<span style='color:GreenYellow; font-size: 70px;'>正确! </span>","null","","","","","","","","","","","","","","","","","","","","","","","feedback_test"
"","","","","","psychophysics","357","511881","0.0-13.0-0.0-1.0-0.1-0.98","707","","f","","","","","","","","","","","","","key","f","16.54957272727254","768","428","f","true","img/T_ambi40.png","坏人","image_first",""
"","","","","","html-keyboard-response","358","512200","0.0-13.0-0.0-1.0-0.1-1.98","null","<span style='color:GreenYellow; font-size: 70px;'>正确! </span>","null","","","","","","","","","","","","","","","","","","","","","","","feedback_test"
"","","","","","psychophysics","359","513919","0.0-13.0-0.0-1.0-0.1-0.99","565","","f","","","","","","","","","","","","","key","f","16.66335294117658","768","428","f","true","img/S_ambi40.png","常人","image_first",""
"","","","","","html-keyboard-response","360","514231","0.0-13.0-0.0-1.0-0.1-1.99","null","<span style='color:GreenYellow; font-size: 70px;'>正确! </span>","null","","","","","","","","","","","","","","","","","","","","","","","feedback_test"
"","","","","","psychophysics","361","515988","0.0-13.0-0.0-1.0-0.1-0.100","601","","j","","","","","","","","","","","","","key","j","16.662403846153982","768","428","j","true","img/S_ambi40.png","坏人","image_first",""
"","","","","","html-keyboard-response","362","516294","0.0-13.0-0.0-1.0-0.1-1.100","null","<span style='color:GreenYellow; font-size: 70px;'>正确! </span>","null","","","","","","","","","","","","","","","","","","","","","","","feedback_test"
"","","","","","psychophysics","363","518115","0.0-13.0-0.0-1.0-0.1-0.101","665","","f","","","","","","","","","","","","","key","f","16.66390740740732","768","428","f","true","img/C_ambi40.png","好人","image_first",""
"","","","","","html-keyboard-response","364","518424","0.0-13.0-0.0-1.0-0.1-1.101","null","<span style='color:GreenYellow; font-size: 70px;'>正确! </span>","null","","","","","","","","","","","","","","","","","","","","","","","feedback_test"
"","","","","","psychophysics","365","520269","0.0-13.0-0.0-1.0-0.1-0.102","689","","f","","","","","","","","","","","","","key","f","16.663596330275183","768","428","f","true","img/S_ambi40.png","常人","image_first",""
"","","","","","html-keyboard-response","366","520580","0.0-13.0-0.0-1.0-0.1-1.102","null","<span style='color:GreenYellow; font-size: 70px;'>正确! </span>","null","","","","","","","","","","","","","","","","","","","","","","","feedback_test"
"","","","","","psychophysics","367","522641","0.0-13.0-0.0-1.0-0.1-0.103","902","","j","","","","","","","","","","","","","key","j","16.663495934959236","768","428","j","true","img/S_ambi40.png","好人","image_first",""
"","","","","","html-keyboard-response","368","522957","0.0-13.0-0.0-1.0-0.1-1.103","null","<span style='color:GreenYellow; font-size: 70px;'>正确! </span>","null","","","","","","","","","","","","","","","","","","","","","","","feedback_test"
"","","","","","psychophysics","369","524742","0.0-13.0-0.0-1.0-0.1-0.104","634","","j","","","","","","","","","","","","","key","j","16.664641509434418","768","428","j","true","img/C_ambi40.png","常人","image_first",""
"","","","","","html-keyboard-response","370","525061","0.0-13.0-0.0-1.0-0.1-1.104","null","<span style='color:GreenYellow; font-size: 70px;'>正确! </span>","null","","","","","","","","","","","","","","","","","","","","","","","feedback_test"
"","","","","","psychophysics","371","526772","0.0-13.0-0.0-1.0-0.1-0.105","553","","j","","","","","","","","","","","","","key","j","16.665069306929745","768","428","j","true","img/C_ambi40.png","坏人","image_first",""
"","","","","","html-keyboard-response","372","527079","0.0-13.0-0.0-1.0-0.1-1.105","null","<span style='color:GreenYellow; font-size: 70px;'>正确! </span>","null","","","","","","","","","","","","","","","","","","","","","","","feedback_test"
"","","","","","psychophysics","373","528845","0.0-13.0-0.0-1.0-0.1-0.106","610","","f","","","","","","","","","","","","","key","f","16.663400000000063","768","428","f","true","img/C_ambi40.png","好人","image_first",""
"","","","","","html-keyboard-response","374","529158","0.0-13.0-0.0-1.0-0.1-1.106","null","<span style='color:GreenYellow; font-size: 70px;'>正确! </span>","null","","","","","","","","","","","","","","","","","","","","","","","feedback_test"
"","","","","","psychophysics","375","530920","0.0-13.0-0.0-1.0-0.1-0.107","605","","j","","","","","","","","","","","","","key","j","16.663798076923392","768","428","j","true","img/T_ambi40.png","好人","image_first",""
"","","","","","html-keyboard-response","376","531237","0.0-13.0-0.0-1.0-0.1-1.107","null","<span style='color:GreenYellow; font-size: 70px;'>正确! </span>","null","","","","","","","","","","","","","","","","","","","","","","","feedback_test"
"","","","","","psychophysics","377","533047","0.0-13.0-0.0-1.0-0.1-0.108","652","","f","","","","","","","","","","","","","key","f","16.66450467289678","768","428","f","true","img/S_ambi40.png","常人","image_first",""
"","","","","","html-keyboard-response","378","533358","0.0-13.0-0.0-1.0-0.1-1.108","null","<span style='color:GreenYellow; font-size: 70px;'>正确! </span>","null","","","","","","","","","","","","","","","","","","","","","","","feedback_test"
"","","","","","psychophysics","379","535263","0.0-13.0-0.0-1.0-0.1-0.109","748","","f","","","","","","","","","","","","","key","f","16.664097345132273","768","428","f","true","img/S_ambi40.png","常人","image_first",""
"","","","","","html-keyboard-response","380","535573","0.0-13.0-0.0-1.0-0.1-1.109","null","<span style='color:GreenYellow; font-size: 70px;'>正确! </span>","null","","","","","","","","","","","","","","","","","","","","","","","feedback_test"
"","","","","","psychophysics","381","537258","0.0-13.0-0.0-1.0-0.1-0.110","527","","j","","","","","","","","","","","","","key","j","16.663830000000306","768","428","j","true","img/C_ambi40.png","常人","image_first",""
"","","","","","html-keyboard-response","382","537573","0.0-13.0-0.0-1.0-0.1-1.110","null","<span style='color:GreenYellow; font-size: 70px;'>正确! </span>","null","","","","","","","","","","","","","","","","","","","","","","","feedback_test"
"","","","","","psychophysics","383","539310","0.0-13.0-0.0-1.0-0.1-0.111","580","","j","","","","","","","","","","","","","key","j","16.663330097087133","768","428","j","true","img/T_ambi40.png","好人","image_first",""
"","","","","","html-keyboard-response","384","539629","0.0-13.0-0.0-1.0-0.1-1.111","null","<span style='color:GreenYellow; font-size: 70px;'>正确! </span>","null","","","","","","","","","","","","","","","","","","","","","","","feedback_test"
"","","","","","psychophysics","385","541602","0.0-13.0-0.0-1.0-0.1-0.112","817","","f","","","","","","","","","","","","","key","f","16.663948717948973","768","428","f","true","img/C_ambi40.png","好人","image_first",""
"","","","","","html-keyboard-response","386","541906","0.0-13.0-0.0-1.0-0.1-1.112","null","<span style='color:GreenYellow; font-size: 70px;'>正确! </span>","null","","","","","","","","","","","","","","","","","","","","","","","feedback_test"
"","","","","","psychophysics","387","543502","0.0-13.0-0.0-1.0-0.1-0.113","443","","j","","","","","","","","","","","","","key","j","16.663882978722462","768","428","j","true","img/S_ambi40.png","好人","image_first",""
"","","","","","html-keyboard-response","388","543825","0.0-13.0-0.0-1.0-0.1-1.113","null","<span style='color:GreenYellow; font-size: 70px;'>正确! </span>","null","","","","","","","","","","","","","","","","","","","","","","","feedback_test"
"","","","","","psychophysics","389","546012","0.0-13.0-0.0-1.0-0.1-0.114","1033","","j","","","","","","","","","","","","","key","j","16.663992307692443","768","428","j","true","img/C_ambi40.png","坏人","image_first",""
"","","","","","html-keyboard-response","390","546324","0.0-13.0-0.0-1.0-0.1-1.114","null","<span style='color:GreenYellow; font-size: 70px;'>正确! </span>","null","","","","","","","","","","","","","","","","","","","","","","","feedback_test"
"","","","","","psychophysics","391","548140","0.0-13.0-0.0-1.0-0.1-0.115","658","","f","","","","","","","","","","","","","key","f","16.663861111111515","768","428","f","true","img/T_ambi40.png","坏人","image_first",""
"","","","","","html-keyboard-response","392","548451","0.0-13.0-0.0-1.0-0.1-1.115","null","<span style='color:GreenYellow; font-size: 70px;'>正确! </span>","null","","","","","","","","","","","","","","","","","","","","","","","feedback_test"
"","","","","","psychophysics","393","550512","0.0-13.0-0.0-1.0-0.1-0.116","910","","j","","","","","","","","","","","","","key","j","16.663172131147594","768","428","j","true","img/S_ambi40.png","坏人","image_first",""
"","","","","","html-keyboard-response","394","550825","0.0-13.0-0.0-1.0-0.1-1.116","null","<span style='color:GreenYellow; font-size: 70px;'>正确! </span>","null","","","","","","","","","","","","","","","","","","","","","","","feedback_test"
"","","","","","psychophysics","395","552671","0.0-13.0-0.0-1.0-0.1-0.117","693","","f","","","","","","","","","","","","","key","f","16.663218181818426","768","428","f","true","img/T_ambi40.png","坏人","image_first",""
"","","","","","html-keyboard-response","396","552979","0.0-13.0-0.0-1.0-0.1-1.117","null","<span style='color:GreenYellow; font-size: 70px;'>正确! </span>","null","","","","","","","","","","","","","","","","","","","","","","","feedback_test"
"","","","","","psychophysics","397","554721","0.0-13.0-0.0-1.0-0.1-0.118","588","","j","","","","","","","","","","","","","key","j","16.66280769230798","768","428","j","true","img/T_ambi40.png","常人","image_first",""
"","","","","","html-keyboard-response","398","555029","0.0-13.0-0.0-1.0-0.1-1.118","null","<span style='color:GreenYellow; font-size: 70px;'>正确! </span>","null","","","","","","","","","","","","","","","","","","","","","","","feedback_test"
"","","","","","psychophysics","399","556684","0.0-13.0-0.0-1.0-0.1-0.119","502","","f","","","","","","","","","","","","","key","f","16.663747474747577","768","428","f","true","img/C_ambi40.png","好人","image_first",""
"","","","","","html-keyboard-response","400","556993","0.0-13.0-0.0-1.0-0.1-1.119","null","<span style='color:GreenYellow; font-size: 70px;'>正确! </span>","null","","","","","","","","","","","","","","","","","","","","","","","feedback_test"
"","","","","","html-keyboard-response","401","558232","0.0-13.0-0.0-1.0-1.1","1237","<style>.context{color:white; font-size: 35px; line-height:40px}</style>                              <div><p class='context'>您正确回答了100% 的试次。</p><p class='context'>您的平均反应时为648毫秒。</p><p class='context'>请按任意键进入休息</p></div>"," ","","","","","","","","","","","","","","","","","","","","","","",""
"","","","","","html-button-response","402","619572","0.0-13.0-0.0-1.0-2.1","61332","
                      <p>您当前还剩余2组实验</p>
                      <p>现在是休息时间，当您结束休息后，您可以点击 结束休息 按钮 继续</p>
                      <p>建议休息时间还剩余<span id=""iii"">60</span>秒</p>","0","","","","","","","","","","","","","","","","","","","","","","",""
"","","","","","psychophysics","403","621582","0.0-13.0-0.0-1.0-0.2-0.120","852","","j","","","","","","","","","","","","","key","j","16.663403361345086","768","428","j","true","img/C_ambi40.png","常人","image_first",""
"","","","","","html-keyboard-response","404","621905","0.0-13.0-0.0-1.0-0.2-1.120","null","<span style='color:GreenYellow; font-size: 70px;'>正确! </span>","null","","","","","","","","","","","","","","","","","","","","","","","feedback_test"
"","","","","","psychophysics","405","623558","0.0-13.0-0.0-1.0-0.2-0.121","500","","f","","","","","","","","","","","","","key","f","16.66359183673476","768","428","f","true","img/T_ambi40.png","坏人","image_first",""
"","","","","","html-keyboard-response","406","623869","0.0-13.0-0.0-1.0-0.2-1.121","null","<span style='color:GreenYellow; font-size: 70px;'>正确! </span>","null","","","","","","","","","","","","","","","","","","","","","","","feedback_test"
"","","","","","psychophysics","407","625825","0.0-13.0-0.0-1.0-0.2-0.122","804","","f","","","","","","","","","","","","","key","f","16.6631551724136","768","428","f","true","img/T_ambi40.png","坏人","image_first",""
"","","","","","html-keyboard-response","408","626133","0.0-13.0-0.0-1.0-0.2-1.122","null","<span style='color:GreenYellow; font-size: 70px;'>正确! </span>","null","","","","","","","","","","","","","","","","","","","","","","","feedback_test"
"","","","","","psychophysics","409","627878","0.0-13.0-0.0-1.0-0.2-0.123","594","","f","","","","","","","","","","","","","key","f","16.6633786407765","768","428","f","true","img/S_ambi40.png","常人","image_first",""
"","","","","","html-keyboard-response","410","628197","0.0-13.0-0.0-1.0-0.2-1.123","null","<span style='color:GreenYellow; font-size: 70px;'>正确! </span>","null","","","","","","","","","","","","","","","","","","","","","","","feedback_test"
"","","","","","psychophysics","411","629916","0.0-13.0-0.0-1.0-0.2-0.124","566","","j","","","","","","","","","","","","","key","j","16.664284313725325","768","428","j","true","img/T_ambi40.png","常人","image_first",""
"","","","","","html-keyboard-response","412","630228","0.0-13.0-0.0-1.0-0.2-1.124","null","<span style='color:GreenYellow; font-size: 70px;'>正确! </span>","null","","","","","","","","","","","","","","","","","","","","","","","feedback_test"
"","","","","","psychophysics","413","632338","0.0-13.0-0.0-1.0-0.2-0.125","954","","j","","","","","","","","","","","","","key","j","16.65566666666714","768","428","j","true","img/S_ambi40.png","好人","image_first",""
"","","","","","html-keyboard-response","414","632657","0.0-13.0-0.0-1.0-0.2-1.125","null","<span style='color:GreenYellow; font-size: 70px;'>正确! </span>","null","","","","","","","","","","","","","","","","","","","","","","","feedback_test"
"","","","","","psychophysics","415","634545","0.0-13.0-0.0-1.0-0.2-0.126","734","","j","","","","","","","","","","","","","key","j","16.663107142857502","768","428","j","true","img/C_ambi40.png","坏人","image_first",""
"","","","","","html-keyboard-response","416","634854","0.0-13.0-0.0-1.0-0.2-1.126","null","<span style='color:GreenYellow; font-size: 70px;'>正确! </span>","null","","","","","","","","","","","","","","","","","","","","","","","feedback_test"
"","","","","","psychophysics","417","636741","0.0-13.0-0.0-1.0-0.2-0.127","731","","j","","","","","","","","","","","","","key","j","16.663803571427707","768","428","j","true","img/S_ambi40.png","坏人","image_first",""
"","","","","","html-keyboard-response","418","637060","0.0-13.0-0.0-1.0-0.2-1.127","null","<span style='color:GreenYellow; font-size: 70px;'>正确! </span>","null","","","","","","","","","","","","","","","","","","","","","","","feedback_test"
"","","","","","psychophysics","419","638723","0.0-13.0-0.0-1.0-0.2-0.128","508","","f","","","","","","","","","","","","","key","f","16.662939393938746","768","428","f","true","img/C_ambi40.png","好人","image_first",""
"","","","","","html-keyboard-response","420","639037","0.0-13.0-0.0-1.0-0.2-1.128","null","<span style='color:GreenYellow; font-size: 70px;'>正确! </span>","null","","","","","","","","","","","","","","","","","","","","","","","feedback_test"
"","","","","","psychophysics","421","640664","0.0-13.0-0.0-1.0-0.2-0.129","470","","j","","","","","","","","","","","","","key","j","16.6645416666676","768","428","f","false","img/C_ambi40.png","好人","image_first",""
"","","","","","html-keyboard-response","422","640980","0.0-13.0-0.0-1.0-0.2-1.129","null","<span style='color:red; font-size: 70px;'>错误! </span>","null","","","","","","","","","","","","","","","","","","","","","","","feedback_test"
"","","","","","psychophysics","423","642787","0.0-13.0-0.0-1.0-0.2-0.130","654","","f","","","","","","","","","","","","","key","f","16.527775700934118","768","428","f","true","img/S_ambi40.png","常人","image_first",""
"","","","","","html-keyboard-response","424","643091","0.0-13.0-0.0-1.0-0.2-1.130","null","<span style='color:GreenYellow; font-size: 70px;'>正确! </span>","null","","","","","","","","","","","","","","","","","","","","","","","feedback_test"
"","","","","","psychophysics","425","645064","0.0-13.0-0.0-1.0-0.2-0.131","816","","j","","","","","","","","","","","","","key","j","16.66433333333295","768","428","j","true","img/T_ambi40.png","好人","image_first",""
"","","","","","html-keyboard-response","426","645384","0.0-13.0-0.0-1.0-0.2-1.131","null","<span style='color:GreenYellow; font-size: 70px;'>正确! </span>","null","","","","","","","","","","","","","","","","","","","","","","","feedback_test"
"","","","","","psychophysics","427","647192","0.0-13.0-0.0-1.0-0.2-0.132","653","","j","","","","","","","","","","","","","key","j","16.66442990654135","768","428","j","true","img/S_ambi40.png","好人","image_first",""
"","","","","","html-keyboard-response","428","647510","0.0-13.0-0.0-1.0-0.2-1.132","null","<span style='color:GreenYellow; font-size: 70px;'>正确! </span>","null","","","","","","","","","","","","","","","","","","","","","","","feedback_test"
"","","","","","psychophysics","429","649176","0.0-13.0-0.0-1.0-0.2-0.133","512","","f","","","","","","","","","","","","","key","f","16.663484848484238","768","428","f","true","img/C_ambi40.png","好人","image_first",""
"","","","","","html-keyboard-response","430","649490","0.0-13.0-0.0-1.0-0.2-1.133","null","<span style='color:GreenYellow; font-size: 70px;'>正确! </span>","null","","","","","","","","","","","","","","","","","","","","","","","feedback_test"
"","","","","","psychophysics","431","651205","0.0-13.0-0.0-1.0-0.2-0.134","562","","j","","","","","","","","","","","","","key","j","16.664872549019993","768","428","j","true","img/T_ambi40.png","好人","image_first",""
