"success","timeout","failed_images","failed_audio","failed_video","trial_type","trial_index","time_elapsed","internal_node_id","rt","stimulus","response","value","item_width_mm","item_height_mm","item_width_px","px2mm","view_dist_mm","item_width_deg","px2deg","scale_factor","win_width_deg","win_height_deg","view_history","response_type","key_press","avg_frame_time","center_x","center_y","correct_response","correct","Image","word","condition","screen_id"
"true","false","[]","[]","[]","preload","0","575","0.0-0.0","","","","","","","","","","","","","","","","","","","","","","","","","",""
"","","","","","html-keyboard-response","1","7641","0.0-1.0","7065","
     <p>您好，欢迎参加本次实验。</p>
     <p>为充分保障您的权利，请确保您已经知晓并同意《参与实验同意书》以及《数据公开知情同意书》。</p>
     <p>如果您未见过上述内容，请咨询实验员。</p>
     <p>如果您选择继续实验，则表示您已经清楚两份知情同意书的内容并同意。</p>
     <p> <div style = ""color: green""><按任意键至下页></div> </p>
     "," ","","","","","","","","","","","","","","","","","","","","","","",""
"","","","","","html-keyboard-response","2","9752","0.0-2.0","2110","
     <p>本实验首先需要您填写一些基本个人信息。</p>
     <p> <div style = ""color: green""><按任意键至下页></div></p>
     "," ","","","","","","","","","","","","","","","","","","","","","","",""
"","","","","","call-function","3","9753","0.0-3.0-0.0","","","","","","","","","","","","","","","","","","","","","","","","","",""
"","","","","","survey-html-form","4","14502","0.0-3.0-1.0","4748","","{""Q0"":""18""}","","","","","","","","","","","","","","","","","","","","","","",""
"","","","","","html-button-response","5","15533","0.0-3.0-2.0","1030","<p style = 'color : white'>您的性别</p>","1","","","","","","","","","","","","","","","","","","","","","","",""
"","","","","","survey-html-form","6","19454","0.0-3.0-3.0","3919","","{""Q0"":""2003""}","","","","","","","","","","","","","","","","","","","","","","",""
"","","","","","survey-html-form","7","22123","0.0-3.0-4.0","2668","","{""Q0"":""5""}","","","","","","","","","","","","","","","","","","","","","","",""
"","","","","","virtual-chinrest","8","111234","0.0-4.0","89109","","","","85.6","53.98","573.8295418322688","6.699253981199693","425.92","11.476590836645377","50","0.7284393178247731","28.3","16.08","","","","","","","","","","","",""
"true","","","","","fullscreen","9","113823","0.0-5.0","","","","","","","","","","","","","","","","","","","","","","","","","",""
"","","","","","instructions","10","151211","0.0-6.0","37387","","","","","","","","","","","","","","[{""page_index"":0,""viewing_time"":7658},{""page_index"":1,""viewing_time"":20279},{""page_index"":2,""viewing_time"":4611},{""page_index"":3,""viewing_time"":4839}]","","","","","","","","","","",""
"","","","","","psychophysics","11","153197","0.0-7.0-0.0-0.0","828","","j","","","","","","","","","","","","","key","j","16.66662711864416","731.4285714285714","453.42857142857144","j","true","img/T_ambi40.png","常人","prac_image_first",""
"","","","","","html-keyboard-response","12","153513","0.0-7.0-0.0-1.0","null","<span style='color:GreenYellow; font-size: 70px;'>正确! </span>","null","","","","","","","","","","","","","","","","","","","","","","","feedback_test"
"","","","","","psychophysics","13","155439","0.0-7.0-0.0-0.1","769","","j","","","","","","","","","","","","","key","j","16.6671391304347","731.4285714285714","453.42857142857144","f","false","img/C_ambi40.png","好人","prac_image_first",""
"","","","","","html-keyboard-response","14","155752","0.0-7.0-0.0-1.1","null","<span style='color:red; font-size: 70px;'>错误! </span>","null","","","","","","","","","","","","","","","","","","","","","","","feedback_test"
"","","","","","psychophysics","15","157914","0.0-7.0-0.0-0.2","1010","","j","","","","","","","","","","","","","key","j","16.6663671875001","731.4285714285714","453.42857142857144","f","false","img/S_ambi40.png","常人","prac_image_first",""
"","","","","","html-keyboard-response","16","158221","0.0-7.0-0.0-1.2","null","<span style='color:red; font-size: 70px;'>错误! </span>","null","","","","","","","","","","","","","","","","","","","","","","","feedback_test"
"","","","","","psychophysics","17","160461","0.0-7.0-0.0-0.3","1085","","f","","","","","","","","","","","","","key","f","16.666691729323404","731.4285714285714","453.42857142857144","j","false","img/C_ambi40.png","坏人","prac_image_first",""
"","","","","","html-keyboard-response","18","160771","0.0-7.0-0.0-1.3","null","<span style='color:red; font-size: 70px;'>错误! </span>","null","","","","","","","","","","","","","","","","","","","","","","","feedback_test"
"","","","","","psychophysics","19","163383","0.0-7.0-0.0-0.4","1455","","j","","","","","","","","","","","","","key","j","16.666703225806497","731.4285714285714","453.42857142857144","f","false","img/S_ambi40.png","常人","prac_image_first",""
"","","","","","html-keyboard-response","20","163693","0.0-7.0-0.0-1.4","null","<span style='color:red; font-size: 70px;'>错误! </span>","null","","","","","","","","","","","","","","","","","","","","","","","feedback_test"
"","","","","","psychophysics","21","165742","0.0-7.0-0.0-0.5","894","","f","","","","","","","","","","","","","key","f","16.666803278688572","731.4285714285714","453.42857142857144","f","true","img/T_ambi40.png","坏人","prac_image_first",""
"","","","","","html-keyboard-response","22","166054","0.0-7.0-0.0-1.5","null","<span style='color:GreenYellow; font-size: 70px;'>正确! </span>","null","","","","","","","","","","","","","","","","","","","","","","","feedback_test"
"","","","","","psychophysics","23","168064","0.0-7.0-0.0-0.6","857","","f","","","","","","","","","","","","","key","f","16.66682352941188","731.4285714285714","453.42857142857144","j","false","img/S_ambi40.png","好人","prac_image_first",""
"","","","","","html-keyboard-response","24","168369","0.0-7.0-0.0-1.6","null","<span style='color:red; font-size: 70px;'>错误! </span>","null","","","","","","","","","","","","","","","","","","","","","","","feedback_test"
"","","","","","psychophysics","25","170102","0.0-7.0-0.0-0.7","582","","f","","","","","","","","","","","","","key","f","16.66628431372559","731.4285714285714","453.42857142857144","j","false","img/C_ambi40.png","常人","prac_image_first",""
"","","","","","html-keyboard-response","26","170411","0.0-7.0-0.0-1.7","null","<span style='color:red; font-size: 70px;'>错误! </span>","null","","","","","","","","","","","","","","","","","","","","","","","feedback_test"
"","","","","","psychophysics","27","172058","0.0-7.0-0.0-0.8","490","","f","","","","","","","","","","","","","key","f","16.661848484848644","731.4285714285714","453.42857142857144","f","true","img/C_ambi40.png","好人","prac_image_first",""
"","","","","","html-keyboard-response","28","172369","0.0-7.0-0.0-1.8","null","<span style='color:GreenYellow; font-size: 70px;'>正确! </span>","null","","","","","","","","","","","","","","","","","","","","","","","feedback_test"
"","","","","","psychophysics","29","174459","0.0-7.0-0.0-0.9","939","","j","","","","","","","","","","","","","key","j","16.666927419354785","731.4285714285714","453.42857142857144","j","true","img/T_ambi40.png","好人","prac_image_first",""
"","","","","","html-keyboard-response","30","174781","0.0-7.0-0.0-1.9","null","<span style='color:GreenYellow; font-size: 70px;'>正确! </span>","null","","","","","","","","","","","","","","","","","","","","","","","feedback_test"
"","","","","","psychophysics","31","176921","0.0-7.0-0.0-0.10","986","","f","","","","","","","","","","","","","key","f","16.667101562499965","731.4285714285714","453.42857142857144","f","true","img/T_ambi40.png","坏人","prac_image_first",""
"","","","","","html-keyboard-response","32","177223","0.0-7.0-0.0-1.10","null","<span style='color:GreenYellow; font-size: 70px;'>正确! </span>","null","","","","","","","","","","","","","","","","","","","","","","","feedback_test"
"","","","","","psychophysics","33","179501","0.0-7.0-0.0-0.11","1118","","j","","","","","","","","","","","","","key","j","16.664081481481574","731.4285714285714","453.42857142857144","j","true","img/S_ambi40.png","坏人","prac_image_first",""
"","","","","","html-keyboard-response","34","179812","0.0-7.0-0.0-1.11","null","<span style='color:GreenYellow; font-size: 70px;'>正确! </span>","null","","","","","","","","","","","","","","","","","","","","","","","feedback_test"
"","","","","","psychophysics","35","181868","0.0-7.0-0.0-0.12","901","","f","","","","","","","","","","","","","key","f","16.667032786885223","731.4285714285714","453.42857142857144","f","true","img/S_ambi40.png","常人","prac_image_first",""
"","","","","","html-keyboard-response","36","182187","0.0-7.0-0.0-1.12","null","<span style='color:GreenYellow; font-size: 70px;'>正确! </span>","null","","","","","","","","","","","","","","","","","","","","","","","feedback_test"
"","","","","","psychophysics","37","183915","0.0-7.0-0.0-0.13","571","","f","","","","","","","","","","","","","key","f","16.666362745098155","731.4285714285714","453.42857142857144","f","true","img/S_ambi40.png","常人","prac_image_first",""
"","","","","","html-keyboard-response","38","184225","0.0-7.0-0.0-1.13","null","<span style='color:GreenYellow; font-size: 70px;'>正确! </span>","null","","","","","","","","","","","","","","","","","","","","","","","feedback_test"
"","","","","","psychophysics","39","186283","0.0-7.0-0.0-0.14","899","","j","","","","","","","","","","","","","key","j","16.66661475409828","731.4285714285714","453.42857142857144","j","true","img/S_ambi40.png","坏人","prac_image_first",""
"","","","","","html-keyboard-response","40","186605","0.0-7.0-0.0-1.14","null","<span style='color:GreenYellow; font-size: 70px;'>正确! </span>","null","","","","","","","","","","","","","","","","","","","","","","","feedback_test"
"","","","","","psychophysics","41","188629","0.0-7.0-0.0-0.15","870","","j","","","","","","","","","","","","","key","j","16.6661583333332","731.4285714285714","453.42857142857144","f","false","img/T_ambi40.png","坏人","prac_image_first",""
"","","","","","html-keyboard-response","42","188945","0.0-7.0-0.0-1.15","null","<span style='color:red; font-size: 70px;'>错误! </span>","null","","","","","","","","","","","","","","","","","","","","","","","feedback_test"
"","","","","","psychophysics","43","191190","0.0-7.0-0.0-0.16","1088","","j","","","","","","","","","","","","","key","j","16.666910447761044","731.4285714285714","453.42857142857144","j","true","img/T_ambi40.png","常人","prac_image_first",""
"","","","","","html-keyboard-response","44","191495","0.0-7.0-0.0-1.16","null","<span style='color:GreenYellow; font-size: 70px;'>正确! </span>","null","","","","","","","","","","","","","","","","","","","","","","","feedback_test"
"","","","","","psychophysics","45","193091","0.0-7.0-0.0-0.17","444","","f","","","","","","","","","","","","","key","f","16.66686315789457","731.4285714285714","453.42857142857144","f","true","img/C_ambi40.png","好人","prac_image_first",""
"","","","","","html-keyboard-response","46","193411","0.0-7.0-0.0-1.17","null","<span style='color:GreenYellow; font-size: 70px;'>正确! </span>","null","","","","","","","","","","","","","","","","","","","","","","","feedback_test"
"","","","","","psychophysics","47","195420","0.0-7.0-0.0-0.18","853","","f","","","","","","","","","","","","","key","f","16.66633057851255","731.4285714285714","453.42857142857144","f","true","img/T_ambi40.png","坏人","prac_image_first",""
"","","","","","html-keyboard-response","48","195736","0.0-7.0-0.0-1.18","null","<span style='color:GreenYellow; font-size: 70px;'>正确! </span>","null","","","","","","","","","","","","","","","","","","","","","","","feedback_test"
"","","","","","psychophysics","49","197487","0.0-7.0-0.0-0.19","592","","f","","","","","","","","","","","","","key","f","16.662105769230738","731.4285714285714","453.42857142857144","f","true","img/C_ambi40.png","好人","prac_image_first",""
"","","","","","html-keyboard-response","50","197804","0.0-7.0-0.0-1.19","null","<span style='color:GreenYellow; font-size: 70px;'>正确! </span>","null","","","","","","","","","","","","","","","","","","","","","","","feedback_test"
"","","","","","psychophysics","51","199715","0.0-7.0-0.0-0.20","756","","j","","","","","","","","","","","","","key","j","16.66466371681406","731.4285714285714","453.42857142857144","j","true","img/T_ambi40.png","好人","prac_image_first",""
"","","","","","html-keyboard-response","52","200029","0.0-7.0-0.0-1.20","null","<span style='color:GreenYellow; font-size: 70px;'>正确! </span>","null","","","","","","","","","","","","","","","","","","","","","","","feedback_test"
"","","","","","psychophysics","53","202686","0.0-7.0-0.0-0.21","null","","null","","","","","","","","","","","","","key","null","16.66675316455702","731.4285714285714","453.42857142857144","j","false","img/C_ambi40.png","坏人","prac_image_first",""
"","","","","","html-keyboard-response","54","202988","0.0-7.0-0.0-1.21","null","<span class='add_' style='color:yellow; font-size: 70px;'> 太慢! </span>","null","","","","","","","","","","","","","","","","","","","","","","","feedback_test"
"","","","","","psychophysics","55","205288","0.0-7.0-0.0-0.22","1145","","j","","","","","","","","","","","","","key","j","16.666167883211568","731.4285714285714","453.42857142857144","j","true","img/C_ambi40.png","常人","prac_image_first",""
"","","","","","html-keyboard-response","56","205595","0.0-7.0-0.0-1.22","null","<span style='color:GreenYellow; font-size: 70px;'>正确! </span>","null","","","","","","","","","","","","","","","","","","","","","","","feedback_test"
"","","","","","psychophysics","57","207756","0.0-7.0-0.0-0.23","1006","","j","","","","","","","","","","","","","key","j","16.666666666666668","731.4285714285714","453.42857142857144","j","true","img/S_ambi40.png","好人","prac_image_first",""
"","","","","","html-keyboard-response","58","208073","0.0-7.0-0.0-1.23","null","<span style='color:GreenYellow; font-size: 70px;'>正确! </span>","null","","","","","","","","","","","","","","","","","","","","","","","feedback_test"
"","","","","","html-keyboard-response","59","236327","0.0-8.0","28252","<style>.context{color:white; font-size: 35px; line-height:40px}</style>                              <div><p class='context'>您正确回答了67% 的试次。</p><p class='context'>您的平均反应时为844毫秒。</p><p class='context'>恭喜您完成这一阶段的练习。按任意键进入<span style='color: yellow;'>先文字后图形条件</span>的练习。</p></div>"," ","","","","","","","","","","","","","","","","","","","","","","",""
"","","","","","psychophysics","60","238296","0.0-9.0-0.0-0.0","811","","j","","","","","","","","","","","","","key","j","16.66711965811978","731.4285714285714","453.42857142857144","j","true","img/S_ambi40.png","好人","prac_word_first",""
"","","","","","html-keyboard-response","61","238605","0.0-9.0-0.0-1.0","null","<span style='color:GreenYellow; font-size: 70px;'>正确! </span>","null","","","","","","","","","","","","","","","","","","","","","","","feedback_test"
"","","","","","psychophysics","62","240591","0.0-9.0-0.0-0.1","832","","j","","","","","","","","","","","","","key","j","16.666144067796697","731.4285714285714","453.42857142857144","j","true","img/S_ambi40.png","坏人","prac_word_first",""
"","","","","","html-keyboard-response","63","240908","0.0-9.0-0.0-1.1","null","<span style='color:GreenYellow; font-size: 70px;'>正确! </span>","null","","","","","","","","","","","","","","","","","","","","","","","feedback_test"
"","","","","","psychophysics","64","242976","0.0-9.0-0.0-0.2","913","","j","","","","","","","","","","","","","key","j","16.667121951219368","731.4285714285714","453.42857142857144","j","true","img/T_ambi40.png","常人","prac_word_first",""
"","","","","","html-keyboard-response","65","243290","0.0-9.0-0.0-1.2","null","<span style='color:GreenYellow; font-size: 70px;'>正确! </span>","null","","","","","","","","","","","","","","","","","","","","","","","feedback_test"
"","","","","","psychophysics","66","245016","0.0-9.0-0.0-0.3","569","","f","","","","","","","","","","","","","key","f","16.666549019607963","731.4285714285714","453.42857142857144","f","true","img/C_ambi40.png","好人","prac_word_first",""
"","","","","","html-keyboard-response","67","245327","0.0-9.0-0.0-1.3","null","<span style='color:GreenYellow; font-size: 70px;'>正确! </span>","null","","","","","","","","","","","","","","","","","","","","","","","feedback_test"
"","","","","","psychophysics","68","247301","0.0-9.0-0.0-0.4","822","","f","","","","","","","","","","","","","key","f","16.666991452991457","731.4285714285714","453.42857142857144","f","true","img/C_ambi40.png","好人","prac_word_first",""
"","","","","","html-keyboard-response","69","247618","0.0-9.0-0.0-1.4","null","<span style='color:GreenYellow; font-size: 70px;'>正确! </span>","null","","","","","","","","","","","","","","","","","","","","","","","feedback_test"
"","","","","","psychophysics","70","249550","0.0-9.0-0.0-0.5","782","","j","","","","","","","","","","","","","key","j","16.666350877193047","731.4285714285714","453.42857142857144","j","true","img/C_ambi40.png","常人","prac_word_first",""
"","","","","","html-keyboard-response","71","249868","0.0-9.0-0.0-1.5","null","<span style='color:GreenYellow; font-size: 70px;'>正确! </span>","null","","","","","","","","","","","","","","","","","","","","","","","feedback_test"
"","","","","","psychophysics","72","251736","0.0-9.0-0.0-0.6","716","","f","","","","","","","","","","","","","key","f","16.664081081081243","731.4285714285714","453.42857142857144","f","true","img/S_ambi40.png","常人","prac_word_first",""
"","","","","","html-keyboard-response","73","252039","0.0-9.0-0.0-1.6","null","<span style='color:GreenYellow; font-size: 70px;'>正确! </span>","null","","","","","","","","","","","","","","","","","","","","","","","feedback_test"
"","","","","","psychophysics","74","253750","0.0-9.0-0.0-0.7","558","","j","","","","","","","","","","","","","key","j","16.667049504950526","731.4285714285714","453.42857142857144","j","true","img/C_ambi40.png","坏人","prac_word_first",""
"","","","","","html-keyboard-response","75","254068","0.0-9.0-0.0-1.7","null","<span style='color:GreenYellow; font-size: 70px;'>正确! </span>","null","","","","","","","","","","","","","","","","","","","","","","","feedback_test"
"","","","","","psychophysics","76","255959","0.0-9.0-0.0-0.8","740","","f","","","","","","","","","","","","","key","f","16.666383928571513","731.4285714285714","453.42857142857144","f","true","img/T_ambi40.png","坏人","prac_word_first",""
"","","","","","html-keyboard-response","77","256276","0.0-9.0-0.0-1.8","null","<span style='color:GreenYellow; font-size: 70px;'>正确! </span>","null","","","","","","","","","","","","","","","","","","","","","","","feedback_test"
"","","","","","psychophysics","78","258067","0.0-9.0-0.0-0.9","636","","f","","","","","","","","","","","","","key","f","16.6671226415094","731.4285714285714","453.42857142857144","f","true","img/S_ambi40.png","常人","prac_word_first",""
"","","","","","html-keyboard-response","79","258380","0.0-9.0-0.0-1.9","null","<span style='color:GreenYellow; font-size: 70px;'>正确! </span>","null","","","","","","","","","","","","","","","","","","","","","","","feedback_test"
"","","","","","psychophysics","80","260321","0.0-9.0-0.0-0.10","785","","f","","","","","","","","","","","","","key","f","16.666724137931254","731.4285714285714","453.42857142857144","f","true","img/T_ambi40.png","坏人","prac_word_first",""
"","","","","","html-keyboard-response","81","260627","0.0-9.0-0.0-1.10","null","<span style='color:GreenYellow; font-size: 70px;'>正确! </span>","null","","","","","","","","","","","","","","","","","","","","","","","feedback_test"
"","","","","","psychophysics","82","262251","0.0-9.0-0.0-0.11","468","","f","","","","","","","","","","","","","key","f","16.667749999999916","731.4285714285714","453.42857142857144","j","false","img/T_ambi40.png","好人","prac_word_first",""
"","","","","","html-keyboard-response","83","262571","0.0-9.0-0.0-1.11","null","<span style='color:red; font-size: 70px;'>错误! </span>","null","","","","","","","","","","","","","","","","","","","","","","","feedback_test"
"","","","","","psychophysics","84","264267","0.0-9.0-0.0-0.12","540","","f","","","","","","","","","","","","","key","f","16.666790000000038","731.4285714285714","453.42857142857144","f","true","img/S_ambi40.png","常人","prac_word_first",""
"","","","","","html-keyboard-response","85","264586","0.0-9.0-0.0-1.12","null","<span style='color:GreenYellow; font-size: 70px;'>正确! </span>","null","","","","","","","","","","","","","","","","","","","","","","","feedback_test"
"","","","","","psychophysics","86","267240","0.0-9.0-0.0-0.13","null","","null","","","","","","","","","","","","","key","null","16.66327848101272","731.4285714285714","453.42857142857144","j","false","img/T_ambi40.png","常人","prac_word_first",""
"","","","","","html-keyboard-response","87","267545","0.0-9.0-0.0-1.13","null","<span class='add_' style='color:yellow; font-size: 70px;'> 太慢! </span>","null","","","","","","","","","","","","","","","","","","","","","","","feedback_test"
"","","","","","psychophysics","88","269509","0.0-9.0-0.0-0.14","806","","j","","","","","","","","","","","","","key","j","16.66691452991486","731.4285714285714","453.42857142857144","j","true","img/C_ambi40.png","常人","prac_word_first",""
"","","","","","html-keyboard-response","89","269829","0.0-9.0-0.0-1.14","null","<span style='color:GreenYellow; font-size: 70px;'>正确! </span>","null","","","","","","","","","","","","","","","","","","","","","","","feedback_test"
"","","","","","psychophysics","90","271557","0.0-9.0-0.0-0.15","574","","f","","","","","","","","","","","","","key","f","16.666388349514342","731.4285714285714","453.42857142857144","f","true","img/T_ambi40.png","坏人","prac_word_first",""
"","","","","","html-keyboard-response","91","271863","0.0-9.0-0.0-1.15","null","<span style='color:GreenYellow; font-size: 70px;'>正确! </span>","null","","","","","","","","","","","","","","","","","","","","","","","feedback_test"
"","","","","","psychophysics","92","273507","0.0-9.0-0.0-0.16","492","","f","","","","","","","","","","","","","key","f","16.667122448979264","731.4285714285714","453.42857142857144","j","false","img/S_ambi40.png","好人","prac_word_first",""
"","","","","","html-keyboard-response","93","273816","0.0-9.0-0.0-1.16","null","<span style='color:red; font-size: 70px;'>错误! </span>","null","","","","","","","","","","","","","","","","","","","","","","","feedback_test"
"","","","","","psychophysics","94","275549","0.0-9.0-0.0-0.17","582","","j","","","","","","","","","","","","","key","j","16.666854368932476","731.4285714285714","453.42857142857144","j","true","img/S_ambi40.png","坏人","prac_word_first",""
"","","","","","html-keyboard-response","95","275858","0.0-9.0-0.0-1.17","null","<span style='color:GreenYellow; font-size: 70px;'>正确! </span>","null","","","","","","","","","","","","","","","","","","","","","","","feedback_test"
"","","","","","psychophysics","96","277796","0.0-9.0-0.0-0.18","781","","f","","","","","","","","","","","","","key","f","16.667408695652494","731.4285714285714","453.42857142857144","f","true","img/S_ambi40.png","常人","prac_word_first",""
"","","","","","html-keyboard-response","97","278117","0.0-9.0-0.0-1.18","null","<span style='color:GreenYellow; font-size: 70px;'>正确! </span>","null","","","","","","","","","","","","","","","","","","","","","","","feedback_test"
"","","","","","psychophysics","98","279983","0.0-9.0-0.0-0.19","714","","j","","","","","","","","","","","","","key","j","16.555109090908875","731.4285714285714","453.42857142857144","j","true","img/C_ambi40.png","坏人","prac_word_first",""
"","","","","","html-keyboard-response","99","280290","0.0-9.0-0.0-1.19","null","<span style='color:GreenYellow; font-size: 70px;'>正确! </span>","null","","","","","","","","","","","","","","","","","","","","","","","feedback_test"
"","","","","","psychophysics","100","281932","0.0-9.0-0.0-0.20","485","","f","","","","","","","","","","","","","key","f","16.666752577319468","731.4285714285714","453.42857142857144","f","true","img/C_ambi40.png","好人","prac_word_first",""
"","","","","","html-keyboard-response","101","282248","0.0-9.0-0.0-1.20","null","<span style='color:GreenYellow; font-size: 70px;'>正确! </span>","null","","","","","","","","","","","","","","","","","","","","","","","feedback_test"
"","","","","","psychophysics","102","284101","0.0-9.0-0.0-0.21","700","","f","","","","","","","","","","","","","key","f","16.66692727272695","731.4285714285714","453.42857142857144","f","true","img/T_ambi40.png","坏人","prac_word_first",""
"","","","","","html-keyboard-response","103","284422","0.0-9.0-0.0-1.21","null","<span style='color:GreenYellow; font-size: 70px;'>正确! </span>","null","","","","","","","","","","","","","","","","","","","","","","","feedback_test"
"","","","","","psychophysics","104","286241","0.0-9.0-0.0-0.22","666","","f","","","","","","","","","","","","","key","f","16.666787037036826","731.4285714285714","453.42857142857144","f","true","img/C_ambi40.png","好人","prac_word_first",""
"","","","","","html-keyboard-response","105","286550","0.0-9.0-0.0-1.22","null","<span style='color:GreenYellow; font-size: 70px;'>正确! </span>","null","","","","","","","","","","","","","","","","","","","","","","","feedback_test"
"","","","","","psychophysics","106","288407","0.0-9.0-0.0-0.23","706","","j","","","","","","","","","","","","","key","j","16.553763636363545","731.4285714285714","453.42857142857144","j","true","img/T_ambi40.png","好人","prac_word_first",""
"","","","","","html-keyboard-response","107","288711","0.0-9.0-0.0-1.23","null","<span style='color:GreenYellow; font-size: 70px;'>正确! </span>","null","","","","","","","","","","","","","","","","","","","","","","","feedback_test"
"","","","","","html-keyboard-response","108","303479","0.0-10.0","14765","<style>.context{color:white; font-size: 35px; line-height:40px}</style>                              <div><p class='context'>您正确回答了88% 的试次。</p><p class='context'>您的平均反应时为701毫秒。</p><p class='context'>恭喜您完成练习。按任意键进入<span style='color: yellow;'>图形和文字同时呈现条件</span>的练习。</p></div>"," ","","","","","","","","","","","","","","","","","","","","","","",""
"","","","","","psychophysics","109","305612","0.0-11.0-0.0-0.0","1127","","j","","","","","","","","","","","","","key","j","16.667055118109896","731.4285714285714","453.42857142857144","f","false","img/T_ambi40.png","坏人","prac_simultaneous",""
"","","","","","html-keyboard-response","110","305933","0.0-11.0-0.0-1.0","null","<span style='color:red; font-size: 70px;'>错误! </span>","null","","","","","","","","","","","","","","","","","","","","","","","feedback_test"
"","","","","","psychophysics","111","307948","0.0-11.0-0.0-0.1","1013","","j","","","","","","","","","","","","","key","j","17.093846153846492","731.4285714285714","453.42857142857144","j","true","img/C_ambi40.png","常人","prac_simultaneous",""
"","","","","","html-keyboard-response","112","308263","0.0-11.0-0.0-1.1","null","<span style='color:GreenYellow; font-size: 70px;'>正确! </span>","null","","","","","","","","","","","","","","","","","","","","","","","feedback_test"
"","","","","","psychophysics","113","309955","0.0-11.0-0.0-0.2","687","","j","","","","","","","","","","","","","key","j","16.666940594059163","731.4285714285714","453.42857142857144","f","false","img/T_ambi40.png","坏人","prac_simultaneous",""
"","","","","","html-keyboard-response","114","310277","0.0-11.0-0.0-1.2","null","<span style='color:red; font-size: 70px;'>错误! </span>","null","","","","","","","","","","","","","","","","","","","","","","","feedback_test"
"","","","","","psychophysics","115","312152","0.0-11.0-0.0-0.3","872","","f","","","","","","","","","","","","","key","f","16.667196428571124","731.4285714285714","453.42857142857144","f","true","img/C_ambi40.png","好人","prac_simultaneous",""
"","","","","","html-keyboard-response","116","312470","0.0-11.0-0.0-1.3","null","<span style='color:GreenYellow; font-size: 70px;'>正确! </span>","null","","","","","","","","","","","","","","","","","","","","","","","feedback_test"
"","","","","","psychophysics","117","314212","0.0-11.0-0.0-0.4","733","","f","","","","","","","","","","","","","key","f","16.664961165048915","731.4285714285714","453.42857142857144","f","true","img/S_ambi40.png","常人","prac_simultaneous",""
"","","","","","html-keyboard-response","118","314522","0.0-11.0-0.0-1.4","null","<span style='color:GreenYellow; font-size: 70px;'>正确! </span>","null","","","","","","","","","","","","","","","","","","","","","","","feedback_test"
"","","","","","psychophysics","119","316184","0.0-11.0-0.0-0.5","657","","f","","","","","","","","","","","","","key","f","16.667071428571052","731.4285714285714","453.42857142857144","j","false","img/S_ambi40.png","好人","prac_simultaneous",""
"","","","","","html-keyboard-response","120","316489","0.0-11.0-0.0-1.5","null","<span style='color:red; font-size: 70px;'>错误! </span>","null","","","","","","","","","","","","","","","","","","","","","","","feedback_test"
"","","","","","psychophysics","121","318168","0.0-11.0-0.0-0.6","672","","j","","","","","","","","","","","","","key","j","16.666535353535583","731.4285714285714","453.42857142857144","j","true","img/T_ambi40.png","好人","prac_simultaneous",""
"","","","","","html-keyboard-response","122","318480","0.0-11.0-0.0-1.6","null","<span style='color:GreenYellow; font-size: 70px;'>正确! </span>","null","","","","","","","","","","","","","","","","","","","","","","","feedback_test"
"","","","","","psychophysics","123","320304","0.0-11.0-0.0-0.7","819","","j","","","","","","","","","","","","","key","j","16.666770642201435","731.4285714285714","453.42857142857144","j","true","img/S_ambi40.png","坏人","prac_simultaneous",""
"","","","","","html-keyboard-response","124","320608","0.0-11.0-0.0-1.7","null","<span style='color:GreenYellow; font-size: 70px;'>正确! </span>","null","","","","","","","","","","","","","","","","","","","","","","","feedback_test"
"","","","","","psychophysics","125","322166","0.0-11.0-0.0-0.8","550","","f","","","","","","","","","","","","","key","f","16.668760869565354","731.4285714285714","453.42857142857144","f","true","img/C_ambi40.png","好人","prac_simultaneous",""
"","","","","","html-keyboard-response","126","322471","0.0-11.0-0.0-1.8","null","<span style='color:GreenYellow; font-size: 70px;'>正确! </span>","null","","","","","","","","","","","","","","","","","","","","","","","feedback_test"
"","","","","","psychophysics","127","324249","0.0-11.0-0.0-0.9","768","","j","","","","","","","","","","","","","key","j","16.666885714285584","731.4285714285714","453.42857142857144","j","true","img/T_ambi40.png","常人","prac_simultaneous",""
"","","","","","html-keyboard-response","128","324558","0.0-11.0-0.0-1.9","null","<span style='color:GreenYellow; font-size: 70px;'>正确! </span>","null","","","","","","","","","","","","","","","","","","","","","","","feedback_test"
"","","","","","psychophysics","129","326223","0.0-11.0-0.0-0.10","663","","f","","","","","","","","","","","","","key","f","16.666686868686654","731.4285714285714","453.42857142857144","f","true","img/S_ambi40.png","常人","prac_simultaneous",""
"","","","","","html-keyboard-response","130","326527","0.0-11.0-0.0-1.10","null","<span style='color:GreenYellow; font-size: 70px;'>正确! </span>","null","","","","","","","","","","","","","","","","","","","","","","","feedback_test"
"","","","","","psychophysics","131","328482","0.0-11.0-0.0-0.11","947","","j","","","","","","","","","","","","","key","j","16.666655172413748","731.4285714285714","453.42857142857144","j","true","img/C_ambi40.png","坏人","prac_simultaneous",""
"","","","","","html-keyboard-response","132","328793","0.0-11.0-0.0-1.11","null","<span style='color:GreenYellow; font-size: 70px;'>正确! </span>","null","","","","","","","","","","","","","","","","","","","","","","","feedback_test"
"","","","","","psychophysics","133","330387","0.0-11.0-0.0-0.12","587","","j","","","","","","","","","","","","","key","j","16.667336842105232","731.4285714285714","453.42857142857144","j","true","img/C_ambi40.png","坏人","prac_simultaneous",""
"","","","","","html-keyboard-response","134","330704","0.0-11.0-0.0-1.12","null","<span style='color:GreenYellow; font-size: 70px;'>正确! </span>","null","","","","","","","","","","","","","","","","","","","","","","","feedback_test"
"","","","","","psychophysics","135","332431","0.0-11.0-0.0-0.13","718","","f","","","","","","","","","","","","","key","f","16.664147058823694","731.4285714285714","453.42857142857144","j","false","img/C_ambi40.png","常人","prac_simultaneous",""
"","","","","","html-keyboard-response","136","332746","0.0-11.0-0.0-1.13","null","<span style='color:red; font-size: 70px;'>错误! </span>","null","","","","","","","","","","","","","","","","","","","","","","","feedback_test"
"","","","","","psychophysics","137","334412","0.0-11.0-0.0-0.14","660","","j","","","","","","","","","","","","","key","j","16.666747474747197","731.4285714285714","453.42857142857144","j","true","img/S_ambi40.png","坏人","prac_simultaneous",""
"","","","","","html-keyboard-response","138","334731","0.0-11.0-0.0-1.14","null","<span style='color:GreenYellow; font-size: 70px;'>正确! </span>","null","","","","","","","","","","","","","","","","","","","","","","","feedback_test"
"","","","","","psychophysics","139","336558","0.0-11.0-0.0-0.15","823","","f","","","","","","","","","","","","","key","f","16.666275229357364","731.4285714285714","453.42857142857144","f","true","img/S_ambi40.png","常人","prac_simultaneous",""
"","","","","","html-keyboard-response","140","336863","0.0-11.0-0.0-1.15","null","<span style='color:GreenYellow; font-size: 70px;'>正确! </span>","null","","","","","","","","","","","","","","","","","","","","","","","feedback_test"
"","","","","","psychophysics","141","338755","0.0-11.0-0.0-0.16","886","","f","","","","","","","","","","","","","key","f","16.66686725663691","731.4285714285714","453.42857142857144","f","true","img/C_ambi40.png","好人","prac_simultaneous",""
"","","","","","html-keyboard-response","142","339065","0.0-11.0-0.0-1.16","null","<span style='color:GreenYellow; font-size: 70px;'>正确! </span>","null","","","","","","","","","","","","","","","","","","","","","","","feedback_test"
"","","","","","psychophysics","143","340740","0.0-11.0-0.0-0.17","672","","j","","","","","","","","","","","","","key","j","16.667060000000056","731.4285714285714","453.42857142857144","j","true","img/S_ambi40.png","好人","prac_simultaneous",""
"","","","","","html-keyboard-response","144","341048","0.0-11.0-0.0-1.17","null","<span style='color:GreenYellow; font-size: 70px;'>正确! </span>","null","","","","","","","","","","","","","","","","","","","","","","","feedback_test"
"","","","","","psychophysics","145","342796","0.0-11.0-0.0-0.18","744","","j","","","","","","","","","","","","","key","j","16.666567307692066","731.4285714285714","453.42857142857144","j","true","img/T_ambi40.png","常人","prac_simultaneous",""
"","","","","","html-keyboard-response","146","343115","0.0-11.0-0.0-1.18","null","<span style='color:GreenYellow; font-size: 70px;'>正确! </span>","null","","","","","","","","","","","","","","","","","","","","","","","feedback_test"
"","","","","","psychophysics","147","344966","0.0-11.0-0.0-0.19","848","","j","","","","","","","","","","","","","key","j","16.666645454545506","731.4285714285714","453.42857142857144","j","true","img/T_ambi40.png","好人","prac_simultaneous",""
"","","","","","html-keyboard-response","148","345272","0.0-11.0-0.0-1.19","null","<span style='color:GreenYellow; font-size: 70px;'>正确! </span>","null","","","","","","","","","","","","","","","","","","","","","","","feedback_test"
"","","","","","psychophysics","149","347094","0.0-11.0-0.0-0.20","815","","f","","","","","","","","","","","","","key","f","16.666953703703324","731.4285714285714","453.42857142857144","f","true","img/T_ambi40.png","坏人","prac_simultaneous",""
"","","","","","html-keyboard-response","150","347410","0.0-11.0-0.0-1.20","null","<span style='color:GreenYellow; font-size: 70px;'>正确! </span>","null","","","","","","","","","","","","","","","","","","","","","","","feedback_test"
"","","","","","psychophysics","151","349345","0.0-11.0-0.0-0.21","929","","f","","","","","","","","","","","","","key","f","16.666799999999753","731.4285714285714","453.42857142857144","f","true","img/S_ambi40.png","常人","prac_simultaneous",""
"","","","","","html-keyboard-response","152","349661","0.0-11.0-0.0-1.21","null","<span style='color:GreenYellow; font-size: 70px;'>正确! </span>","null","","","","","","","","","","","","","","","","","","","","","","","feedback_test"
"","","","","","psychophysics","153","351674","0.0-11.0-0.0-0.22","1010","","f","","","","","","","","","","","","","key","f","16.666741666666347","731.4285714285714","453.42857142857144","f","true","img/C_ambi40.png","好人","prac_simultaneous",""
"","","","","","html-keyboard-response","154","351990","0.0-11.0-0.0-1.22","null","<span style='color:GreenYellow; font-size: 70px;'>正确! </span>","null","","","","","","","","","","","","","","","","","","","","","","","feedback_test"
"","","","","","psychophysics","155","353623","0.0-11.0-0.0-0.23","624","","f","","","","","","","","","","","","","key","f","16.668958762886252","731.4285714285714","453.42857142857144","f","true","img/T_ambi40.png","坏人","prac_simultaneous",""
"","","","","","html-keyboard-response","156","353933","0.0-11.0-0.0-1.23","null","<span style='color:GreenYellow; font-size: 70px;'>正确! </span>","null","","","","","","","","","","","","","","","","","","","","","","","feedback_test"
"","","","","","html-keyboard-response","157","377761","0.0-12.0","23827","<style>.context{color:white; font-size: 35px; line-height:40px}</style>                              <div><p class='context'>您正确回答了83% 的试次。</p><p class='context'>您的平均反应时为782毫秒。</p><p class='context'>恭喜您完成练习。按任意键进入正式实验。</p><p class='footer' style='font-size: 35px; line-height:40px;'>请在进入正式实验实验之前将您的<span style='color: lightgreen;'>食指</span>放在电脑键盘的相应键位上进行按键。</p>"," ","","","","","","","","","","","","","","","","","","","","","","",""
"","","","","","html-keyboard-response","158","381846","0.0-13.0-1.0-0.0","4081","
      <p>请您将手指放在按键上，准备进入呈现顺序为<span style='color: yellow;'>先文字后图形条件</span>的正式匹配任务</p>
      <p> <div style = ""color: green""><按任意键进入下一阶段的匹配任务></div></p>
      "," ","","","","","","","","","","","","","","","","","","","","","","",""
"","","","","","psychophysics","159","383642","0.0-13.0-1.0-1.0-0.0-0.0","642","","f","","","","","","","","","","","","","key","f","16.66686915887833","731.4285714285714","453.42857142857144","f","true","img/T_ambi40.png","坏人","word_first",""
"","","","","","html-keyboard-response","160","383953","0.0-13.0-1.0-1.0-0.0-1.0","null","<span style='color:GreenYellow; font-size: 70px;'>正确! </span>","null","","","","","","","","","","","","","","","","","","","","","","","feedback_test"
"","","","","","psychophysics","161","385816","0.0-13.0-1.0-1.0-0.0-0.1","704","","j","","","","","","","","","","","","","key","j","16.666618181817995","731.4285714285714","453.42857142857144","j","true","img/C_ambi40.png","常人","word_first",""
"","","","","","html-keyboard-response","162","386130","0.0-13.0-1.0-1.0-0.0-1.1","null","<span style='color:GreenYellow; font-size: 70px;'>正确! </span>","null","","","","","","","","","","","","","","","","","","","","","","","feedback_test"
"","","","","","psychophysics","163","387876","0.0-13.0-1.0-1.0-0.0-0.2","591","","f","","","","","","","","","","","","","key","f","16.666701923076918","731.4285714285714","453.42857142857144","f","true","img/S_ambi40.png","常人","word_first",""
"","","","","","html-keyboard-response","164","388192","0.0-13.0-1.0-1.0-0.0-1.2","null","<span style='color:GreenYellow; font-size: 70px;'>正确! </span>","null","","","","","","","","","","","","","","","","","","","","","","","feedback_test"
"","","","","","psychophysics","165","389858","0.0-13.0-1.0-1.0-0.0-0.3","507","","j","","","","","","","","","","","","","key","j","16.66681818181832","731.4285714285714","453.42857142857144","j","true","img/S_ambi40.png","坏人","word_first",""
"","","","","","html-keyboard-response","166","390174","0.0-13.0-1.0-1.0-0.0-1.3","null","<span style='color:GreenYellow; font-size: 70px;'>正确! </span>","null","","","","","","","","","","","","","","","","","","","","","","","feedback_test"
"","","","","","psychophysics","167","391830","0.0-13.0-1.0-1.0-0.0-0.4","503","","j","","","","","","","","","","","","","key","j","16.666469387755235","731.4285714285714","453.42857142857144","j","true","img/C_ambi40.png","坏人","word_first",""
"","","","","","html-keyboard-response","168","392141","0.0-13.0-1.0-1.0-0.0-1.4","null","<span style='color:GreenYellow; font-size: 70px;'>正确! </span>","null","","","","","","","","","","","","","","","","","","","","","","","feedback_test"
"","","","","","psychophysics","169","394167","0.0-13.0-1.0-1.0-0.0-0.5","872","","j","","","","","","","","","","","","","key","j","16.666575000000012","731.4285714285714","453.42857142857144","j","true","img/T_ambi40.png","好人","word_first",""
"","","","","","html-keyboard-response","170","394484","0.0-13.0-1.0-1.0-0.0-1.5","null","<span style='color:GreenYellow; font-size: 70px;'>正确! </span>","null","","","","","","","","","","","","","","","","","","","","","","","feedback_test"
"","","","","","psychophysics","171","396454","0.0-13.0-1.0-1.0-0.0-0.6","819","","j","","","","","","","","","","","","","key","j","16.666888888888998","731.4285714285714","453.42857142857144","j","true","img/T_ambi40.png","常人","word_first",""
"","","","","","html-keyboard-response","172","396770","0.0-13.0-1.0-1.0-0.0-1.6","null","<span style='color:GreenYellow; font-size: 70px;'>正确! </span>","null","","","","","","","","","","","","","","","","","","","","","","","feedback_test"
"","","","","","psychophysics","173","398679","0.0-13.0-1.0-1.0-0.0-0.7","752","","f","","","","","","","","","","","","","key","f","16.666654867256593","731.4285714285714","453.42857142857144","f","true","img/C_ambi40.png","好人","word_first",""
"","","","","","html-keyboard-response","174","398985","0.0-13.0-1.0-1.0-0.0-1.7","null","<span style='color:GreenYellow; font-size: 70px;'>正确! </span>","null","","","","","","","","","","","","","","","","","","","","","","","feedback_test"
"","","","","","psychophysics","175","400708","0.0-13.0-1.0-1.0-0.0-0.8","564","","f","","","","","","","","","","","","","key","f","16.66711764705913","731.4285714285714","453.42857142857144","f","true","img/S_ambi40.png","常人","word_first",""
"","","","","","html-keyboard-response","176","401021","0.0-13.0-1.0-1.0-0.0-1.8","null","<span style='color:GreenYellow; font-size: 70px;'>正确! </span>","null","","","","","","","","","","","","","","","","","","","","","","","feedback_test"
"","","","","","psychophysics","177","402889","0.0-13.0-1.0-1.0-0.0-0.9","714","","f","","","","","","","","","","","","","key","f","16.666342342342144","731.4285714285714","453.42857142857144","f","true","img/C_ambi40.png","好人","word_first",""
"","","","","","html-keyboard-response","178","403192","0.0-13.0-1.0-1.0-0.0-1.9","null","<span style='color:GreenYellow; font-size: 70px;'>正确! </span>","null","","","","","","","","","","","","","","","","","","","","","","","feedback_test"
"","","","","","psychophysics","179","405125","0.0-13.0-1.0-1.0-0.0-0.10","774","","f","","","","","","","","","","","","","key","f","16.66640869565207","731.4285714285714","453.42857142857144","f","true","img/T_ambi40.png","坏人","word_first",""
"","","","","","html-keyboard-response","180","405441","0.0-13.0-1.0-1.0-0.0-1.10","null","<span style='color:GreenYellow; font-size: 70px;'>正确! </span>","null","","","","","","","","","","","","","","","","","","","","","","","feedback_test"
"","","","","","psychophysics","181","407095","0.0-13.0-1.0-1.0-0.0-0.11","496","","f","","","","","","","","","","","","","key","f","16.66646464646446","731.4285714285714","453.42857142857144","j","false","img/S_ambi40.png","好人","word_first",""
"","","","","","html-keyboard-response","182","407407","0.0-13.0-1.0-1.0-0.0-1.11","null","<span style='color:red; font-size: 70px;'>错误! </span>","null","","","","","","","","","","","","","","","","","","","","","","","feedback_test"
"","","","","","psychophysics","183","409111","0.0-13.0-1.0-1.0-0.0-0.12","551","","f","","","","","","","","","","","","","key","f","16.666732673267003","731.4285714285714","453.42857142857144","f","true","img/T_ambi40.png","坏人","word_first",""
"","","","","","html-keyboard-response","184","409425","0.0-13.0-1.0-1.0-0.0-1.12","null","<span style='color:GreenYellow; font-size: 70px;'>正确! </span>","null","","","","","","","","","","","","","","","","","","","","","","","feedback_test"
"","","","","","psychophysics","185","411471","0.0-13.0-1.0-1.0-0.0-0.13","886","","j","","","","","","","","","","","","","key","j","16.66651639344264","731.4285714285714","453.42857142857144","j","true","img/T_ambi40.png","好人","word_first",""
"","","","","","html-keyboard-response","186","411782","0.0-13.0-1.0-1.0-0.0-1.13","null","<span style='color:GreenYellow; font-size: 70px;'>正确! </span>","null","","","","","","","","","","","","","","","","","","","","","","","feedback_test"
"","","","","","psychophysics","187","413668","0.0-13.0-1.0-1.0-0.0-0.14","734","","j","","","","","","","","","","","","","key","j","16.666705357142614","731.4285714285714","453.42857142857144","j","true","img/S_ambi40.png","好人","word_first",""
"","","","","","html-keyboard-response","188","413978","0.0-13.0-1.0-1.0-0.0-1.14","null","<span style='color:GreenYellow; font-size: 70px;'>正确! </span>","null","","","","","","","","","","","","","","","","","","","","","","","feedback_test"
"","","","","","psychophysics","189","415801","0.0-13.0-1.0-1.0-0.0-0.15","667","","j","","","","","","","","","","","","","key","j","16.667000000000204","731.4285714285714","453.42857142857144","j","true","img/T_ambi40.png","常人","word_first",""
"","","","","","html-keyboard-response","190","416107","0.0-13.0-1.0-1.0-0.0-1.15","null","<span style='color:GreenYellow; font-size: 70px;'>正确! </span>","null","","","","","","","","","","","","","","","","","","","","","","","feedback_test"
"","","","","","psychophysics","191","418040","0.0-13.0-1.0-1.0-0.0-0.16","777","","j","","","","","","","","","","","","","key","j","16.666878260869492","731.4285714285714","453.42857142857144","j","true","img/C_ambi40.png","常人","word_first",""
"","","","","","html-keyboard-response","192","418354","0.0-13.0-1.0-1.0-0.0-1.16","null","<span style='color:GreenYellow; font-size: 70px;'>正确! </span>","null","","","","","","","","","","","","","","","","","","","","","","","feedback_test"
"","","","","","psychophysics","193","420022","0.0-13.0-1.0-1.0-0.0-0.17","510","","f","","","","","","","","","","","","","key","f","16.66817171717147","731.4285714285714","453.42857142857144","f","true","img/C_ambi40.png","好人","word_first",""
"","","","","","html-keyboard-response","194","420328","0.0-13.0-1.0-1.0-0.0-1.17","null","<span style='color:GreenYellow; font-size: 70px;'>正确! </span>","null","","","","","","","","","","","","","","","","","","","","","","","feedback_test"
"","","","","","psychophysics","195","422060","0.0-13.0-1.0-1.0-0.0-0.18","575","","f","","","","","","","","","","","","","key","f","16.667203883494665","731.4285714285714","453.42857142857144","f","true","img/S_ambi40.png","常人","word_first",""
"","","","","","html-keyboard-response","196","422374","0.0-13.0-1.0-1.0-0.0-1.18","null","<span style='color:GreenYellow; font-size: 70px;'>正确! </span>","null","","","","","","","","","","","","","","","","","","","","","","","feedback_test"
"","","","","","psychophysics","197","424099","0.0-13.0-1.0-1.0-0.0-0.19","571","","j","","","","","","","","","","","","","key","j","16.66642156862722","731.4285714285714","453.42857142857144","j","true","img/S_ambi40.png","坏人","word_first",""
"","","","","","html-keyboard-response","198","424422","0.0-13.0-1.0-1.0-0.0-1.19","null","<span style='color:GreenYellow; font-size: 70px;'>正确! </span>","null","","","","","","","","","","","","","","","","","","","","","","","feedback_test"
"","","","","","psychophysics","199","426433","0.0-13.0-1.0-1.0-0.0-0.20","857","","f","","","","","","","","","","","","","key","f","16.666470588235274","731.4285714285714","453.42857142857144","f","true","img/C_ambi40.png","好人","word_first",""
"","","","","","html-keyboard-response","200","426750","0.0-13.0-1.0-1.0-0.0-1.20","null","<span style='color:GreenYellow; font-size: 70px;'>正确! </span>","null","","","","","","","","","","","","","","","","","","","","","","","feedback_test"
"","","","","","psychophysics","201","428611","0.0-13.0-1.0-1.0-0.0-0.21","709","","f","","","","","","","","","","","","","key","f","16.66684545454548","731.4285714285714","453.42857142857144","f","true","img/T_ambi40.png","坏人","word_first",""
"","","","","","html-keyboard-response","202","428932","0.0-13.0-1.0-1.0-0.0-1.21","null","<span style='color:GreenYellow; font-size: 70px;'>正确! </span>","null","","","","","","","","","","","","","","","","","","","","","","","feedback_test"
"","","","","","psychophysics","203","430700","0.0-13.0-1.0-1.0-0.0-0.22","615","","j","","","","","","","","","","","","","key","j","16.666552380952496","731.4285714285714","453.42857142857144","j","true","img/C_ambi40.png","坏人","word_first",""
"","","","","","html-keyboard-response","204","431012","0.0-13.0-1.0-1.0-0.0-1.22","null","<span style='color:GreenYellow; font-size: 70px;'>正确! </span>","null","","","","","","","","","","","","","","","","","","","","","","","feedback_test"
"","","","","","psychophysics","205","432684","0.0-13.0-1.0-1.0-0.0-0.23","517","","f","","","","","","","","","","","","","key","f","16.667252525252717","731.4285714285714","453.42857142857144","f","true","img/S_ambi40.png","常人","word_first",""
"","","","","","html-keyboard-response","206","432999","0.0-13.0-1.0-1.0-0.0-1.23","null","<span style='color:GreenYellow; font-size: 70px;'>正确! </span>","null","","","","","","","","","","","","","","","","","","","","","","","feedback_test"
"","","","","","psychophysics","207","434881","0.0-13.0-1.0-1.0-0.0-0.24","713","","j","","","","","","","","","","","","","key","j","16.666504504504143","731.4285714285714","453.42857142857144","j","true","img/T_ambi40.png","好人","word_first",""
"","","","","","html-keyboard-response","208","435187","0.0-13.0-1.0-1.0-0.0-1.24","null","<span style='color:GreenYellow; font-size: 70px;'>正确! </span>","null","","","","","","","","","","","","","","","","","","","","","","","feedback_test"
"","","","","","psychophysics","209","437147","0.0-13.0-1.0-1.0-0.0-0.25","804","","j","","","","","","","","","","","","","key","j","16.666681034482938","731.4285714285714","453.42857142857144","j","true","img/C_ambi40.png","常人","word_first",""
"","","","","","html-keyboard-response","210","437461","0.0-13.0-1.0-1.0-0.0-1.25","null","<span style='color:GreenYellow; font-size: 70px;'>正确! </span>","null","","","","","","","","","","","","","","","","","","","","","","","feedback_test"
"","","","","","psychophysics","211","439426","0.0-13.0-1.0-1.0-0.0-0.26","811","","f","","","","","","","","","","","","","key","f","16.667338983050715","731.4285714285714","453.42857142857144","f","true","img/C_ambi40.png","好人","word_first",""
"","","","","","html-keyboard-response","212","439738","0.0-13.0-1.0-1.0-0.0-1.26","null","<span style='color:GreenYellow; font-size: 70px;'>正确! </span>","null","","","","","","","","","","","","","","","","","","","","","","","feedback_test"
"","","","","","psychophysics","213","441709","0.0-13.0-1.0-1.0-0.0-0.27","814","","j","","","","","","","","","","","","","key","j","16.66693162393177","731.4285714285714","453.42857142857144","j","true","img/S_ambi40.png","坏人","word_first",""
"","","","","","html-keyboard-response","214","442023","0.0-13.0-1.0-1.0-0.0-1.27","null","<span style='color:GreenYellow; font-size: 70px;'>正确! </span>","null","","","","","","","","","","","","","","","","","","","","","","","feedback_test"
"","","","","","psychophysics","215","443868","0.0-13.0-1.0-1.0-0.0-0.28","693","","j","","","","","","","","","","","","","key","j","16.666798165137454","731.4285714285714","453.42857142857144","j","true","img/T_ambi40.png","常人","word_first",""
"","","","","","html-keyboard-response","216","444186","0.0-13.0-1.0-1.0-0.0-1.28","null","<span style='color:GreenYellow; font-size: 70px;'>正确! </span>","null","","","","","","","","","","","","","","","","","","","","","","","feedback_test"
"","","","","","psychophysics","217","446009","0.0-13.0-1.0-1.0-0.0-0.29","665","","j","","","","","","","","","","","","","key","j","16.666851851852023","731.4285714285714","453.42857142857144","j","true","img/S_ambi40.png","好人","word_first",""
"","","","","","html-keyboard-response","218","446316","0.0-13.0-1.0-1.0-0.0-1.29","null","<span style='color:GreenYellow; font-size: 70px;'>正确! </span>","null","","","","","","","","","","","","","","","","","","","","","","","feedback_test"
"","","","","","psychophysics","219","448023","0.0-13.0-1.0-1.0-0.0-0.30","556","","j","","","","","","","","","","","","","key","j","16.666039215686148","731.4285714285714","453.42857142857144","f","false","img/S_ambi40.png","常人","word_first",""
"","","","","","html-keyboard-response","220","448334","0.0-13.0-1.0-1.0-0.0-1.30","null","<span style='color:red; font-size: 70px;'>错误! </span>","null","","","","","","","","","","","","","","","","","","","","","","","feedback_test"
"","","","","","psychophysics","221","449975","0.0-13.0-1.0-1.0-0.0-0.31","490","","f","","","","","","","","","","","","","key","f","16.666567010309347","731.4285714285714","453.42857142857144","f","true","img/S_ambi40.png","常人","word_first",""
"","","","","","html-keyboard-response","222","450284","0.0-13.0-1.0-1.0-0.0-1.31","null","<span style='color:GreenYellow; font-size: 70px;'>正确! </span>","null","","","","","","","","","","","","","","","","","","","","","","","feedback_test"
"","","","","","psychophysics","223","452088","0.0-13.0-1.0-1.0-0.0-0.32","653","","f","","","","","","","","","","","","","key","f","16.666373831775392","731.4285714285714","453.42857142857144","f","true","img/C_ambi40.png","好人","word_first",""
"","","","","","html-keyboard-response","224","452405","0.0-13.0-1.0-1.0-0.0-1.32","null","<span style='color:GreenYellow; font-size: 70px;'>正确! </span>","null","","","","","","","","","","","","","","","","","","","","","","","feedback_test"
"","","","","","psychophysics","225","454244","0.0-13.0-1.0-1.0-0.0-0.33","684","","f","","","","","","","","","","","","","key","f","16.667422018348724","731.4285714285714","453.42857142857144","f","true","img/T_ambi40.png","坏人","word_first",""
"","","","","","html-keyboard-response","226","454555","0.0-13.0-1.0-1.0-0.0-1.33","null","<span style='color:GreenYellow; font-size: 70px;'>正确! </span>","null","","","","","","","","","","","","","","","","","","","","","","","feedback_test"
"","","","","","psychophysics","227","456258","0.0-13.0-1.0-1.0-0.0-0.34","546","","j","","","","","","","","","","","","","key","j","16.666722772277012","731.4285714285714","453.42857142857144","j","true","img/C_ambi40.png","坏人","word_first",""
"","","","","","html-keyboard-response","228","456572","0.0-13.0-1.0-1.0-0.0-1.34","null","<span style='color:GreenYellow; font-size: 70px;'>正确! </span>","null","","","","","","","","","","","","","","","","","","","","","","","feedback_test"
"","","","","","psychophysics","229","458901","0.0-13.0-1.0-1.0-0.0-0.35","1174","","f","","","","","","","","","","","","","key","f","16.666230215827547","731.4285714285714","453.42857142857144","f","true","img/T_ambi40.png","坏人","word_first",""
"","","","","","html-keyboard-response","230","459219","0.0-13.0-1.0-1.0-0.0-1.35","null","<span style='color:GreenYellow; font-size: 70px;'>正确! </span>","null","","","","","","","","","","","","","","","","","","","","","","","feedback_test"
"","","","","","psychophysics","231","461161","0.0-13.0-1.0-1.0-0.0-0.36","785","","f","","","","","","","","","","","","","key","f","16.666695652174276","731.4285714285714","453.42857142857144","f","true","img/T_ambi40.png","坏人","word_first",""
"","","","","","html-keyboard-response","232","461478","0.0-13.0-1.0-1.0-0.0-1.36","null","<span style='color:GreenYellow; font-size: 70px;'>正确! </span>","null","","","","","","","","","","","","","","","","","","","","","","","feedback_test"
"","","","","","psychophysics","233","463158","0.0-13.0-1.0-1.0-0.0-0.37","525","","j","","","","","","","","","","","","","key","j","16.666809999999824","731.4285714285714","453.42857142857144","j","true","img/C_ambi40.png","坏人","word_first",""
"","","","","","html-keyboard-response","234","463478","0.0-13.0-1.0-1.0-0.0-1.37","null","<span style='color:GreenYellow; font-size: 70px;'>正确! </span>","null","","","","","","","","","","","","","","","","","","","","","","","feedback_test"
"","","","","","psychophysics","235","465322","0.0-13.0-1.0-1.0-0.0-0.38","690","","f","","","","","","","","","","","","","key","f","16.667590909090887","731.4285714285714","453.42857142857144","f","true","img/S_ambi40.png","常人","word_first",""
"","","","","","html-keyboard-response","236","465638","0.0-13.0-1.0-1.0-0.0-1.38","null","<span style='color:GreenYellow; font-size: 70px;'>正确! </span>","null","","","","","","","","","","","","","","","","","","","","","","","feedback_test"
"","","","","","psychophysics","237","467545","0.0-13.0-1.0-1.0-0.0-0.39","754","","j","","","","","","","","","","","","","key","j","16.66661061946894","731.4285714285714","453.42857142857144","j","true","img/S_ambi40.png","好人","word_first",""
"","","","","","html-keyboard-response","238","467851","0.0-13.0-1.0-1.0-0.0-1.39","null","<span style='color:GreenYellow; font-size: 70px;'>正确! </span>","null","","","","","","","","","","","","","","","","","","","","","","","feedback_test"
"","","","","","psychophysics","239","469559","0.0-13.0-1.0-1.0-0.0-0.40","558","","f","","","","","","","","","","","","","key","f","16.666306930692695","731.4285714285714","453.42857142857144","f","true","img/S_ambi40.png","常人","word_first",""
"","","","","","html-keyboard-response","240","469870","0.0-13.0-1.0-1.0-0.0-1.40","null","<span style='color:GreenYellow; font-size: 70px;'>正确! </span>","null","","","","","","","","","","","","","","","","","","","","","","","feedback_test"
"","","","","","psychophysics","241","471566","0.0-13.0-1.0-1.0-0.0-0.41","542","","j","","","","","","","","","","","","","key","j","16.66621999999974","731.4285714285714","453.42857142857144","j","true","img/C_ambi40.png","常人","word_first",""
"","","","","","html-keyboard-response","242","471875","0.0-13.0-1.0-1.0-0.0-1.41","null","<span style='color:GreenYellow; font-size: 70px;'>正确! </span>","null","","","","","","","","","","","","","","","","","","","","","","","feedback_test"
"","","","","","psychophysics","243","473601","0.0-13.0-1.0-1.0-0.0-0.42","570","","f","","","","","","","","","","","","","key","f","16.666563106796282","731.4285714285714","453.42857142857144","f","true","img/C_ambi40.png","好人","word_first",""
"","","","","","html-keyboard-response","244","473909","0.0-13.0-1.0-1.0-0.0-1.42","null","<span style='color:GreenYellow; font-size: 70px;'>正确! </span>","null","","","","","","","","","","","","","","","","","","","","","","","feedback_test"
"","","","","","psychophysics","245","475637","0.0-13.0-1.0-1.0-0.0-0.43","574","","j","","","","","","","","","","","","","key","j","16.66693203883456","731.4285714285714","453.42857142857144","j","true","img/T_ambi40.png","好人","word_first",""
"","","","","","html-keyboard-response","246","475955","0.0-13.0-1.0-1.0-0.0-1.43","null","<span style='color:GreenYellow; font-size: 70px;'>正确! </span>","null","","","","","","","","","","","","","","","","","","","","","","","feedback_test"
"","","","","","psychophysics","247","477992","0.0-13.0-1.0-1.0-0.0-0.44","880","","f","","","","","","","","","","","","","key","f","16.66686885245908","731.4285714285714","453.42857142857144","f","true","img/T_ambi40.png","坏人","word_first",""
"","","","","","html-keyboard-response","248","478303","0.0-13.0-1.0-1.0-0.0-1.44","null","<span style='color:GreenYellow; font-size: 70px;'>正确! </span>","null","","","","","","","","","","","","","","","","","","","","","","","feedback_test"
"","","","","","psychophysics","249","480290","0.0-13.0-1.0-1.0-0.0-0.45","834","","f","","","","","","","","","","","","","key","f","16.666161016949307","731.4285714285714","453.42857142857144","f","true","img/C_ambi40.png","好人","word_first",""
"","","","","","html-keyboard-response","250","480598","0.0-13.0-1.0-1.0-0.0-1.45","null","<span style='color:GreenYellow; font-size: 70px;'>正确! </span>","null","","","","","","","","","","","","","","","","","","","","","","","feedback_test"
"","","","","","psychophysics","251","482665","0.0-13.0-1.0-1.0-0.0-0.46","914","","j","","","","","","","","","","","","","key","j","16.560147540983515","731.4285714285714","453.42857142857144","j","true","img/S_ambi40.png","坏人","word_first",""
"","","","","","html-keyboard-response","252","482972","0.0-13.0-1.0-1.0-0.0-1.46","null","<span style='color:GreenYellow; font-size: 70px;'>正确! </span>","null","","","","","","","","","","","","","","","","","","","","","","","feedback_test"
"","","","","","psychophysics","253","485077","0.0-13.0-1.0-1.0-0.0-0.47","949","","j","","","","","","","","","","","","","key","j","16.666527999999932","731.4285714285714","453.42857142857144","j","true","img/T_ambi40.png","常人","word_first",""
"","","","","","html-keyboard-response","254","485385","0.0-13.0-1.0-1.0-0.0-1.47","null","<span style='color:GreenYellow; font-size: 70px;'>正确! </span>","null","","","","","","","","","","","","","","","","","","","","","","","feedback_test"
"","","","","","psychophysics","255","487108","0.0-13.0-1.0-1.0-0.0-0.48","565","","f","","","","","","","","","","","","","key","f","16.666186274509812","731.4285714285714","453.42857142857144","f","true","img/T_ambi40.png","坏人","word_first",""
"","","","","","html-keyboard-response","256","487430","0.0-13.0-1.0-1.0-0.0-1.48","null","<span style='color:GreenYellow; font-size: 70px;'>正确! </span>","null","","","","","","","","","","","","","","","","","","","","","","","feedback_test"
"","","","","","psychophysics","257","489185","0.0-13.0-1.0-1.0-0.0-0.49","601","","f","","","","","","","","","","","","","key","f","16.666647619047822","731.4285714285714","453.42857142857144","j","false","img/S_ambi40.png","好人","word_first",""
"","","","","","html-keyboard-response","258","489494","0.0-13.0-1.0-1.0-0.0-1.49","null","<span style='color:red; font-size: 70px;'>错误! </span>","null","","","","","","","","","","","","","","","","","","","","","","","feedback_test"
"","","","","","psychophysics","259","491320","0.0-13.0-1.0-1.0-0.0-0.50","672","","j","","","","","","","","","","","","","key","j","16.666926605504653","731.4285714285714","453.42857142857144","j","true","img/C_ambi40.png","坏人","word_first",""
"","","","","","html-keyboard-response","260","491638","0.0-13.0-1.0-1.0-0.0-1.50","null","<span style='color:GreenYellow; font-size: 70px;'>正确! </span>","null","","","","","","","","","","","","","","","","","","","","","","","feedback_test"
"","","","","","psychophysics","261","493716","0.0-13.0-1.0-1.0-0.0-0.51","924","","j","","","","","","","","","","","","","key","j","16.67228455284546","731.4285714285714","453.42857142857144","j","true","img/S_ambi40.png","坏人","word_first",""
"","","","","","html-keyboard-response","262","494032","0.0-13.0-1.0-1.0-0.0-1.51","null","<span style='color:GreenYellow; font-size: 70px;'>正确! </span>","null","","","","","","","","","","","","","","","","","","","","","","","feedback_test"
"","","","","","psychophysics","263","495843","0.0-13.0-1.0-1.0-0.0-0.52","659","","f","","","","","","","","","","","","","key","f","16.5444299065422","731.4285714285714","453.42857142857144","f","true","img/S_ambi40.png","常人","word_first",""
"","","","","","html-keyboard-response","264","496154","0.0-13.0-1.0-1.0-0.0-1.52","null","<span style='color:GreenYellow; font-size: 70px;'>正确! </span>","null","","","","","","","","","","","","","","","","","","","","","","","feedback_test"
"","","","","","psychophysics","265","497881","0.0-13.0-1.0-1.0-0.0-0.53","568","","f","","","","","","","","","","","","","key","f","16.665450980392052","731.4285714285714","453.42857142857144","f","true","img/S_ambi40.png","常人","word_first",""
"","","","","","html-keyboard-response","266","498183","0.0-13.0-1.0-1.0-0.0-1.53","null","<span style='color:GreenYellow; font-size: 70px;'>正确! </span>","null","","","","","","","","","","","","","","","","","","","","","","","feedback_test"
"","","","","","psychophysics","267","500013","0.0-13.0-1.0-1.0-0.0-0.54","679","","j","","","","","","","","","","","","","key","j","16.666675925925826","731.4285714285714","453.42857142857144","j","true","img/C_ambi40.png","常人","word_first",""
"","","","","","html-keyboard-response","268","500320","0.0-13.0-1.0-1.0-0.0-1.54","null","<span style='color:GreenYellow; font-size: 70px;'>正确! </span>","null","","","","","","","","","","","","","","","","","","","","","","","feedback_test"
"","","","","","psychophysics","269","502143","0.0-13.0-1.0-1.0-0.0-0.55","672","","j","","","","","","","","","","","","","key","j","16.66650925925933","731.4285714285714","453.42857142857144","j","true","img/T_ambi40.png","好人","word_first",""
"","","","","","html-keyboard-response","270","502449","0.0-13.0-1.0-1.0-0.0-1.55","null","<span style='color:GreenYellow; font-size: 70px;'>正确! </span>","null","","","","","","","","","","","","","","","","","","","","","","","feedback_test"
"","","","","","psychophysics","271","504213","0.0-13.0-1.0-1.0-0.0-0.56","613","","f","","","","","","","","","","","","","key","f","16.532711538461555","731.4285714285714","453.42857142857144","f","true","img/T_ambi40.png","坏人","word_first",""
"","","","","","html-keyboard-response","272","504531","0.0-13.0-1.0-1.0-0.0-1.56","null","<span style='color:GreenYellow; font-size: 70px;'>正确! </span>","null","","","","","","","","","","","","","","","","","","","","","","","feedback_test"
"","","","","","psychophysics","273","506242","0.0-13.0-1.0-1.0-0.0-0.57","559","","f","","","","","","","","","","","","","key","f","16.666519607843","731.4285714285714","453.42857142857144","f","true","img/C_ambi40.png","好人","word_first",""
"","","","","","html-keyboard-response","274","506546","0.0-13.0-1.0-1.0-0.0-1.57","null","<span style='color:GreenYellow; font-size: 70px;'>正确! </span>","null","","","","","","","","","","","","","","","","","","","","","","","feedback_test"
"","","","","","psychophysics","275","508301","0.0-13.0-1.0-1.0-0.0-0.58","601","","f","","","","","","","","","","","","","key","f","16.666514285714253","731.4285714285714","453.42857142857144","f","true","img/C_ambi40.png","好人","word_first",""
"","","","","","html-keyboard-response","276","508608","0.0-13.0-1.0-1.0-0.0-1.58","null","<span style='color:GreenYellow; font-size: 70px;'>正确! </span>","null","","","","","","","","","","","","","","","","","","","","","","","feedback_test"
"","","","","","psychophysics","277","510294","0.0-13.0-1.0-1.0-0.0-0.59","528","","j","","","","","","","","","","","","","key","j","16.666539999999806","731.4285714285714","453.42857142857144","j","true","img/T_ambi40.png","常人","word_first",""
"","","","","","html-keyboard-response","278","510613","0.0-13.0-1.0-1.0-0.0-1.59","null","<span style='color:GreenYellow; font-size: 70px;'>正确! </span>","null","","","","","","","","","","","","","","","","","","","","","","","feedback_test"
"","","","","","html-keyboard-response","279","519326","0.0-13.0-1.0-1.0-1.0","8711","<style>.context{color:white; font-size: 35px; line-height:40px}</style>                              <div><p class='context'>您正确回答了95% 的试次。</p><p class='context'>您的平均反应时为685毫秒。</p><p class='context'>请按任意键进入休息</p></div>"," ","","","","","","","","","","","","","","","","","","","","","","",""
"","","","","","html-button-response","280","557650","0.0-13.0-1.0-1.0-2.0","38322","
                      <p>您当前还剩余3组实验</p>
                      <p>现在是休息时间，当您结束休息后，您可以点击 结束休息 按钮 继续</p>
                      <p>建议休息时间还剩余<span id=""iii"">60</span>秒</p>","0","","","","","","","","","","","","","","","","","","","","","","",""
"","","","","","psychophysics","281","559692","0.0-13.0-1.0-1.0-0.1-0.60","876","","j","","","","","","","","","","","","","key","j","16.56612396694254","731.4285714285714","453.42857142857144","j","true","img/S_ambi40.png","坏人","word_first",""
"","","","","","html-keyboard-response","282","560002","0.0-13.0-1.0-1.0-0.1-1.60","null","<span style='color:GreenYellow; font-size: 70px;'>正确! </span>","null","","","","","","","","","","","","","","","","","","","","","","","feedback_test"
"","","","","","psychophysics","283","561644","0.0-13.0-1.0-1.0-0.1-0.61","486","","f","","","","","","","","","","","","","key","f","16.666484536082226","731.4285714285714","453.42857142857144","f","true","img/C_ambi40.png","好人","word_first",""
"","","","","","html-keyboard-response","284","561962","0.0-13.0-1.0-1.0-0.1-1.61","null","<span style='color:GreenYellow; font-size: 70px;'>正确! </span>","null","","","","","","","","","","","","","","","","","","","","","","","feedback_test"
"","","","","","psychophysics","285","563771","0.0-13.0-1.0-1.0-0.1-0.62","655","","f","","","","","","","","","","","","","key","f","16.666648148147267","731.4285714285714","453.42857142857144","f","true","img/T_ambi40.png","坏人","word_first",""
"","","","","","html-keyboard-response","286","564088","0.0-13.0-1.0-1.0-0.1-1.62","null","<span style='color:GreenYellow; font-size: 70px;'>正确! </span>","null","","","","","","","","","","","","","","","","","","","","","","","feedback_test"
"","","","","","psychophysics","287","565731","0.0-13.0-1.0-1.0-0.1-0.63","484","","f","","","","","","","","","","","","","key","f","16.66616494845378","731.4285714285714","453.42857142857144","f","true","img/T_ambi40.png","坏人","word_first",""
"","","","","","html-keyboard-response","288","566047","0.0-13.0-1.0-1.0-0.1-1.63","null","<span style='color:GreenYellow; font-size: 70px;'>正确! </span>","null","","","","","","","","","","","","","","","","","","","","","","","feedback_test"
"","","","","","psychophysics","289","567769","0.0-13.0-1.0-1.0-0.1-0.64","570","","j","","","","","","","","","","","","","key","j","16.543274509803823","731.4285714285714","453.42857142857144","j","true","img/C_ambi40.png","常人","word_first",""
"","","","","","html-keyboard-response","290","568080","0.0-13.0-1.0-1.0-0.1-1.64","null","<span style='color:GreenYellow; font-size: 70px;'>正确! </span>","null","","","","","","","","","","","","","","","","","","","","","","","feedback_test"
"","","","","","psychophysics","291","570051","0.0-13.0-1.0-1.0-0.1-0.65","818","","j","","","","","","","","","","","","","key","j","16.666669491525557","731.4285714285714","453.42857142857144","j","true","img/S_ambi40.png","好人","word_first",""
"","","","","","html-keyboard-response","292","570362","0.0-13.0-1.0-1.0-0.1-1.65","null","<span style='color:GreenYellow; font-size: 70px;'>正确! </span>","null","","","","","","","","","","","","","","","","","","","","","","","feedback_test"
"","","","","","psychophysics","293","572127","0.0-13.0-1.0-1.0-0.1-0.66","611","","j","","","","","","","","","","","","","key","j","16.66685714285732","731.4285714285714","453.42857142857144","j","true","img/T_ambi40.png","常人","word_first",""
"","","","","","html-keyboard-response","294","572444","0.0-13.0-1.0-1.0-0.1-1.66","null","<span style='color:GreenYellow; font-size: 70px;'>正确! </span>","null","","","","","","","","","","","","","","","","","","","","","","","feedback_test"
"","","","","","psychophysics","295","574245","0.0-13.0-1.0-1.0-0.1-0.67","646","","f","","","","","","","","","","","","","key","f","16.667065420560103","731.4285714285714","453.42857142857144","f","true","img/S_ambi40.png","常人","word_first",""
"","","","","","html-keyboard-response","296","574561","0.0-13.0-1.0-1.0-0.1-1.67","null","<span style='color:GreenYellow; font-size: 70px;'>正确! </span>","null","","","","","","","","","","","","","","","","","","","","","","","feedback_test"
"","","","","","psychophysics","297","576109","0.0-13.0-1.0-1.0-0.1-0.68","393","","j","","","","","","","","","","","","","key","j","16.666934782608777","731.4285714285714","453.42857142857144","j","true","img/C_ambi40.png","坏人","word_first",""
"","","","","","html-keyboard-response","298","576425","0.0-13.0-1.0-1.0-0.1-1.68","null","<span style='color:GreenYellow; font-size: 70px;'>正确! </span>","null","","","","","","","","","","","","","","","","","","","","","","","feedback_test"
"","","","","","psychophysics","299","578104","0.0-13.0-1.0-1.0-0.1-0.69","521","","f","","","","","","","","","","","","","key","f","16.666629999999422","731.4285714285714","453.42857142857144","f","true","img/S_ambi40.png","常人","word_first",""
"","","","","","html-keyboard-response","300","578409","0.0-13.0-1.0-1.0-0.1-1.69","null","<span style='color:GreenYellow; font-size: 70px;'>正确! </span>","null","","","","","","","","","","","","","","","","","","","","","","","feedback_test"
"","","","","","psychophysics","301","580173","0.0-13.0-1.0-1.0-0.1-0.70","607","","f","","","","","","","","","","","","","key","f","16.667133333333325","731.4285714285714","453.42857142857144","f","true","img/C_ambi40.png","好人","word_first",""
"","","","","","html-keyboard-response","302","580485","0.0-13.0-1.0-1.0-0.1-1.70","null","<span style='color:GreenYellow; font-size: 70px;'>正确! </span>","null","","","","","","","","","","","","","","","","","","","","","","","feedback_test"
"","","","","","psychophysics","303","582114","0.0-13.0-1.0-1.0-0.1-0.71","474","","j","","","","","","","","","","","","","key","j","16.666666666666668","731.4285714285714","453.42857142857144","j","true","img/T_ambi40.png","好人","word_first",""
"","","","","","html-keyboard-response","304","582422","0.0-13.0-1.0-1.0-0.1-1.71","null","<span style='color:GreenYellow; font-size: 70px;'>正确! </span>","null","","","","","","","","","","","","","","","","","","","","","","","feedback_test"
"","","","","","psychophysics","305","584109","0.0-13.0-1.0-1.0-0.1-0.72","534","","j","","","","","","","","","","","","","key","j","16.66697999999975","731.4285714285714","453.42857142857144","f","false","img/T_ambi40.png","坏人","word_first",""
"","","","","","html-keyboard-response","306","584422","0.0-13.0-1.0-1.0-0.1-1.72","null","<span style='color:red; font-size: 70px;'>错误! </span>","null","","","","","","","","","","","","","","","","","","","","","","","feedback_test"
"","","","","","psychophysics","307","586081","0.0-13.0-1.0-1.0-0.1-0.73","507","","f","","","","","","","","","","","","","key","f","16.666948979592178","731.4285714285714","453.42857142857144","f","true","img/S_ambi40.png","常人","word_first",""
"","","","","","html-keyboard-response","308","586394","0.0-13.0-1.0-1.0-0.1-1.73","null","<span style='color:GreenYellow; font-size: 70px;'>正确! </span>","null","","","","","","","","","","","","","","","","","","","","","","","feedback_test"
"","","","","","psychophysics","309","588045","0.0-13.0-1.0-1.0-0.1-0.74","496","","j","","","","","","","","","","","","","key","j","16.66701020408132","731.4285714285714","453.42857142857144","j","true","img/S_ambi40.png","坏人","word_first",""
"","","","","","html-keyboard-response","310","588362","0.0-13.0-1.0-1.0-0.1-1.74","null","<span style='color:GreenYellow; font-size: 70px;'>正确! </span>","null","","","","","","","","","","","","","","","","","","","","","","","feedback_test"
"","","","","","psychophysics","311","590116","0.0-13.0-1.0-1.0-0.1-0.75","600","","f","","","","","","","","","","","","","key","f","16.667375000000064","731.4285714285714","453.42857142857144","f","true","img/T_ambi40.png","坏人","word_first",""
"","","","","","html-keyboard-response","312","590424","0.0-13.0-1.0-1.0-0.1-1.75","null","<span style='color:GreenYellow; font-size: 70px;'>正确! </span>","null","","","","","","","","","","","","","","","","","","","","","","","feedback_test"
"","","","","","psychophysics","313","592124","0.0-13.0-1.0-1.0-0.1-0.76","542","","f","","","","","","","","","","","","","key","f","16.666792079208115","731.4285714285714","453.42857142857144","f","true","img/C_ambi40.png","好人","word_first",""
"","","","","","html-keyboard-response","314","592441","0.0-13.0-1.0-1.0-0.1-1.76","null","<span style='color:GreenYellow; font-size: 70px;'>正确! </span>","null","","","","","","","","","","","","","","","","","","","","","","","feedback_test"
"","","","","","psychophysics","315","594101","0.0-13.0-1.0-1.0-0.1-0.77","502","","j","","","","","","","","","","","","","key","j","16.666575757576144","731.4285714285714","453.42857142857144","j","true","img/T_ambi40.png","常人","word_first",""
"","","","","","html-keyboard-response","316","594408","0.0-13.0-1.0-1.0-0.1-1.77","null","<span style='color:GreenYellow; font-size: 70px;'>正确! </span>","null","","","","","","","","","","","","","","","","","","","","","","","feedback_test"
"","","","","","psychophysics","317","596331","0.0-13.0-1.0-1.0-0.1-0.78","765","","j","","","","","","","","","","","","","key","j","16.66658771929858","731.4285714285714","453.42857142857144","j","true","img/S_ambi40.png","好人","word_first",""
"","","","","","html-keyboard-response","318","596645","0.0-13.0-1.0-1.0-0.1-1.78","null","<span style='color:GreenYellow; font-size: 70px;'>正确! </span>","null","","","","","","","","","","","","","","","","","","","","","","","feedback_test"
"","","","","","psychophysics","319","598305","0.0-13.0-1.0-1.0-0.1-0.79","506","","f","","","","","","","","","","","","","key","f","16.66705050504992","731.4285714285714","453.42857142857144","f","true","img/C_ambi40.png","好人","word_first",""
"","","","","","html-keyboard-response","320","598620","0.0-13.0-1.0-1.0-0.1-1.79","null","<span style='color:GreenYellow; font-size: 70px;'>正确! </span>","null","","","","","","","","","","","","","","","","","","","","","","","feedback_test"
"","","","","","psychophysics","321","600291","0.0-13.0-1.0-1.0-0.1-0.80","515","","j","","","","","","","","","","","","","key","j","16.66652525252559","731.4285714285714","453.42857142857144","j","true","img/C_ambi40.png","坏人","word_first",""
"","","","","","html-keyboard-response","322","600606","0.0-13.0-1.0-1.0-0.1-1.80","null","<span style='color:GreenYellow; font-size: 70px;'>正确! </span>","null","","","","","","","","","","","","","","","","","","","","","","","feedback_test"
"","","","","","psychophysics","323","602903","0.0-13.0-1.0-1.0-0.1-0.81","1144","","j","","","","","","","","","","","","","key","j","16.666781021898142","731.4285714285714","453.42857142857144","j","true","img/T_ambi40.png","好人","word_first",""
"","","","","","html-keyboard-response","324","603209","0.0-13.0-1.0-1.0-0.1-1.81","null","<span style='color:GreenYellow; font-size: 70px;'>正确! </span>","null","","","","","","","","","","","","","","","","","","","","","","","feedback_test"
"","","","","","psychophysics","325","604994","0.0-13.0-1.0-1.0-0.1-0.82","628","","j","","","","","","","","","","","","","key","j","16.66691509433934","731.4285714285714","453.42857142857144","j","true","img/C_ambi40.png","常人","word_first",""
"","","","","","html-keyboard-response","326","605295","0.0-13.0-1.0-1.0-0.1-1.82","null","<span style='color:GreenYellow; font-size: 70px;'>正确! </span>","null","","","","","","","","","","","","","","","","","","","","","","","feedback_test"
"","","","","","psychophysics","327","607373","0.0-13.0-1.0-1.0-0.1-0.83","925","","f","","","","","","","","","","","","","key","f","16.667129032257495","731.4285714285714","453.42857142857144","f","true","img/S_ambi40.png","常人","word_first",""
"","","","","","html-keyboard-response","328","607679","0.0-13.0-1.0-1.0-0.1-1.83","null","<span style='color:GreenYellow; font-size: 70px;'>正确! </span>","null","","","","","","","","","","","","","","","","","","","","","","","feedback_test"
"","","","","","psychophysics","329","609367","0.0-13.0-1.0-1.0-0.1-0.84","535","","f","","","","","","","","","","","","","key","f","16.666960396039723","731.4285714285714","453.42857142857144","j","false","img/T_ambi40.png","好人","word_first",""
"","","","","","html-keyboard-response","330","609673","0.0-13.0-1.0-1.0-0.1-1.84","null","<span style='color:red; font-size: 70px;'>错误! </span>","null","","","","","","","","","","","","","","","","","","","","","","","feedback_test"
"","","","","","psychophysics","331","611224","0.0-13.0-1.0-1.0-0.1-0.85","394","","f","","","","","","","","","","","","","key","f","16.666521739131145","731.4285714285714","453.42857142857144","f","true","img/C_ambi40.png","好人","word_first",""
"","","","","","html-keyboard-response","332","611541","0.0-13.0-1.0-1.0-0.1-1.85","null","<span style='color:GreenYellow; font-size: 70px;'>正确! </span>","null","","","","","","","","","","","","","","","","","","","","","","","feedback_test"
"","","","","","psychophysics","333","613339","0.0-13.0-1.0-1.0-0.1-0.86","642","","j","","","","","","","","","","","","","key","j","16.666953271027506","731.4285714285714","453.42857142857144","j","true","img/C_ambi40.png","坏人","word_first",""
"","","","","","html-keyboard-response","334","613655","0.0-13.0-1.0-1.0-0.1-1.86","null","<span style='color:GreenYellow; font-size: 70px;'>正确! </span>","null","","","","","","","","","","","","","","","","","","","","","","","feedback_test"
"","","","","","psychophysics","335","615308","0.0-13.0-1.0-1.0-0.1-0.87","502","","f","","","","","","","","","","","","","key","f","16.665020408163475","731.4285714285714","453.42857142857144","f","true","img/S_ambi40.png","常人","word_first",""
"","","","","","html-keyboard-response","336","615620","0.0-13.0-1.0-1.0-0.1-1.87","null","<span style='color:GreenYellow; font-size: 70px;'>正确! </span>","null","","","","","","","","","","","","","","","","","","","","","","","feedback_test"
"","","","","","psychophysics","337","617346","0.0-13.0-1.0-1.0-0.1-0.88","571","","j","","","","","","","","","","","","","key","j","16.66675490196041","731.4285714285714","453.42857142857144","j","true","img/T_ambi40.png","常人","word_first",""
"","","","","","html-keyboard-response","338","617666","0.0-13.0-1.0-1.0-0.1-1.88","null","<span style='color:GreenYellow; font-size: 70px;'>正确! </span>","null","","","","","","","","","","","","","","","","","","","","","","","feedback_test"
"","","","","","psychophysics","339","619673","0.0-13.0-1.0-1.0-0.1-0.89","850","","j","","","","","","","","","","","","","key","j","16.663907563025248","731.4285714285714","453.42857142857144","j","true","img/S_ambi40.png","好人","word_first",""
"","","","","","html-keyboard-response","340","619979","0.0-13.0-1.0-1.0-0.1-1.89","null","<span style='color:GreenYellow; font-size: 70px;'>正确! </span>","null","","","","","","","","","","","","","","","","","","","","","","","feedback_test"
"","","","","","psychophysics","341","621786","0.0-13.0-1.0-1.0-0.1-0.90","653","","f","","","","","","","","","","","","","key","f","16.668370370370447","731.4285714285714","453.42857142857144","f","true","img/T_ambi40.png","坏人","word_first",""
"","","","","","html-keyboard-response","342","622099","0.0-13.0-1.0-1.0-0.1-1.90","null","<span style='color:GreenYellow; font-size: 70px;'>正确! </span>","null","","","","","","","","","","","","","","","","","","","","","","","feedback_test"
"","","","","","psychophysics","343","623715","0.0-13.0-1.0-1.0-0.1-0.91","465","","j","","","","","","","","","","","","","key","j","16.66625263157889","731.4285714285714","453.42857142857144","j","true","img/S_ambi40.png","坏人","word_first",""
"","","","","","html-keyboard-response","344","624027","0.0-13.0-1.0-1.0-0.1-1.91","null","<span style='color:GreenYellow; font-size: 70px;'>正确! </span>","null","","","","","","","","","","","","","","","","","","","","","","","feedback_test"
"","","","","","psychophysics","345","625858","0.0-13.0-1.0-1.0-0.1-0.92","675","","f","","","","","","","","","","","","","key","f","16.667412844036892","731.4285714285714","453.42857142857144","f","true","img/T_ambi40.png","坏人","word_first",""
"","","","","","html-keyboard-response","346","626173","0.0-13.0-1.0-1.0-0.1-1.92","null","<span style='color:GreenYellow; font-size: 70px;'>正确! </span>","null","","","","","","","","","","","","","","","","","","","","","","","feedback_test"
"","","","","","psychophysics","347","627864","0.0-13.0-1.0-1.0-0.1-0.93","537","","f","","","","","","","","","","","","","key","f","16.66643999999971","731.4285714285714","453.42857142857144","f","true","img/S_ambi40.png","常人","word_first",""
"","","","","","html-keyboard-response","348","628174","0.0-13.0-1.0-1.0-0.1-1.93","null","<span style='color:GreenYellow; font-size: 70px;'>正确! </span>","null","","","","","","","","","","","","","","","","","","","","","","","feedback_test"
"","","","","","psychophysics","349","629990","0.0-13.0-1.0-1.0-0.1-0.94","662","","f","","","","","","","","","","","","","key","f","16.66728703703632","731.4285714285714","453.42857142857144","f","true","img/C_ambi40.png","好人","word_first",""
"","","","","","html-keyboard-response","350","630310","0.0-13.0-1.0-1.0-0.1-1.94","null","<span style='color:GreenYellow; font-size: 70px;'>正确! </span>","null","","","","","","","","","","","","","","","","","","","","","","","feedback_test"
"","","","","","psychophysics","351","631981","0.0-13.0-1.0-1.0-0.1-0.95","518","","f","","","","","","","","","","","","","key","f","16.666868686868874","731.4285714285714","453.42857142857144","j","false","img/C_ambi40.png","常人","word_first",""
"","","","","","html-keyboard-response","352","632288","0.0-13.0-1.0-1.0-0.1-1.95","null","<span style='color:red; font-size: 70px;'>错误! </span>","null","","","","","","","","","","","","","","","","","","","","","","","feedback_test"
"","","","","","psychophysics","353","633970","0.0-13.0-1.0-1.0-0.1-0.96","522","","f","","","","","","","","","","","","","key","f","16.667430000000167","731.4285714285714","453.42857142857144","f","true","img/C_ambi40.png","好人","word_first",""
"","","","","","html-keyboard-response","354","634279","0.0-13.0-1.0-1.0-0.1-1.96","null","<span style='color:GreenYellow; font-size: 70px;'>正确! </span>","null","","","","","","","","","","","","","","","","","","","","","","","feedback_test"
"","","","","","psychophysics","355","636056","0.0-13.0-1.0-1.0-0.1-0.97","623","","f","","","","","","","","","","","","","key","f","16.667000000000456","731.4285714285714","453.42857142857144","f","true","img/T_ambi40.png","坏人","word_first",""
"","","","","","html-keyboard-response","356","636360","0.0-13.0-1.0-1.0-0.1-1.97","null","<span style='color:GreenYellow; font-size: 70px;'>正确! </span>","null","","","","","","","","","","","","","","","","","","","","","","","feedback_test"
"","","","","","psychophysics","357","638146","0.0-13.0-1.0-1.0-0.1-0.98","635","","j","","","","","","","","","","","","","key","j","16.666716981132268","731.4285714285714","453.42857142857144","j","true","img/C_ambi40.png","常人","word_first",""
"","","","","","html-keyboard-response","358","638450","0.0-13.0-1.0-1.0-0.1-1.98","null","<span style='color:GreenYellow; font-size: 70px;'>正确! </span>","null","","","","","","","","","","","","","","","","","","","","","","","feedback_test"
"","","","","","psychophysics","359","640181","0.0-13.0-1.0-1.0-0.1-0.99","574","","j","","","","","","","","","","","","","key","j","16.664539215686805","731.4285714285714","453.42857142857144","j","true","img/C_ambi40.png","坏人","word_first",""
"","","","","","html-keyboard-response","360","640500","0.0-13.0-1.0-1.0-0.1-1.99","null","<span style='color:GreenYellow; font-size: 70px;'>正确! </span>","null","","","","","","","","","","","","","","","","","","","","","","","feedback_test"
"","","","","","psychophysics","361","642444","0.0-13.0-1.0-1.0-0.1-0.100","793","","j","","","","","","","","","","","","","key","j","16.66649565217389","731.4285714285714","453.42857142857144","j","true","img/T_ambi40.png","常人","word_first",""
"","","","","","html-keyboard-response","362","642757","0.0-13.0-1.0-1.0-0.1-1.100","null","<span style='color:GreenYellow; font-size: 70px;'>正确! </span>","null","","","","","","","","","","","","","","","","","","","","","","","feedback_test"
"","","","","","psychophysics","363","644492","0.0-13.0-1.0-1.0-0.1-0.101","580","","f","","","","","","","","","","","","","key","f","16.666378640776582","731.4285714285714","453.42857142857144","f","true","img/S_ambi40.png","常人","word_first",""
"","","","","","html-keyboard-response","364","644808","0.0-13.0-1.0-1.0-0.1-1.101","null","<span style='color:GreenYellow; font-size: 70px;'>正确! </span>","null","","","","","","","","","","","","","","","","","","","","","","","feedback_test"
"","","","","","psychophysics","365","646508","0.0-13.0-1.0-1.0-0.1-0.102","548","","j","","","","","","","","","","","","","key","j","16.667297029702944","731.4285714285714","453.42857142857144","j","true","img/S_ambi40.png","坏人","word_first",""
"","","","","","html-keyboard-response","366","646819","0.0-13.0-1.0-1.0-0.1-1.102","null","<span style='color:GreenYellow; font-size: 70px;'>正确! </span>","null","","","","","","","","","","","","","","","","","","","","","","","feedback_test"
"","","","","","psychophysics","367","648610","0.0-13.0-1.0-1.0-0.1-0.103","634","","f","","","","","","","","","","","","","key","f","16.666886792452303","731.4285714285714","453.42857142857144","f","true","img/S_ambi40.png","常人","word_first",""
"","","","","","html-keyboard-response","368","648916","0.0-13.0-1.0-1.0-0.1-1.103","null","<span style='color:GreenYellow; font-size: 70px;'>正确! </span>","null","","","","","","","","","","","","","","","","","","","","","","","feedback_test"
"","","","","","psychophysics","369","651202","0.0-13.0-1.0-1.0-0.1-0.104","1135","","f","","","","","","","","","","","","","key","f","16.666639705881927","731.4285714285714","453.42857142857144","f","true","img/T_ambi40.png","坏人","word_first",""
"","","","","","html-keyboard-response","370","651519","0.0-13.0-1.0-1.0-0.1-1.104","null","<span style='color:GreenYellow; font-size: 70px;'>正确! </span>","null","","","","","","","","","","","","","","","","","","","","","","","feedback_test"
"","","","","","psychophysics","371","653305","0.0-13.0-1.0-1.0-0.1-0.105","632","","j","","","","","","","","","","","","","key","j","16.666867924527978","731.4285714285714","453.42857142857144","j","true","img/T_ambi40.png","好人","word_first",""
"","","","","","html-keyboard-response","372","653614","0.0-13.0-1.0-1.0-0.1-1.105","null","<span style='color:GreenYellow; font-size: 70px;'>正确! </span>","null","","","","","","","","","","","","","","","","","","","","","","","feedback_test"
"","","","","","psychophysics","373","655579","0.0-13.0-1.0-1.0-0.1-0.106","811","","j","","","","","","","","","","","","","key","j","16.552499999999718","731.4285714285714","453.42857142857144","j","true","img/S_ambi40.png","好人","word_first",""
"","","","","","html-keyboard-response","374","655898","0.0-13.0-1.0-1.0-0.1-1.106","null","<span style='color:GreenYellow; font-size: 70px;'>正确! </span>","null","","","","","","","","","","","","","","","","","","","","","","","feedback_test"
"","","","","","psychophysics","375","657559","0.0-13.0-1.0-1.0-0.1-0.107","509","","f","","","","","","","","","","","","","key","f","16.667081632653765","731.4285714285714","453.42857142857144","f","true","img/C_ambi40.png","好人","word_first",""
"","","","","","html-keyboard-response","376","657873","0.0-13.0-1.0-1.0-0.1-1.107","null","<span style='color:GreenYellow; font-size: 70px;'>正确! </span>","null","","","","","","","","","","","","","","","","","","","","","","","feedback_test"
"","","","","","psychophysics","377","659798","0.0-13.0-1.0-1.0-0.1-0.108","766","","f","","","","","","","","","","","","","key","f","16.667254385965254","731.4285714285714","453.42857142857144","f","true","img/C_ambi40.png","好人","word_first",""
"","","","","","html-keyboard-response","378","660117","0.0-13.0-1.0-1.0-0.1-1.108","null","<span style='color:GreenYellow; font-size: 70px;'>正确! </span>","null","","","","","","","","","","","","","","","","","","","","","","","feedback_test"
"","","","","","psychophysics","379","661830","0.0-13.0-1.0-1.0-0.1-0.109","556","","f","","","","","","","","","","","","","key","f","16.665752475247903","731.4285714285714","453.42857142857144","f","true","img/T_ambi40.png","坏人","word_first",""
"","","","","","html-keyboard-response","380","662150","0.0-13.0-1.0-1.0-0.1-1.109","null","<span style='color:GreenYellow; font-size: 70px;'>正确! </span>","null","","","","","","","","","","","","","","","","","","","","","","","feedback_test"
"","","","","","psychophysics","381","663949","0.0-13.0-1.0-1.0-0.1-0.110","645","","j","","","","","","","","","","","","","key","j","16.666613207546828","731.4285714285714","453.42857142857144","j","true","img/S_ambi40.png","好人","word_first",""
"","","","","","html-keyboard-response","382","664260","0.0-13.0-1.0-1.0-0.1-1.110","null","<span style='color:GreenYellow; font-size: 70px;'>正确! </span>","null","","","","","","","","","","","","","","","","","","","","","","","feedback_test"
"","","","","","psychophysics","383","666016","0.0-13.0-1.0-1.0-0.1-0.111","600","","j","","","","","","","","","","","","","key","j","16.667355769229918","731.4285714285714","453.42857142857144","j","true","img/T_ambi40.png","常人","word_first",""
"","","","","","html-keyboard-response","384","666335","0.0-13.0-1.0-1.0-0.1-1.111","null","<span style='color:GreenYellow; font-size: 70px;'>正确! </span>","null","","","","","","","","","","","","","","","","","","","","","","","feedback_test"
"","","","","","psychophysics","385","668012","0.0-13.0-1.0-1.0-0.1-0.112","523","","j","","","","","","","","","","","","","key","j","16.66671717171722","731.4285714285714","453.42857142857144","j","true","img/T_ambi40.png","好人","word_first",""
"","","","","","html-keyboard-response","386","668325","0.0-13.0-1.0-1.0-0.1-1.112","null","<span style='color:GreenYellow; font-size: 70px;'>正确! </span>","null","","","","","","","","","","","","","","","","","","","","","","","feedback_test"
"","","","","","psychophysics","387","670082","0.0-13.0-1.0-1.0-0.1-0.113","601","","j","","","","","","","","","","","","","key","j","16.66662500000026","731.4285714285714","453.42857142857144","j","true","img/S_ambi40.png","坏人","word_first",""
"","","","","","html-keyboard-response","388","670389","0.0-13.0-1.0-1.0-0.1-1.113","null","<span style='color:GreenYellow; font-size: 70px;'>正确! </span>","null","","","","","","","","","","","","","","","","","","","","","","","feedback_test"
"","","","","","psychophysics","389","672419","0.0-13.0-1.0-1.0-0.1-0.114","874","","j","","","","","","","","","","","","","key","j","16.666826446280883","731.4285714285714","453.42857142857144","j","true","img/C_ambi40.png","常人","word_first",""
"","","","","","html-keyboard-response","390","672734","0.0-13.0-1.0-1.0-0.1-1.114","null","<span style='color:GreenYellow; font-size: 70px;'>正确! </span>","null","","","","","","","","","","","","","","","","","","","","","","","feedback_test"
"","","","","","psychophysics","391","674596","0.0-13.0-1.0-1.0-0.1-0.115","709","","f","","","","","","","","","","","","","key","f","16.67134545454544","731.4285714285714","453.42857142857144","f","true","img/C_ambi40.png","好人","word_first",""
"","","","","","html-keyboard-response","392","674905","0.0-13.0-1.0-1.0-0.1-1.115","null","<span style='color:GreenYellow; font-size: 70px;'>正确! </span>","null","","","","","","","","","","","","","","","","","","","","","","","feedback_test"
"","","","","","psychophysics","393","676665","0.0-13.0-1.0-1.0-0.1-0.116","602","","f","","","","","","","","","","","","","key","f","16.66646153846187","731.4285714285714","453.42857142857144","f","true","img/T_ambi40.png","坏人","word_first",""
"","","","","","html-keyboard-response","394","676969","0.0-13.0-1.0-1.0-0.1-1.116","null","<span style='color:GreenYellow; font-size: 70px;'>正确! </span>","null","","","","","","","","","","","","","","","","","","","","","","","feedback_test"
"","","","","","psychophysics","395","678657","0.0-13.0-1.0-1.0-0.1-0.117","530","","f","","","","","","","","","","","","","key","f","16.666579999999374","731.4285714285714","453.42857142857144","f","true","img/S_ambi40.png","常人","word_first",""
"","","","","","html-keyboard-response","396","678971","0.0-13.0-1.0-1.0-0.1-1.117","null","<span style='color:GreenYellow; font-size: 70px;'>正确! </span>","null","","","","","","","","","","","","","","","","","","","","","","","feedback_test"
"","","","","","psychophysics","397","680920","0.0-13.0-1.0-1.0-0.1-0.118","793","","j","","","","","","","","","","","","","key","j","16.66676724137907","731.4285714285714","453.42857142857144","j","true","img/C_ambi40.png","坏人","word_first",""
"","","","","","html-keyboard-response","398","681233","0.0-13.0-1.0-1.0-0.1-1.118","null","<span style='color:GreenYellow; font-size: 70px;'>正确! </span>","null","","","","","","","","","","","","","","","","","","","","","","","feedback_test"
"","","","","","psychophysics","399","682977","0.0-13.0-1.0-1.0-0.1-0.119","594","","f","","","","","","","","","","","","","key","f","16.66652427184468","731.4285714285714","453.42857142857144","f","true","img/S_ambi40.png","常人","word_first",""
"","","","","","html-keyboard-response","400","683292","0.0-13.0-1.0-1.0-0.1-1.119","null","<span style='color:GreenYellow; font-size: 70px;'>正确! </span>","null","","","","","","","","","","","","","","","","","","","","","","","feedback_test"
"","","","","","html-keyboard-response","401","684587","0.0-13.0-1.0-1.0-1.1","1293","<style>.context{color:white; font-size: 35px; line-height:40px}</style>                              <div><p class='context'>您正确回答了95% 的试次。</p><p class='context'>您的平均反应时为632毫秒。</p><p class='context'>请按任意键进入休息</p></div>"," ","","","","","","","","","","","","","","","","","","","","","","",""
"","","","","","html-button-response","402","722345","0.0-13.0-1.0-1.0-2.1","37753","
                      <p>您当前还剩余2组实验</p>
                      <p>现在是休息时间，当您结束休息后，您可以点击 结束休息 按钮 继续</p>
                      <p>建议休息时间还剩余<span id=""iii"">60</span>秒</p>","0","","","","","","","","","","","","","","","","","","","","","","",""
"","","","","","psychophysics","403","724109","0.0-13.0-1.0-1.0-0.2-0.120","611","","j","","","","","","","","","","","","","key","j","16.6668285714285","731.4285714285714","453.42857142857144","j","true","img/C_ambi40.png","坏人","word_first",""
"","","","","","html-keyboard-response","404","724423","0.0-13.0-1.0-1.0-0.2-1.120","null","<span style='color:GreenYellow; font-size: 70px;'>正确! </span>","null","","","","","","","","","","","","","","","","","","","","","","","feedback_test"
"","","","","","psychophysics","405","726275","0.0-13.0-1.0-1.0-0.2-0.121","699","","f","","","","","","","","","","","","","key","f","16.666290909091053","731.4285714285714","453.42857142857144","f","true","img/C_ambi40.png","好人","word_first",""
"","","","","","html-keyboard-response","406","726588","0.0-13.0-1.0-1.0-0.2-1.121","null","<span style='color:GreenYellow; font-size: 70px;'>正确! </span>","null","","","","","","","","","","","","","","","","","","","","","","","feedback_test"
"","","","","","psychophysics","407","728345","0.0-13.0-1.0-1.0-0.2-0.122","601","","j","","","","","","","","","","","","","key","j","16.666721153845383","731.4285714285714","453.42857142857144","j","true","img/S_ambi40.png","好人","word_first",""
