"success","timeout","failed_images","failed_audio","failed_video","trial_type","trial_index","time_elapsed","internal_node_id","rt","stimulus","response","value","item_width_mm","item_height_mm","item_width_px","px2mm","view_dist_mm","item_width_deg","px2deg","scale_factor","win_width_deg","win_height_deg","view_history","response_type","key_press","avg_frame_time","center_x","center_y","correct_response","correct","Image","word","condition","screen_id"
"true","false","[]","[]","[]","preload","0","533","0.0-0.0","","","","","","","","","","","","","","","","","","","","","","","","","",""
"","","","","","html-keyboard-response","1","73467","0.0-1.0","72933","
     <p>您好，欢迎参加本次实验。</p>
     <p>为充分保障您的权利，请确保您已经知晓并同意《参与实验同意书》以及《数据公开知情同意书》。</p>
     <p>如果您未见过上述内容，请咨询实验员。</p>
     <p>如果您选择继续实验，则表示您已经清楚两份知情同意书的内容并同意。</p>
     <p> <div style = ""color: green""><按任意键至下页></div> </p>
     ","capslock","","","","","","","","","","","","","","","","","","","","","","",""
"","","","","","html-keyboard-response","2","123651","0.0-2.0","50184","
     <p>本实验首先需要您填写一些基本个人信息。</p>
     <p> <div style = ""color: green""><按任意键至下页></div></p>
     "," ","","","","","","","","","","","","","","","","","","","","","","",""
"","","","","","call-function","3","123652","0.0-3.0-0.0","","","","","","","","","","","","","","","","","","","","","","","","","",""
"","","","","","survey-html-form","4","126627","0.0-3.0-1.0","2973","","{""Q0"":""24""}","","","","","","","","","","","","","","","","","","","","","","",""
"","","","","","html-button-response","5","127453","0.0-3.0-2.0","825","<p style = 'color : white'>您的性别</p>","1","","","","","","","","","","","","","","","","","","","","","","",""
"","","","","","survey-html-form","6","133947","0.0-3.0-3.0","6494","","{""Q0"":""2001""}","","","","","","","","","","","","","","","","","","","","","","",""
"","","","","","survey-html-form","7","135970","0.0-3.0-4.0","2023","","{""Q0"":""5""}","","","","","","","","","","","","","","","","","","","","","","",""
"","","","","","virtual-chinrest","8","386235","0.0-4.0","250264","","","","85.6","53.98","439.4535751570474","5.132725484117746","556.93","8.789071503140947","50","0.8669857785633946","29.8","14.92","","","","","","","","","","","",""
"true","","","","","fullscreen","9","389051","0.0-5.0","","","","","","","","","","","","","","","","","","","","","","","","","",""
"","","","","","instructions","10","520765","0.0-6.0","131713","","","","","","","","","","","","","","[{""page_index"":0,""viewing_time"":2944},{""page_index"":1,""viewing_time"":124676},{""page_index"":2,""viewing_time"":2896},{""page_index"":3,""viewing_time"":1197}]","","","","","","","","","","",""
"","","","","","psychophysics","11","522494","0.0-7.0-0.0-0.0","569","","f","","","","","","","","","","","","","key","f","16.663627450980414","768","428","f","true","img/C_ambi40.png","好人","prac_image_first",""
"","","","","","html-keyboard-response","12","522802","0.0-7.0-0.0-1.0","null","<span style='color:GreenYellow; font-size: 70px;'>正确! </span>","null","","","","","","","","","","","","","","","","","","","","","","","feedback_test"
"","","","","","psychophysics","13","524804","0.0-7.0-0.0-0.1","847","","f","","","","","","","","","","","","","key","f","16.805084033613877","768","428","f","true","img/T_ambi40.png","坏人","prac_image_first",""
"","","","","","html-keyboard-response","14","525118","0.0-7.0-0.0-1.1","null","<span style='color:GreenYellow; font-size: 70px;'>正确! </span>","null","","","","","","","","","","","","","","","","","","","","","","","feedback_test"
"","","","","","psychophysics","15","526945","0.0-7.0-0.0-0.2","675","","j","","","","","","","","","","","","","key","j","16.667345454544886","768","428","j","true","img/S_ambi40.png","坏人","prac_image_first",""
"","","","","","html-keyboard-response","16","527253","0.0-7.0-0.0-1.2","null","<span style='color:GreenYellow; font-size: 70px;'>正确! </span>","null","","","","","","","","","","","","","","","","","","","","","","","feedback_test"
"","","","","","psychophysics","17","529513","0.0-7.0-0.0-0.3","1109","","j","","","","","","","","","","","","","key","j","16.790540740740727","768","428","j","true","img/C_ambi40.png","坏人","prac_image_first",""
"","","","","","html-keyboard-response","18","529820","0.0-7.0-0.0-1.3","null","<span style='color:GreenYellow; font-size: 70px;'>正确! </span>","null","","","","","","","","","","","","","","","","","","","","","","","feedback_test"
"","","","","","psychophysics","19","531858","0.0-7.0-0.0-0.4","885","","j","","","","","","","","","","","","","key","j","16.66428099173575","768","428","j","true","img/S_ambi40.png","好人","prac_image_first",""
"","","","","","html-keyboard-response","20","532163","0.0-7.0-0.0-1.4","null","<span style='color:GreenYellow; font-size: 70px;'>正确! </span>","null","","","","","","","","","","","","","","","","","","","","","","","feedback_test"
"","","","","","psychophysics","21","534543","0.0-7.0-0.0-0.5","1228","","f","","","","","","","","","","","","","key","f","16.664419580419494","768","428","f","true","img/S_ambi40.png","常人","prac_image_first",""
"","","","","","html-keyboard-response","22","534844","0.0-7.0-0.0-1.5","null","<span style='color:GreenYellow; font-size: 70px;'>正确! </span>","null","","","","","","","","","","","","","","","","","","","","","","","feedback_test"
"","","","","","psychophysics","23","536982","0.0-7.0-0.0-0.6","985","","f","","","","","","","","","","","","","key","f","16.664882812500764","768","428","f","true","img/S_ambi40.png","常人","prac_image_first",""
"","","","","","html-keyboard-response","24","537294","0.0-7.0-0.0-1.6","null","<span style='color:GreenYellow; font-size: 70px;'>正确! </span>","null","","","","","","","","","","","","","","","","","","","","","","","feedback_test"
"","","","","","psychophysics","25","539286","0.0-7.0-0.0-0.7","840","","j","","","","","","","","","","","","","key","j","16.66403389830533","768","428","j","true","img/T_ambi40.png","常人","prac_image_first",""
"","","","","","html-keyboard-response","26","539590","0.0-7.0-0.0-1.7","null","<span style='color:GreenYellow; font-size: 70px;'>正确! </span>","null","","","","","","","","","","","","","","","","","","","","","","","feedback_test"
"","","","","","psychophysics","27","542147","0.0-7.0-0.0-0.8","1404","","j","","","","","","","","","","","","","key","j","16.661346405228674","768","428","j","true","img/C_ambi40.png","常人","prac_image_first",""
"","","","","","html-keyboard-response","28","542459","0.0-7.0-0.0-1.8","null","<span style='color:GreenYellow; font-size: 70px;'>正确! </span>","null","","","","","","","","","","","","","","","","","","","","","","","feedback_test"
"","","","","","psychophysics","29","544268","0.0-7.0-0.0-0.9","654","","f","","","","","","","","","","","","","key","f","16.66467592592623","768","428","f","true","img/C_ambi40.png","好人","prac_image_first",""
"","","","","","html-keyboard-response","30","544582","0.0-7.0-0.0-1.9","null","<span style='color:GreenYellow; font-size: 70px;'>正确! </span>","null","","","","","","","","","","","","","","","","","","","","","","","feedback_test"
"","","","","","psychophysics","31","547119","0.0-7.0-0.0-0.10","1384","","f","","","","","","","","","","","","","key","f","16.66490066225181","768","428","f","true","img/T_ambi40.png","坏人","prac_image_first",""
"","","","","","html-keyboard-response","32","547430","0.0-7.0-0.0-1.10","null","<span style='color:GreenYellow; font-size: 70px;'>正确! </span>","null","","","","","","","","","","","","","","","","","","","","","","","feedback_test"
"","","","","","psychophysics","33","549309","0.0-7.0-0.0-0.11","726","","j","","","","","","","","","","","","","key","j","16.665424778760798","768","428","j","true","img/T_ambi40.png","好人","prac_image_first",""
"","","","","","html-keyboard-response","34","549614","0.0-7.0-0.0-1.11","null","<span style='color:GreenYellow; font-size: 70px;'>正确! </span>","null","","","","","","","","","","","","","","","","","","","","","","","feedback_test"
"","","","","","psychophysics","35","551881","0.0-7.0-0.0-0.12","1115","","j","","","","","","","","","","","","","key","j","16.667000000000424","768","428","j","true","img/C_ambi40.png","坏人","prac_image_first",""
"","","","","","html-keyboard-response","36","552190","0.0-7.0-0.0-1.12","null","<span style='color:GreenYellow; font-size: 70px;'>正确! </span>","null","","","","","","","","","","","","","","","","","","","","","","","feedback_test"
"","","","","","psychophysics","37","554222","0.0-7.0-0.0-0.13","880","","f","","","","","","","","","","","","","key","f","16.66488429752067","768","428","f","true","img/S_ambi40.png","常人","prac_image_first",""
"","","","","","html-keyboard-response","38","554527","0.0-7.0-0.0-1.13","null","<span style='color:GreenYellow; font-size: 70px;'>正确! </span>","null","","","","","","","","","","","","","","","","","","","","","","","feedback_test"
"","","","","","psychophysics","39","556352","0.0-7.0-0.0-0.14","666","","f","","","","","","","","","","","","","key","f","16.66299082568757","768","428","f","true","img/C_ambi40.png","好人","prac_image_first",""
"","","","","","html-keyboard-response","40","556660","0.0-7.0-0.0-1.14","null","<span style='color:GreenYellow; font-size: 70px;'>正确! </span>","null","","","","","","","","","","","","","","","","","","","","","","","feedback_test"
"","","","","","psychophysics","41","558395","0.0-7.0-0.0-0.15","579","","j","","","","","","","","","","","","","key","j","16.666778846153576","768","428","j","true","img/S_ambi40.png","坏人","prac_image_first",""
"","","","","","html-keyboard-response","42","558706","0.0-7.0-0.0-1.15","null","<span style='color:GreenYellow; font-size: 70px;'>正确! </span>","null","","","","","","","","","","","","","","","","","","","","","","","feedback_test"
"","","","","","psychophysics","43","561174","0.0-7.0-0.0-0.16","1314","","j","","","","","","","","","","","","","key","j","16.663537414965447","768","428","j","true","img/C_ambi40.png","常人","prac_image_first",""
"","","","","","html-keyboard-response","44","561478","0.0-7.0-0.0-1.16","null","<span style='color:GreenYellow; font-size: 70px;'>正确! </span>","null","","","","","","","","","","","","","","","","","","","","","","","feedback_test"
"","","","","","psychophysics","45","563688","0.0-7.0-0.0-0.17","1053","","f","","","","","","","","","","","","","key","f","16.665601503759575","768","428","f","true","img/T_ambi40.png","坏人","prac_image_first",""
"","","","","","html-keyboard-response","46","563997","0.0-7.0-0.0-1.17","null","<span style='color:GreenYellow; font-size: 70px;'>正确! </span>","null","","","","","","","","","","","","","","","","","","","","","","","feedback_test"
"","","","","","psychophysics","47","565856","0.0-7.0-0.0-0.18","706","","j","","","","","","","","","","","","","key","j","16.81436936936849","768","428","j","true","img/S_ambi40.png","好人","prac_image_first",""
"","","","","","html-keyboard-response","48","566162","0.0-7.0-0.0-1.18","null","<span style='color:GreenYellow; font-size: 70px;'>正确! </span>","null","","","","","","","","","","","","","","","","","","","","","","","feedback_test"
"","","","","","psychophysics","49","568069","0.0-7.0-0.0-0.19","751","","j","","","","","","","","","","","","","key","j","16.663377192982455","768","428","f","false","img/C_ambi40.png","好人","prac_image_first",""
"","","","","","html-keyboard-response","50","568377","0.0-7.0-0.0-1.19","null","<span style='color:red; font-size: 70px;'>错误! </span>","null","","","","","","","","","","","","","","","","","","","","","","","feedback_test"
"","","","","","psychophysics","51","570290","0.0-7.0-0.0-0.20","761","","f","","","","","","","","","","","","","key","f","16.66432173913041","768","428","f","true","img/T_ambi40.png","坏人","prac_image_first",""
"","","","","","html-keyboard-response","52","570598","0.0-7.0-0.0-1.20","null","<span style='color:GreenYellow; font-size: 70px;'>正确! </span>","null","","","","","","","","","","","","","","","","","","","","","","","feedback_test"
"","","","","","psychophysics","53","572483","0.0-7.0-0.0-0.21","732","","j","","","","","","","","","","","","","key","j","16.665151785714052","768","428","j","true","img/T_ambi40.png","常人","prac_image_first",""
"","","","","","html-keyboard-response","54","572785","0.0-7.0-0.0-1.21","null","<span style='color:GreenYellow; font-size: 70px;'>正确! </span>","null","","","","","","","","","","","","","","","","","","","","","","","feedback_test"
"","","","","","psychophysics","55","574688","0.0-7.0-0.0-0.22","751","","j","","","","","","","","","","","","","key","j","16.663719298245525","768","428","j","true","img/T_ambi40.png","好人","prac_image_first",""
"","","","","","html-keyboard-response","56","574998","0.0-7.0-0.0-1.22","null","<span style='color:GreenYellow; font-size: 70px;'>正确! </span>","null","","","","","","","","","","","","","","","","","","","","","","","feedback_test"
"","","","","","psychophysics","57","576947","0.0-7.0-0.0-0.23","796","","f","","","","","","","","","","","","","key","f","16.66550862068985","768","428","f","true","img/S_ambi40.png","常人","prac_image_first",""
"","","","","","html-keyboard-response","58","577253","0.0-7.0-0.0-1.23","null","<span style='color:GreenYellow; font-size: 70px;'>正确! </span>","null","","","","","","","","","","","","","","","","","","","","","","","feedback_test"
"","","","","","html-keyboard-response","59","580886","0.0-8.0","3632","<style>.context{color:white; font-size: 35px; line-height:40px}</style>                              <div><p class='context'>您正确回答了96% 的试次。</p><p class='context'>您的平均反应时为898毫秒。</p><p class='context'>恭喜您完成这一阶段的练习。按任意键进入<span style='color: yellow;'>先文字后图形条件</span>的练习。</p></div>"," ","","","","","","","","","","","","","","","","","","","","","","",""
"","","","","","psychophysics","60","582811","0.0-9.0-0.0-0.0","767","","j","","","","","","","","","","","","","key","j","16.666350877193302","768","428","j","true","img/C_ambi40.png","坏人","prac_word_first",""
"","","","","","html-keyboard-response","61","583120","0.0-9.0-0.0-1.0","null","<span style='color:GreenYellow; font-size: 70px;'>正确! </span>","null","","","","","","","","","","","","","","","","","","","","","","","feedback_test"
"","","","","","psychophysics","62","585104","0.0-9.0-0.0-0.1","833","","j","","","","","","","","","","","","","key","j","16.666773109243863","768","428","j","true","img/T_ambi40.png","常人","prac_word_first",""
"","","","","","html-keyboard-response","63","585413","0.0-9.0-0.0-1.1","null","<span style='color:GreenYellow; font-size: 70px;'>正确! </span>","null","","","","","","","","","","","","","","","","","","","","","","","feedback_test"
"","","","","","psychophysics","64","587157","0.0-9.0-0.0-0.2","591","","f","","","","","","","","","","","","","key","f","16.664776699028646","768","428","f","true","img/C_ambi40.png","好人","prac_word_first",""
"","","","","","html-keyboard-response","65","587458","0.0-9.0-0.0-1.2","null","<span style='color:GreenYellow; font-size: 70px;'>正确! </span>","null","","","","","","","","","","","","","","","","","","","","","","","feedback_test"
"","","","","","psychophysics","66","589189","0.0-9.0-0.0-0.3","574","","j","","","","","","","","","","","","","key","j","16.66765384615372","768","428","j","true","img/S_ambi40.png","好人","prac_word_first",""
"","","","","","html-keyboard-response","67","589496","0.0-9.0-0.0-1.3","null","<span style='color:GreenYellow; font-size: 70px;'>正确! </span>","null","","","","","","","","","","","","","","","","","","","","","","","feedback_test"
"","","","","","psychophysics","68","591547","0.0-9.0-0.0-0.4","898","","f","","","","","","","","","","","","","key","f","16.66482786885291","768","428","f","true","img/T_ambi40.png","坏人","prac_word_first",""
"","","","","","html-keyboard-response","69","591856","0.0-9.0-0.0-1.4","null","<span style='color:GreenYellow; font-size: 70px;'>正确! </span>","null","","","","","","","","","","","","","","","","","","","","","","","feedback_test"
"","","","","","psychophysics","70","594045","0.0-9.0-0.0-0.5","1034","","f","","","","","","","","","","","","","key","f","16.661707692307672","768","428","f","true","img/C_ambi40.png","好人","prac_word_first",""
"","","","","","html-keyboard-response","71","594355","0.0-9.0-0.0-1.5","null","<span style='color:GreenYellow; font-size: 70px;'>正确! </span>","null","","","","","","","","","","","","","","","","","","","","","","","feedback_test"
"","","","","","psychophysics","72","596103","0.0-9.0-0.0-0.6","589","","j","","","","","","","","","","","","","key","j","16.665238095238983","768","428","j","true","img/T_ambi40.png","好人","prac_word_first",""
"","","","","","html-keyboard-response","73","596411","0.0-9.0-0.0-1.6","null","<span style='color:GreenYellow; font-size: 70px;'>正确! </span>","null","","","","","","","","","","","","","","","","","","","","","","","feedback_test"
"","","","","","psychophysics","74","598386","0.0-9.0-0.0-0.7","822","","j","","","","","","","","","","","","","key","j","16.665237288135774","768","428","j","true","img/C_ambi40.png","常人","prac_word_first",""
"","","","","","html-keyboard-response","75","598696","0.0-9.0-0.0-1.7","null","<span style='color:GreenYellow; font-size: 70px;'>正确! </span>","null","","","","","","","","","","","","","","","","","","","","","","","feedback_test"
"","","","","","psychophysics","76","600740","0.0-9.0-0.0-0.8","892","","j","","","","","","","","","","","","","key","j","16.663696721311634","768","428","j","true","img/S_ambi40.png","坏人","prac_word_first",""
"","","","","","html-keyboard-response","77","601042","0.0-9.0-0.0-1.8","null","<span style='color:GreenYellow; font-size: 70px;'>正确! </span>","null","","","","","","","","","","","","","","","","","","","","","","","feedback_test"
"","","","","","psychophysics","78","603698","0.0-9.0-0.0-0.9","null","","null","","","","","","","","","","","","","key","null","16.772062893081955","768","428","f","false","img/S_ambi40.png","常人","prac_word_first",""
"","","","","","html-keyboard-response","79","604013","0.0-9.0-0.0-1.9","null","<span class='add_' style='color:yellow; font-size: 70px;'> 太慢! </span>","null","","","","","","","","","","","","","","","","","","","","","","","feedback_test"
"","","","","","psychophysics","80","606059","0.0-9.0-0.0-0.10","895","","f","","","","","","","","","","","","","key","f","16.664504132230675","768","428","f","true","img/T_ambi40.png","坏人","prac_word_first",""
"","","","","","html-keyboard-response","81","606370","0.0-9.0-0.0-1.10","null","<span style='color:GreenYellow; font-size: 70px;'>正确! </span>","null","","","","","","","","","","","","","","","","","","","","","","","feedback_test"
"","","","","","psychophysics","82","608227","0.0-9.0-0.0-0.11","705","","j","","","","","","","","","","","","","key","j","16.662747747748295","768","428","f","false","img/S_ambi40.png","常人","prac_word_first",""
"","","","","","html-keyboard-response","83","608533","0.0-9.0-0.0-1.11","null","<span style='color:red; font-size: 70px;'>错误! </span>","null","","","","","","","","","","","","","","","","","","","","","","","feedback_test"
"","","","","","psychophysics","84","610558","0.0-9.0-0.0-0.12","870","","j","","","","","","","","","","","","","key","j","16.662958677685896","768","428","j","true","img/T_ambi40.png","常人","prac_word_first",""
"","","","","","html-keyboard-response","85","610866","0.0-9.0-0.0-1.12","null","<span style='color:GreenYellow; font-size: 70px;'>正确! </span>","null","","","","","","","","","","","","","","","","","","","","","","","feedback_test"
"","","","","","psychophysics","86","613281","0.0-9.0-0.0-0.13","1260","","j","","","","","","","","","","","","","key","j","16.66252777777764","768","428","j","true","img/C_ambi40.png","常人","prac_word_first",""
"","","","","","html-keyboard-response","87","613596","0.0-9.0-0.0-1.13","null","<span style='color:GreenYellow; font-size: 70px;'>正确! </span>","null","","","","","","","","","","","","","","","","","","","","","","","feedback_test"
"","","","","","psychophysics","88","615404","0.0-9.0-0.0-0.14","654","","j","","","","","","","","","","","","","key","j","16.664749999999508","768","428","j","true","img/C_ambi40.png","坏人","prac_word_first",""
"","","","","","html-keyboard-response","89","615708","0.0-9.0-0.0-1.14","null","<span style='color:GreenYellow; font-size: 70px;'>正确! </span>","null","","","","","","","","","","","","","","","","","","","","","","","feedback_test"
"","","","","","psychophysics","90","617517","0.0-9.0-0.0-0.15","656","","f","","","","","","","","","","","","","key","f","16.66467592592515","768","428","f","true","img/C_ambi40.png","好人","prac_word_first",""
"","","","","","html-keyboard-response","91","617826","0.0-9.0-0.0-1.15","null","<span style='color:GreenYellow; font-size: 70px;'>正确! </span>","null","","","","","","","","","","","","","","","","","","","","","","","feedback_test"
"","","","","","psychophysics","92","619820","0.0-9.0-0.0-0.16","841","","f","","","","","","","","","","","","","key","f","16.663372881356352","768","428","f","true","img/S_ambi40.png","常人","prac_word_first",""
"","","","","","html-keyboard-response","93","620122","0.0-9.0-0.0-1.16","null","<span style='color:GreenYellow; font-size: 70px;'>正确! </span>","null","","","","","","","","","","","","","","","","","","","","","","","feedback_test"
"","","","","","psychophysics","94","621787","0.0-9.0-0.0-0.17","511","","f","","","","","","","","","","","","","key","f","16.663699999999952","768","428","f","true","img/C_ambi40.png","好人","prac_word_first",""
"","","","","","html-keyboard-response","95","622101","0.0-9.0-0.0-1.17","null","<span style='color:GreenYellow; font-size: 70px;'>正确! </span>","null","","","","","","","","","","","","","","","","","","","","","","","feedback_test"
"","","","","","psychophysics","96","623875","0.0-9.0-0.0-0.18","615","","j","","","","","","","","","","","","","key","j","16.66476415094309","768","428","j","true","img/S_ambi40.png","好人","prac_word_first",""
"","","","","","html-keyboard-response","97","624177","0.0-9.0-0.0-1.18","null","<span style='color:GreenYellow; font-size: 70px;'>正确! </span>","null","","","","","","","","","","","","","","","","","","","","","","","feedback_test"
"","","","","","psychophysics","98","626212","0.0-9.0-0.0-0.19","885","","j","","","","","","","","","","","","","key","j","16.664256198347108","768","428","j","true","img/S_ambi40.png","坏人","prac_word_first",""
"","","","","","html-keyboard-response","99","626528","0.0-9.0-0.0-1.19","null","<span style='color:GreenYellow; font-size: 70px;'>正确! </span>","null","","","","","","","","","","","","","","","","","","","","","","","feedback_test"
"","","","","","psychophysics","100","628425","0.0-9.0-0.0-0.20","745","","j","","","","","","","","","","","","","key","j","16.6630707964604","768","428","j","true","img/T_ambi40.png","好人","prac_word_first",""
"","","","","","html-keyboard-response","101","628739","0.0-9.0-0.0-1.20","null","<span style='color:GreenYellow; font-size: 70px;'>正确! </span>","null","","","","","","","","","","","","","","","","","","","","","","","feedback_test"
"","","","","","psychophysics","102","630761","0.0-9.0-0.0-0.21","869","","f","","","","","","","","","","","","","key","f","16.803892561983055","768","428","f","true","img/S_ambi40.png","常人","prac_word_first",""
"","","","","","html-keyboard-response","103","631076","0.0-9.0-0.0-1.21","null","<span style='color:GreenYellow; font-size: 70px;'>正确! </span>","null","","","","","","","","","","","","","","","","","","","","","","","feedback_test"
"","","","","","psychophysics","104","632880","0.0-9.0-0.0-0.22","653","","j","","","","","","","","","","","","","key","j","16.663168224298275","768","428","f","false","img/T_ambi40.png","坏人","prac_word_first",""
"","","","","","html-keyboard-response","105","633184","0.0-9.0-0.0-1.22","null","<span style='color:red; font-size: 70px;'>错误! </span>","null","","","","","","","","","","","","","","","","","","","","","","","feedback_test"
"","","","","","psychophysics","106","635124","0.0-9.0-0.0-0.23","783","","f","","","","","","","","","","","","","key","f","16.66588793103463","768","428","f","true","img/T_ambi40.png","坏人","prac_word_first",""
"","","","","","html-keyboard-response","107","635432","0.0-9.0-0.0-1.23","null","<span style='color:GreenYellow; font-size: 70px;'>正确! </span>","null","","","","","","","","","","","","","","","","","","","","","","","feedback_test"
"","","","","","html-keyboard-response","108","640295","0.0-10.0","4861","<style>.context{color:white; font-size: 35px; line-height:40px}</style>                              <div><p class='context'>您正确回答了88% 的试次。</p><p class='context'>您的平均反应时为790毫秒。</p><p class='context'>恭喜您完成练习。按任意键进入<span style='color: yellow;'>图形和文字同时呈现条件</span>的练习。</p></div>"," ","","","","","","","","","","","","","","","","","","","","","","",""
"","","","","","psychophysics","109","642293","0.0-11.0-0.0-0.0","987","","f","","","","","","","","","","","","","key","f","16.66469747899198","768","428","f","true","img/T_ambi40.png","坏人","prac_simultaneous",""
"","","","","","html-keyboard-response","110","642597","0.0-11.0-0.0-1.0","null","<span style='color:GreenYellow; font-size: 70px;'>正确! </span>","null","","","","","","","","","","","","","","","","","","","","","","","feedback_test"
"","","","","","psychophysics","111","644484","0.0-11.0-0.0-0.1","883","","j","","","","","","","","","","","","","key","j","16.665079646017524","768","428","j","true","img/S_ambi40.png","坏人","prac_simultaneous",""
"","","","","","html-keyboard-response","112","644788","0.0-11.0-0.0-1.1","null","<span style='color:GreenYellow; font-size: 70px;'>正确! </span>","null","","","","","","","","","","","","","","","","","","","","","","","feedback_test"
"","","","","","psychophysics","113","647261","0.0-11.0-0.0-0.2","1470","","f","","","","","","","","","","","","","key","f","16.665885135134985","768","428","f","true","img/S_ambi40.png","常人","prac_simultaneous",""
"","","","","","html-keyboard-response","114","647573","0.0-11.0-0.0-1.2","null","<span style='color:GreenYellow; font-size: 70px;'>正确! </span>","null","","","","","","","","","","","","","","","","","","","","","","","feedback_test"
"","","","","","psychophysics","115","650020","0.0-11.0-0.0-0.3","1444","","f","","","","","","","","","","","","","key","f","16.66437931034457","768","428","f","true","img/T_ambi40.png","坏人","prac_simultaneous",""
"","","","","","html-keyboard-response","116","650331","0.0-11.0-0.0-1.3","null","<span style='color:GreenYellow; font-size: 70px;'>正确! </span>","null","","","","","","","","","","","","","","","","","","","","","","","feedback_test"
"","","","","","psychophysics","117","652600","0.0-11.0-0.0-0.4","1260","","j","","","","","","","","","","","","","key","j","16.6644338235295","768","428","j","true","img/T_ambi40.png","好人","prac_simultaneous",""
"","","","","","html-keyboard-response","118","652902","0.0-11.0-0.0-1.4","null","<span style='color:GreenYellow; font-size: 70px;'>正确! </span>","null","","","","","","","","","","","","","","","","","","","","","","","feedback_test"
"","","","","","psychophysics","119","655259","0.0-11.0-0.0-0.5","1352","","f","","","","","","","","","","","","","key","f","16.78265248226986","768","428","f","true","img/C_ambi40.png","好人","prac_simultaneous",""
"","","","","","html-keyboard-response","120","655567","0.0-11.0-0.0-1.5","null","<span style='color:GreenYellow; font-size: 70px;'>正确! </span>","null","","","","","","","","","","","","","","","","","","","","","","","feedback_test"
"","","","","","psychophysics","121","657305","0.0-11.0-0.0-0.6","731","","f","","","","","","","","","","","","","key","f","16.664563106795665","768","428","f","true","img/C_ambi40.png","好人","prac_simultaneous",""
"","","","","","html-keyboard-response","122","657608","0.0-11.0-0.0-1.6","null","<span style='color:GreenYellow; font-size: 70px;'>正确! </span>","null","","","","","","","","","","","","","","","","","","","","","","","feedback_test"
"","","","","","psychophysics","123","659578","0.0-11.0-0.0-0.7","969","","j","","","","","","","","","","","","","key","j","16.664754237288065","768","428","j","true","img/T_ambi40.png","常人","prac_simultaneous",""
"","","","","","html-keyboard-response","124","659882","0.0-11.0-0.0-1.7","null","<span style='color:GreenYellow; font-size: 70px;'>正确! </span>","null","","","","","","","","","","","","","","","","","","","","","","","feedback_test"
"","","","","","psychophysics","125","661999","0.0-11.0-0.0-0.8","1110","","j","","","","","","","","","","","","","key","j","16.66472440944915","768","428","j","true","img/C_ambi40.png","常人","prac_simultaneous",""
"","","","","","html-keyboard-response","126","662314","0.0-11.0-0.0-1.8","null","<span style='color:GreenYellow; font-size: 70px;'>正确! </span>","null","","","","","","","","","","","","","","","","","","","","","","","feedback_test"
"","","","","","psychophysics","127","664480","0.0-11.0-0.0-0.9","1158","","j","","","","","","","","","","","","","key","j","16.663500000000035","768","428","j","true","img/C_ambi40.png","坏人","prac_simultaneous",""
"","","","","","html-keyboard-response","128","664793","0.0-11.0-0.0-1.9","null","<span style='color:GreenYellow; font-size: 70px;'>正确! </span>","null","","","","","","","","","","","","","","","","","","","","","","","feedback_test"
"","","","","","psychophysics","129","667200","0.0-11.0-0.0-0.10","1397","","j","","","","","","","","","","","","","key","j","16.664520833333274","768","428","j","true","img/S_ambi40.png","好人","prac_simultaneous",""
"","","","","","html-keyboard-response","130","667514","0.0-11.0-0.0-1.10","null","<span style='color:GreenYellow; font-size: 70px;'>正确! </span>","null","","","","","","","","","","","","","","","","","","","","","","","feedback_test"
"","","","","","psychophysics","131","669279","0.0-11.0-0.0-0.11","757","","f","","","","","","","","","","","","","key","f","16.663641509434147","768","428","f","true","img/S_ambi40.png","常人","prac_simultaneous",""
"","","","","","html-keyboard-response","132","669590","0.0-11.0-0.0-1.11","null","<span style='color:GreenYellow; font-size: 70px;'>正确! </span>","null","","","","","","","","","","","","","","","","","","","","","","","feedback_test"
"","","","","","psychophysics","133","671433","0.0-11.0-0.0-0.12","841","","f","","","","","","","","","","","","","key","f","16.666690909091002","768","428","f","true","img/S_ambi40.png","常人","prac_simultaneous",""
"","","","","","html-keyboard-response","134","671741","0.0-11.0-0.0-1.12","null","<span style='color:GreenYellow; font-size: 70px;'>正确! </span>","null","","","","","","","","","","","","","","","","","","","","","","","feedback_test"
"","","","","","psychophysics","135","673677","0.0-11.0-0.0-0.13","923","","f","","","","","","","","","","","","","key","f","16.66524999999995","768","428","f","true","img/T_ambi40.png","坏人","prac_simultaneous",""
"","","","","","html-keyboard-response","136","673986","0.0-11.0-0.0-1.13","null","<span style='color:GreenYellow; font-size: 70px;'>正确! </span>","null","","","","","","","","","","","","","","","","","","","","","","","feedback_test"
"","","","","","psychophysics","137","676210","0.0-11.0-0.0-0.14","1222","","f","","","","","","","","","","","","","key","f","16.665263157894596","768","428","f","true","img/T_ambi40.png","坏人","prac_simultaneous",""
"","","","","","html-keyboard-response","138","676521","0.0-11.0-0.0-1.14","null","<span style='color:GreenYellow; font-size: 70px;'>正确! </span>","null","","","","","","","","","","","","","","","","","","","","","","","feedback_test"
"","","","","","psychophysics","139","678744","0.0-11.0-0.0-0.15","1211","","f","","","","","","","","","","","","","key","f","16.66305263157885","768","428","f","true","img/S_ambi40.png","常人","prac_simultaneous",""
"","","","","","html-keyboard-response","140","679049","0.0-11.0-0.0-1.15","null","<span style='color:GreenYellow; font-size: 70px;'>正确! </span>","null","","","","","","","","","","","","","","","","","","","","","","","feedback_test"
"","","","","","psychophysics","141","681405","0.0-11.0-0.0-0.16","1355","","j","","","","","","","","","","","","","key","j","16.663851063829807","768","428","j","true","img/C_ambi40.png","坏人","prac_simultaneous",""
"","","","","","html-keyboard-response","142","681714","0.0-11.0-0.0-1.16","null","<span style='color:GreenYellow; font-size: 70px;'>正确! </span>","null","","","","","","","","","","","","","","","","","","","","","","","feedback_test"
"","","","","","psychophysics","143","683910","0.0-11.0-0.0-0.17","1190","","j","","","","","","","","","","","","","key","j","16.795297709923727","768","428","j","true","img/C_ambi40.png","常人","prac_simultaneous",""
"","","","","","html-keyboard-response","144","684214","0.0-11.0-0.0-1.17","null","<span style='color:GreenYellow; font-size: 70px;'>正确! </span>","null","","","","","","","","","","","","","","","","","","","","","","","feedback_test"
"","","","","","psychophysics","145","686270","0.0-11.0-0.0-0.18","1052","","j","","","","","","","","","","","","","key","j","16.800780487805227","768","428","j","true","img/T_ambi40.png","常人","prac_simultaneous",""
"","","","","","html-keyboard-response","146","686576","0.0-11.0-0.0-1.18","null","<span style='color:GreenYellow; font-size: 70px;'>正确! </span>","null","","","","","","","","","","","","","","","","","","","","","","","feedback_test"
"","","","","","psychophysics","147","688345","0.0-11.0-0.0-0.19","759","","f","","","","","","","","","","","","","key","f","16.66278301886797","768","428","f","true","img/C_ambi40.png","好人","prac_simultaneous",""
"","","","","","html-keyboard-response","148","688649","0.0-11.0-0.0-1.19","null","<span style='color:GreenYellow; font-size: 70px;'>正确! </span>","null","","","","","","","","","","","","","","","","","","","","","","","feedback_test"
"","","","","","psychophysics","149","691153","0.0-11.0-0.0-0.20","null","","null","","","","","","","","","","","","","key","null","16.66713333333299","768","428","j","false","img/S_ambi40.png","坏人","prac_simultaneous",""
"","","","","","html-keyboard-response","150","691456","0.0-11.0-0.0-1.20","null","<span class='add_' style='color:yellow; font-size: 70px;'> 太慢! </span>","null","","","","","","","","","","","","","","","","","","","","","","","feedback_test"
"","","","","","psychophysics","151","693411","0.0-11.0-0.0-0.21","947","","j","","","","","","","","","","","","","key","j","16.663982758620666","768","428","j","true","img/T_ambi40.png","好人","prac_simultaneous",""
"","","","","","html-keyboard-response","152","693726","0.0-11.0-0.0-1.21","null","<span style='color:GreenYellow; font-size: 70px;'>正确! </span>","null","","","","","","","","","","","","","","","","","","","","","","","feedback_test"
"","","","","","psychophysics","153","695513","0.0-11.0-0.0-0.22","778","","f","","","","","","","","","","","","","key","f","16.667132075471837","768","428","f","true","img/C_ambi40.png","好人","prac_simultaneous",""
"","","","","","html-keyboard-response","154","695829","0.0-11.0-0.0-1.22","null","<span style='color:GreenYellow; font-size: 70px;'>正确! </span>","null","","","","","","","","","","","","","","","","","","","","","","","feedback_test"
"","","","","","psychophysics","155","697957","0.0-11.0-0.0-0.23","1123","","j","","","","","","","","","","","","","key","j","16.664523437500065","768","428","j","true","img/S_ambi40.png","好人","prac_simultaneous",""
"","","","","","html-keyboard-response","156","698264","0.0-11.0-0.0-1.23","null","<span style='color:GreenYellow; font-size: 70px;'>正确! </span>","null","","","","","","","","","","","","","","","","","","","","","","","feedback_test"
"","","","","","html-keyboard-response","157","706792","0.0-12.0","8527","<style>.context{color:white; font-size: 35px; line-height:40px}</style>                              <div><p class='context'>您正确回答了96% 的试次。</p><p class='context'>您的平均反应时为1083毫秒。</p><p class='context'>恭喜您完成练习。按任意键进入正式实验。</p><p class='footer' style='font-size: 35px; line-height:40px;'>请在进入正式实验实验之前将您的<span style='color: lightgreen;'>食指</span>放在电脑键盘的相应键位上进行按键。</p>"," ","","","","","","","","","","","","","","","","","","","","","","",""
"","","","","","html-keyboard-response","158","708126","0.0-13.0-0.0-0.0","1331","
      <p>请您将手指放在按键上，准备进入呈现顺序为<span style='color: yellow;'>先图形后文字条件</span>的正式匹配任务</p>
      <p> <div style = ""color: green""><按任意键进入下一阶段的匹配任务></div></p>
      "," ","","","","","","","","","","","","","","","","","","","","","","",""
"","","","","","psychophysics","159","709865","0.0-13.0-0.0-1.0-0.0-0.0","586","","j","","","","","","","","","","","","","key","j","16.66675728155318","768","428","j","true","img/T_ambi40.png","好人","image_first",""
"","","","","","html-keyboard-response","160","710181","0.0-13.0-0.0-1.0-0.0-1.0","null","<span style='color:GreenYellow; font-size: 70px;'>正确! </span>","null","","","","","","","","","","","","","","","","","","","","","","","feedback_test"
"","","","","","psychophysics","161","712145","0.0-13.0-0.0-1.0-0.0-0.1","812","","f","","","","","","","","","","","","","key","f","16.664564102563737","768","428","f","true","img/S_ambi40.png","常人","image_first",""
"","","","","","html-keyboard-response","162","712453","0.0-13.0-0.0-1.0-0.0-1.1","null","<span style='color:GreenYellow; font-size: 70px;'>正确! </span>","null","","","","","","","","","","","","","","","","","","","","","","","feedback_test"
"","","","","","psychophysics","163","714179","0.0-13.0-0.0-1.0-0.0-0.2","565","","j","","","","","","","","","","","","","key","j","16.66182524271906","768","428","j","true","img/C_ambi40.png","坏人","image_first",""
"","","","","","html-keyboard-response","164","714488","0.0-13.0-0.0-1.0-0.0-1.2","null","<span style='color:GreenYellow; font-size: 70px;'>正确! </span>","null","","","","","","","","","","","","","","","","","","","","","","","feedback_test"
"","","","","","psychophysics","165","716534","0.0-13.0-0.0-1.0-0.0-0.3","891","","j","","","","","","","","","","","","","key","j","16.661901639344087","768","428","j","true","img/T_ambi40.png","常人","image_first",""
"","","","","","html-keyboard-response","166","716845","0.0-13.0-0.0-1.0-0.0-1.3","null","<span style='color:GreenYellow; font-size: 70px;'>正确! </span>","null","","","","","","","","","","","","","","","","","","","","","","","feedback_test"
"","","","","","psychophysics","167","718883","0.0-13.0-0.0-1.0-0.0-0.4","885","","f","","","","","","","","","","","","","key","f","16.663967213114404","768","428","f","true","img/T_ambi40.png","坏人","image_first",""
"","","","","","html-keyboard-response","168","719196","0.0-13.0-0.0-1.0-0.0-1.4","null","<span style='color:GreenYellow; font-size: 70px;'>正确! </span>","null","","","","","","","","","","","","","","","","","","","","","","","feedback_test"
"","","","","","psychophysics","169","721010","0.0-13.0-0.0-1.0-0.0-0.5","663","","f","","","","","","","","","","","","","key","f","16.664907407406847","768","428","j","false","img/S_ambi40.png","好人","image_first",""
"","","","","","html-keyboard-response","170","721312","0.0-13.0-0.0-1.0-0.0-1.5","null","<span style='color:red; font-size: 70px;'>错误! </span>","null","","","","","","","","","","","","","","","","","","","","","","","feedback_test"
"","","","","","psychophysics","171","723158","0.0-13.0-0.0-1.0-0.0-0.6","691","","f","","","","","","","","","","","","","key","f","16.665227272727694","768","428","f","true","img/C_ambi40.png","好人","image_first",""
"","","","","","html-keyboard-response","172","723462","0.0-13.0-0.0-1.0-0.0-1.6","null","<span style='color:GreenYellow; font-size: 70px;'>正确! </span>","null","","","","","","","","","","","","","","","","","","","","","","","feedback_test"
"","","","","","psychophysics","173","725565","0.0-13.0-0.0-1.0-0.0-0.7","952","","j","","","","","","","","","","","","","key","j","16.66445600000024","768","428","j","true","img/S_ambi40.png","坏人","image_first",""
"","","","","","html-keyboard-response","174","725873","0.0-13.0-0.0-1.0-0.0-1.7","null","<span style='color:GreenYellow; font-size: 70px;'>正确! </span>","null","","","","","","","","","","","","","","","","","","","","","","","feedback_test"
"","","","","","psychophysics","175","727586","0.0-13.0-0.0-1.0-0.0-0.8","560","","f","","","","","","","","","","","","","key","f","16.664864077670185","768","428","f","true","img/C_ambi40.png","好人","image_first",""
"","","","","","html-keyboard-response","176","727899","0.0-13.0-0.0-1.0-0.0-1.8","null","<span style='color:GreenYellow; font-size: 70px;'>正确! </span>","null","","","","","","","","","","","","","","","","","","","","","","","feedback_test"
"","","","","","psychophysics","177","730012","0.0-13.0-0.0-1.0-0.0-0.9","958","","j","","","","","","","","","","","","","key","j","16.665007936507685","768","428","j","true","img/C_ambi40.png","常人","image_first",""
"","","","","","html-keyboard-response","178","730319","0.0-13.0-0.0-1.0-0.0-1.9","null","<span style='color:GreenYellow; font-size: 70px;'>正确! </span>","null","","","","","","","","","","","","","","","","","","","","","","","feedback_test"
"","","","","","psychophysics","179","732372","0.0-13.0-0.0-1.0-0.0-0.10","901","","f","","","","","","","","","","","","","key","f","16.660365853658348","768","428","f","true","img/S_ambi40.png","常人","image_first",""
"","","","","","html-keyboard-response","180","732688","0.0-13.0-0.0-1.0-0.0-1.10","null","<span style='color:GreenYellow; font-size: 70px;'>正确! </span>","null","","","","","","","","","","","","","","","","","","","","","","","feedback_test"
"","","","","","psychophysics","181","734437","0.0-13.0-0.0-1.0-0.0-0.11","590","","j","","","","","","","","","","","","","key","j","16.66815238095199","768","428","f","false","img/T_ambi40.png","坏人","image_first",""
"","","","","","html-keyboard-response","182","734742","0.0-13.0-0.0-1.0-0.0-1.11","null","<span style='color:red; font-size: 70px;'>错误! </span>","null","","","","","","","","","","","","","","","","","","","","","","","feedback_test"
"","","","","","psychophysics","183","736960","0.0-13.0-0.0-1.0-0.0-0.12","1066","","f","","","","","","","","","","","","","key","f","16.664234848484877","768","428","f","true","img/C_ambi40.png","好人","image_first",""
"","","","","","html-keyboard-response","184","737271","0.0-13.0-0.0-1.0-0.0-1.12","null","<span style='color:GreenYellow; font-size: 70px;'>正确! </span>","null","","","","","","","","","","","","","","","","","","","","","","","feedback_test"
"","","","","","psychophysics","185","739409","0.0-13.0-0.0-1.0-0.0-0.13","986","","j","","","","","","","","","","","","","key","j","16.66515625000011","768","428","j","true","img/S_ambi40.png","坏人","image_first",""
"","","","","","html-keyboard-response","186","739718","0.0-13.0-0.0-1.0-0.0-1.13","null","<span style='color:GreenYellow; font-size: 70px;'>正确! </span>","null","","","","","","","","","","","","","","","","","","","","","","","feedback_test"
"","","","","","psychophysics","187","741483","0.0-13.0-0.0-1.0-0.0-0.14","610","","f","","","","","","","","","","","","","key","f","16.667141509433453","768","428","f","true","img/C_ambi40.png","好人","image_first",""
"","","","","","html-keyboard-response","188","741797","0.0-13.0-0.0-1.0-0.0-1.14","null","<span style='color:GreenYellow; font-size: 70px;'>正确! </span>","null","","","","","","","","","","","","","","","","","","","","","","","feedback_test"
"","","","","","psychophysics","189","743503","0.0-13.0-0.0-1.0-0.0-0.15","551","","j","","","","","","","","","","","","","key","j","16.66326732673258","768","428","f","false","img/S_ambi40.png","常人","image_first",""
"","","","","","html-keyboard-response","190","743817","0.0-13.0-0.0-1.0-0.0-1.15","null","<span style='color:red; font-size: 70px;'>错误! </span>","null","","","","","","","","","","","","","","","","","","","","","","","feedback_test"
"","","","","","psychophysics","191","745743","0.0-13.0-0.0-1.0-0.0-0.16","775","","j","","","","","","","","","","","","","key","j","16.66497391304406","768","428","j","true","img/S_ambi40.png","好人","image_first",""
"","","","","","html-keyboard-response","192","746049","0.0-13.0-0.0-1.0-0.0-1.16","null","<span style='color:GreenYellow; font-size: 70px;'>正确! </span>","null","","","","","","","","","","","","","","","","","","","","","","","feedback_test"
"","","","","","psychophysics","193","747997","0.0-13.0-0.0-1.0-0.0-0.17","794","","f","","","","","","","","","","","","","key","f","16.66799999999965","768","428","f","true","img/T_ambi40.png","坏人","image_first",""
"","","","","","html-keyboard-response","194","748312","0.0-13.0-0.0-1.0-0.0-1.17","null","<span style='color:GreenYellow; font-size: 70px;'>正确! </span>","null","","","","","","","","","","","","","","","","","","","","","","","feedback_test"
"","","","","","psychophysics","195","750426","0.0-13.0-0.0-1.0-0.0-0.18","958","","f","","","","","","","","","","","","","key","f","16.66017599999998","768","428","f","true","img/S_ambi40.png","常人","image_first",""
"","","","","","html-keyboard-response","196","750729","0.0-13.0-0.0-1.0-0.0-1.18","null","<span style='color:GreenYellow; font-size: 70px;'>正确! </span>","null","","","","","","","","","","","","","","","","","","","","","","","feedback_test"
"","","","","","psychophysics","197","752742","0.0-13.0-0.0-1.0-0.0-0.19","858","","j","","","","","","","","","","","","","key","j","16.666008333333107","768","428","j","true","img/T_ambi40.png","常人","image_first",""
"","","","","","html-keyboard-response","198","753045","0.0-13.0-0.0-1.0-0.0-1.19","null","<span style='color:GreenYellow; font-size: 70px;'>正确! </span>","null","","","","","","","","","","","","","","","","","","","","","","","feedback_test"
"","","","","","psychophysics","199","754925","0.0-13.0-0.0-1.0-0.0-0.20","722","","j","","","","","","","","","","","","","key","j","16.665973214286037","768","428","j","true","img/C_ambi40.png","坏人","image_first",""
"","","","","","html-keyboard-response","200","755241","0.0-13.0-0.0-1.0-0.0-1.20","null","<span style='color:GreenYellow; font-size: 70px;'>正确! </span>","null","","","","","","","","","","","","","","","","","","","","","","","feedback_test"
"","","","","","psychophysics","201","757852","0.0-13.0-0.0-1.0-0.0-0.21","1459","","j","","","","","","","","","","","","","key","j","16.581851612902696","768","428","j","true","img/C_ambi40.png","常人","image_first",""
"","","","","","html-keyboard-response","202","758163","0.0-13.0-0.0-1.0-0.0-1.21","null","<span style='color:GreenYellow; font-size: 70px;'>正确! </span>","null","","","","","","","","","","","","","","","","","","","","","","","feedback_test"
"","","","","","psychophysics","203","759969","0.0-13.0-0.0-1.0-0.0-0.22","655","","j","","","","","","","","","","","","","key","j","16.661305555555305","768","428","j","true","img/T_ambi40.png","好人","image_first",""
"","","","","","html-keyboard-response","204","760282","0.0-13.0-0.0-1.0-0.0-1.22","null","<span style='color:GreenYellow; font-size: 70px;'>正确! </span>","null","","","","","","","","","","","","","","","","","","","","","","","feedback_test"
"","","","","","psychophysics","205","762551","0.0-13.0-0.0-1.0-0.0-0.23","1110","","f","","","","","","","","","","","","","key","f","16.665301470588446","768","428","f","true","img/T_ambi40.png","坏人","image_first",""
"","","","","","html-keyboard-response","206","762859","0.0-13.0-0.0-1.0-0.0-1.23","null","<span style='color:GreenYellow; font-size: 70px;'>正确! </span>","null","","","","","","","","","","","","","","","","","","","","","","","feedback_test"
"","","","","","psychophysics","207","764674","0.0-13.0-0.0-1.0-0.0-0.24","656","","j","","","","","","","","","","","","","key","j","16.661546296295622","768","428","j","true","img/C_ambi40.png","坏人","image_first",""
"","","","","","html-keyboard-response","208","764989","0.0-13.0-0.0-1.0-0.0-1.24","null","<span style='color:GreenYellow; font-size: 70px;'>正确! </span>","null","","","","","","","","","","","","","","","","","","","","","","","feedback_test"
"","","","","","psychophysics","209","767113","0.0-13.0-0.0-1.0-0.0-0.25","970","","f","","","","","","","","","","","","","key","f","16.664622047244144","768","428","f","true","img/S_ambi40.png","常人","image_first",""
"","","","","","html-keyboard-response","210","767421","0.0-13.0-0.0-1.0-0.0-1.25","null","<span style='color:GreenYellow; font-size: 70px;'>正确! </span>","null","","","","","","","","","","","","","","","","","","","","","","","feedback_test"
"","","","","","psychophysics","211","769400","0.0-13.0-0.0-1.0-0.0-0.26","824","","f","","","","","","","","","","","","","key","f","16.668805084745717","768","428","f","true","img/S_ambi40.png","常人","image_first",""
"","","","","","html-keyboard-response","212","769706","0.0-13.0-0.0-1.0-0.0-1.26","null","<span style='color:GreenYellow; font-size: 70px;'>正确! </span>","null","","","","","","","","","","","","","","","","","","","","","","","feedback_test"
"","","","","","psychophysics","213","771609","0.0-13.0-0.0-1.0-0.0-0.27","752","","j","","","","","","","","","","","","","key","j","16.664823008849556","768","428","j","true","img/S_ambi40.png","坏人","image_first",""
"","","","","","html-keyboard-response","214","771919","0.0-13.0-0.0-1.0-0.0-1.27","null","<span style='color:GreenYellow; font-size: 70px;'>正确! </span>","null","","","","","","","","","","","","","","","","","","","","","","","feedback_test"
"","","","","","psychophysics","215","773696","0.0-13.0-0.0-1.0-0.0-0.28","622","","f","","","","","","","","","","","","","key","f","16.822301886792356","768","428","f","true","img/C_ambi40.png","好人","image_first",""
"","","","","","html-keyboard-response","216","774008","0.0-13.0-0.0-1.0-0.0-1.28","null","<span style='color:GreenYellow; font-size: 70px;'>正确! </span>","null","","","","","","","","","","","","","","","","","","","","","","","feedback_test"
"","","","","","psychophysics","217","775796","0.0-13.0-0.0-1.0-0.0-0.29","637","","f","","","","","","","","","","","","","key","f","16.664626168224213","768","428","f","true","img/C_ambi40.png","好人","image_first",""
"","","","","","html-keyboard-response","218","776101","0.0-13.0-0.0-1.0-0.0-1.29","null","<span style='color:GreenYellow; font-size: 70px;'>正确! </span>","null","","","","","","","","","","","","","","","","","","","","","","","feedback_test"
"","","","","","psychophysics","219","777905","0.0-13.0-0.0-1.0-0.0-0.30","647","","j","","","","","","","","","","","","","key","j","16.81942990654209","768","428","j","true","img/T_ambi40.png","好人","image_first",""
"","","","","","html-keyboard-response","220","778208","0.0-13.0-0.0-1.0-0.0-1.30","null","<span style='color:GreenYellow; font-size: 70px;'>正确! </span>","null","","","","","","","","","","","","","","","","","","","","","","","feedback_test"
"","","","","","psychophysics","221","780337","0.0-13.0-0.0-1.0-0.0-0.31","971","","j","","","","","","","","","","","","","key","j","16.665377952755193","768","428","j","true","img/T_ambi40.png","常人","image_first",""
"","","","","","html-keyboard-response","222","780647","0.0-13.0-0.0-1.0-0.0-1.31","null","<span style='color:GreenYellow; font-size: 70px;'>正确! </span>","null","","","","","","","","","","","","","","","","","","","","","","","feedback_test"
"","","","","","psychophysics","223","782520","0.0-13.0-0.0-1.0-0.0-0.32","718","","f","","","","","","","","","","","","","key","f","16.664767857143097","768","428","j","false","img/S_ambi40.png","好人","image_first",""
"","","","","","html-keyboard-response","224","782830","0.0-13.0-0.0-1.0-0.0-1.32","null","<span style='color:red; font-size: 70px;'>错误! </span>","null","","","","","","","","","","","","","","","","","","","","","","","feedback_test"
"","","","","","psychophysics","225","784854","0.0-13.0-0.0-1.0-0.0-0.33","868","","j","","","","","","","","","","","","","key","j","16.66744999999937","768","428","j","true","img/C_ambi40.png","常人","image_first",""
"","","","","","html-keyboard-response","226","785160","0.0-13.0-0.0-1.0-0.0-1.33","null","<span style='color:GreenYellow; font-size: 70px;'>正确! </span>","null","","","","","","","","","","","","","","","","","","","","","","","feedback_test"
"","","","","","psychophysics","227","787067","0.0-13.0-0.0-1.0-0.0-0.34","747","","f","","","","","","","","","","","","","key","f","16.660584070796016","768","428","f","true","img/T_ambi40.png","坏人","image_first",""
"","","","","","html-keyboard-response","228","787381","0.0-13.0-0.0-1.0-0.0-1.34","null","<span style='color:GreenYellow; font-size: 70px;'>正确! </span>","null","","","","","","","","","","","","","","","","","","","","","","","feedback_test"
"","","","","","psychophysics","229","789468","0.0-13.0-0.0-1.0-0.0-0.35","928","","f","","","","","","","","","","","","","key","f","16.666648000000045","768","428","f","true","img/T_ambi40.png","坏人","image_first",""
"","","","","","html-keyboard-response","230","789775","0.0-13.0-0.0-1.0-0.0-1.35","null","<span style='color:GreenYellow; font-size: 70px;'>正确! </span>","null","","","","","","","","","","","","","","","","","","","","","","","feedback_test"
"","","","","","psychophysics","231","791876","0.0-13.0-0.0-1.0-0.0-0.36","945","","j","","","","","","","","","","","","","key","j","16.664520000000483","768","428","j","true","img/C_ambi40.png","坏人","image_first",""
"","","","","","html-keyboard-response","232","792187","0.0-13.0-0.0-1.0-0.0-1.36","null","<span style='color:GreenYellow; font-size: 70px;'>正确! </span>","null","","","","","","","","","","","","","","","","","","","","","","","feedback_test"
"","","","","","psychophysics","233","794429","0.0-13.0-0.0-1.0-0.0-0.37","1090","","j","","","","","","","","","","","","","key","j","16.664686567163958","768","428","j","true","img/S_ambi40.png","好人","image_first",""
"","","","","","html-keyboard-response","234","794730","0.0-13.0-0.0-1.0-0.0-1.37","null","<span style='color:GreenYellow; font-size: 70px;'>正确! </span>","null","","","","","","","","","","","","","","","","","","","","","","","feedback_test"
"","","","","","psychophysics","235","797184","0.0-13.0-0.0-1.0-0.0-0.38","1303","","j","","","","","","","","","","","","","key","j","16.664687074830148","768","428","j","true","img/C_ambi40.png","常人","image_first",""
"","","","","","html-keyboard-response","236","797488","0.0-13.0-0.0-1.0-0.0-1.38","null","<span style='color:GreenYellow; font-size: 70px;'>正确! </span>","null","","","","","","","","","","","","","","","","","","","","","","","feedback_test"
"","","","","","psychophysics","237","799514","0.0-13.0-0.0-1.0-0.0-0.39","875","","f","","","","","","","","","","","","","key","f","16.664181818182133","768","428","f","true","img/S_ambi40.png","常人","image_first",""
"","","","","","html-keyboard-response","238","799819","0.0-13.0-0.0-1.0-0.0-1.39","null","<span style='color:GreenYellow; font-size: 70px;'>正确! </span>","null","","","","","","","","","","","","","","","","","","","","","","","feedback_test"
"","","","","","psychophysics","239","801820","0.0-13.0-0.0-1.0-0.0-0.40","849","","f","","","","","","","","","","","","","key","f","16.6644285714289","768","428","f","true","img/S_ambi40.png","常人","image_first",""
"","","","","","html-keyboard-response","240","802133","0.0-13.0-0.0-1.0-0.0-1.40","null","<span style='color:GreenYellow; font-size: 70px;'>正确! </span>","null","","","","","","","","","","","","","","","","","","","","","","","feedback_test"
"","","","","","psychophysics","241","804408","0.0-13.0-0.0-1.0-0.0-0.41","1120","","f","","","","","","","","","","","","","key","f","16.664455882353224","768","428","f","true","img/C_ambi40.png","好人","image_first",""
"","","","","","html-keyboard-response","242","804715","0.0-13.0-0.0-1.0-0.0-1.41","null","<span style='color:GreenYellow; font-size: 70px;'>正确! </span>","null","","","","","","","","","","","","","","","","","","","","","","","feedback_test"
"","","","","","psychophysics","243","806574","0.0-13.0-0.0-1.0-0.0-0.42","706","","j","","","","","","","","","","","","","key","j","16.665392857142642","768","428","j","true","img/S_ambi40.png","坏人","image_first",""
"","","","","","html-keyboard-response","244","806880","0.0-13.0-0.0-1.0-0.0-1.42","null","<span style='color:GreenYellow; font-size: 70px;'>正确! </span>","null","","","","","","","","","","","","","","","","","","","","","","","feedback_test"
"","","","","","psychophysics","245","809163","0.0-13.0-0.0-1.0-0.0-0.43","1131","","f","","","","","","","","","","","","","key","f","16.66686861313808","768","428","f","true","img/T_ambi40.png","坏人","image_first",""
"","","","","","html-keyboard-response","246","809470","0.0-13.0-0.0-1.0-0.0-1.43","null","<span style='color:GreenYellow; font-size: 70px;'>正确! </span>","null","","","","","","","","","","","","","","","","","","","","","","","feedback_test"
"","","","","","psychophysics","247","811692","0.0-13.0-0.0-1.0-0.0-0.44","1070","","f","","","","","","","","","","","","","key","f","16.665225563909598","768","428","f","true","img/C_ambi40.png","好人","image_first",""
"","","","","","html-keyboard-response","248","811999","0.0-13.0-0.0-1.0-0.0-1.44","null","<span style='color:GreenYellow; font-size: 70px;'>正确! </span>","null","","","","","","","","","","","","","","","","","","","","","","","feedback_test"
"","","","","","psychophysics","249","813962","0.0-13.0-0.0-1.0-0.0-0.45","809","","j","","","","","","","","","","","","","key","j","16.80729059829042","768","428","j","true","img/T_ambi40.png","好人","image_first",""
"","","","","","html-keyboard-response","250","814275","0.0-13.0-0.0-1.0-0.0-1.45","null","<span style='color:GreenYellow; font-size: 70px;'>正确! </span>","null","","","","","","","","","","","","","","","","","","","","","","","feedback_test"
"","","","","","psychophysics","251","816899","0.0-13.0-0.0-1.0-0.0-0.46","1471","","j","","","","","","","","","","","","","key","j","16.66357692307718","768","428","j","true","img/T_ambi40.png","常人","image_first",""
"","","","","","html-keyboard-response","252","817205","0.0-13.0-0.0-1.0-0.0-1.46","null","<span style='color:GreenYellow; font-size: 70px;'>正确! </span>","null","","","","","","","","","","","","","","","","","","","","","","","feedback_test"
"","","","","","psychophysics","253","819390","0.0-13.0-0.0-1.0-0.0-0.47","1031","","f","","","","","","","","","","","","","key","f","16.6644961832061","768","428","f","true","img/T_ambi40.png","坏人","image_first",""
"","","","","","html-keyboard-response","254","819700","0.0-13.0-0.0-1.0-0.0-1.47","null","<span style='color:GreenYellow; font-size: 70px;'>正确! </span>","null","","","","","","","","","","","","","","","","","","","","","","","feedback_test"
"","","","","","psychophysics","255","821404","0.0-13.0-0.0-1.0-0.0-0.48","552","","j","","","","","","","","","","","","","key","j","16.666107843138104","768","428","j","true","img/S_ambi40.png","好人","image_first",""
"","","","","","html-keyboard-response","256","821718","0.0-13.0-0.0-1.0-0.0-1.48","null","<span style='color:GreenYellow; font-size: 70px;'>正确! </span>","null","","","","","","","","","","","","","","","","","","","","","","","feedback_test"
"","","","","","psychophysics","257","823560","0.0-13.0-0.0-1.0-0.0-0.49","691","","j","","","","","","","","","","","","","key","j","16.66399999999928","768","428","j","true","img/C_ambi40.png","坏人","image_first",""
"","","","","","html-keyboard-response","258","823871","0.0-13.0-0.0-1.0-0.0-1.49","null","<span style='color:GreenYellow; font-size: 70px;'>正确! </span>","null","","","","","","","","","","","","","","","","","","","","","","","feedback_test"
"","","","","","psychophysics","259","825611","0.0-13.0-0.0-1.0-0.0-0.50","589","","j","","","","","","","","","","","","","key","j","16.66475000000075","768","428","j","true","img/T_ambi40.png","常人","image_first",""
"","","","","","html-keyboard-response","260","825915","0.0-13.0-0.0-1.0-0.0-1.50","null","<span style='color:GreenYellow; font-size: 70px;'>正确! </span>","null","","","","","","","","","","","","","","","","","","","","","","","feedback_test"
"","","","","","psychophysics","261","827928","0.0-13.0-0.0-1.0-0.0-0.51","860","","f","","","","","","","","","","","","","key","f","16.665608333333513","768","428","f","true","img/S_ambi40.png","常人","image_first",""
"","","","","","html-keyboard-response","262","828242","0.0-13.0-0.0-1.0-0.0-1.51","null","<span style='color:GreenYellow; font-size: 70px;'>正确! </span>","null","","","","","","","","","","","","","","","","","","","","","","","feedback_test"
"","","","","","psychophysics","263","830364","0.0-13.0-0.0-1.0-0.0-0.52","969","","f","","","","","","","","","","","","","key","f","16.66185039370119","768","428","f","true","img/T_ambi40.png","坏人","image_first",""
"","","","","","html-keyboard-response","264","830671","0.0-13.0-0.0-1.0-0.0-1.52","null","<span style='color:GreenYellow; font-size: 70px;'>正确! </span>","null","","","","","","","","","","","","","","","","","","","","","","","feedback_test"
"","","","","","psychophysics","265","832696","0.0-13.0-0.0-1.0-0.0-0.53","869","","f","","","","","","","","","","","","","key","f","16.665223140495613","768","428","f","true","img/C_ambi40.png","好人","image_first",""
"","","","","","html-keyboard-response","266","833013","0.0-13.0-0.0-1.0-0.0-1.53","null","<span style='color:GreenYellow; font-size: 70px;'>正确! </span>","null","","","","","","","","","","","","","","","","","","","","","","","feedback_test"
"","","","","","psychophysics","267","835084","0.0-13.0-0.0-1.0-0.0-0.54","917","","j","","","","","","","","","","","","","key","j","16.79787096774183","768","428","j","true","img/C_ambi40.png","常人","image_first",""
"","","","","","html-keyboard-response","268","835392","0.0-13.0-0.0-1.0-0.0-1.54","null","<span style='color:GreenYellow; font-size: 70px;'>正确! </span>","null","","","","","","","","","","","","","","","","","","","","","","","feedback_test"
"","","","","","psychophysics","269","837688","0.0-13.0-0.0-1.0-0.0-0.55","1138","","j","","","","","","","","","","","","","key","j","16.66482481751829","768","428","f","false","img/S_ambi40.png","常人","image_first",""
"","","","","","html-keyboard-response","270","837993","0.0-13.0-0.0-1.0-0.0-1.55","null","<span style='color:red; font-size: 70px;'>错误! </span>","null","","","","","","","","","","","","","","","","","","","","","","","feedback_test"
"","","","","","psychophysics","271","840320","0.0-13.0-0.0-1.0-0.0-0.56","1171","","j","","","","","","","","","","","","","key","j","16.666250000000165","768","428","j","true","img/T_ambi40.png","好人","image_first",""
"","","","","","html-keyboard-response","272","840630","0.0-13.0-0.0-1.0-0.0-1.56","null","<span style='color:GreenYellow; font-size: 70px;'>正确! </span>","null","","","","","","","","","","","","","","","","","","","","","","","feedback_test"
"","","","","","psychophysics","273","842567","0.0-13.0-0.0-1.0-0.0-0.57","784","","f","","","","","","","","","","","","","key","f","16.664612068965276","768","428","f","true","img/T_ambi40.png","坏人","image_first",""
"","","","","","html-keyboard-response","274","842870","0.0-13.0-0.0-1.0-0.0-1.57","null","<span style='color:GreenYellow; font-size: 70px;'>正确! </span>","null","","","","","","","","","","","","","","","","","","","","","","","feedback_test"
"","","","","","psychophysics","275","845076","0.0-13.0-0.0-1.0-0.0-0.58","1052","","j","","","","","","","","","","","","","key","j","16.66360606060621","768","428","j","true","img/S_ambi40.png","坏人","image_first",""
"","","","","","html-keyboard-response","276","845384","0.0-13.0-0.0-1.0-0.0-1.58","null","<span style='color:GreenYellow; font-size: 70px;'>正确! </span>","null","","","","","","","","","","","","","","","","","","","","","","","feedback_test"
"","","","","","psychophysics","277","847109","0.0-13.0-0.0-1.0-0.0-0.59","567","","f","","","","","","","","","","","","","key","f","16.665242718446784","768","428","f","true","img/C_ambi40.png","好人","image_first",""
"","","","","","html-keyboard-response","278","847416","0.0-13.0-0.0-1.0-0.0-1.59","null","<span style='color:GreenYellow; font-size: 70px;'>正确! </span>","null","","","","","","","","","","","","","","","","","","","","","","","feedback_test"
"","","","","","html-keyboard-response","279","850701","0.0-13.0-0.0-1.0-1.0","3284","<style>.context{color:white; font-size: 35px; line-height:40px}</style>                              <div><p class='context'>您正确回答了92% 的试次。</p><p class='context'>您的平均反应时为870毫秒。</p><p class='context'>请按任意键进入休息</p></div>"," ","","","","","","","","","","","","","","","","","","","","","","",""
"","","","","","html-button-response","280","1028144","0.0-13.0-0.0-1.0-2.0","177442","
                      <p>您当前还剩余3组实验</p>
                      <p>现在是休息时间，当您结束休息后，您可以点击 结束休息 按钮 继续</p>
                      <p>建议休息时间还剩余<span id=""iii"">60</span>秒</p>","0","","","","","","","","","","","","","","","","","","","","","","",""
"","","","","","psychophysics","281","1030143","0.0-13.0-0.0-1.0-0.1-0.60","835","","f","","","","","","","","","","","","","key","f","16.664184873950074","768","428","f","true","img/S_ambi40.png","常人","image_first",""
"","","","","","html-keyboard-response","282","1030448","0.0-13.0-0.0-1.0-0.1-1.60","null","<span style='color:GreenYellow; font-size: 70px;'>正确! </span>","null","","","","","","","","","","","","","","","","","","","","","","","feedback_test"
"","","","","","psychophysics","283","1032386","0.0-13.0-0.0-1.0-0.1-0.61","779","","j","","","","","","","","","","","","","key","j","16.664373913043907","768","428","j","true","img/S_ambi40.png","好人","image_first",""
"","","","","","html-keyboard-response","284","1032692","0.0-13.0-0.0-1.0-0.1-1.61","null","<span style='color:GreenYellow; font-size: 70px;'>正确! </span>","null","","","","","","","","","","","","","","","","","","","","","","","feedback_test"
"","","","","","psychophysics","285","1034589","0.0-13.0-0.0-1.0-0.1-0.62","737","","j","","","","","","","","","","","","","key","j","16.656752212389282","768","428","j","true","img/C_ambi40.png","常人","image_first",""
"","","","","","html-keyboard-response","286","1034898","0.0-13.0-0.0-1.0-0.1-1.62","null","<span style='color:GreenYellow; font-size: 70px;'>正确! </span>","null","","","","","","","","","","","","","","","","","","","","","","","feedback_test"
"","","","","","psychophysics","287","1036835","0.0-13.0-0.0-1.0-0.1-0.63","783","","j","","","","","","","","","","","","","key","j","16.664086206896425","768","428","j","true","img/T_ambi40.png","常人","image_first",""
"","","","","","html-keyboard-response","288","1037145","0.0-13.0-0.0-1.0-0.1-1.63","null","<span style='color:GreenYellow; font-size: 70px;'>正确! </span>","null","","","","","","","","","","","","","","","","","","","","","","","feedback_test"
"","","","","","psychophysics","289","1038801","0.0-13.0-0.0-1.0-0.1-0.64","500","","f","","","","","","","","","","","","","key","f","16.664500000000437","768","428","f","true","img/C_ambi40.png","好人","image_first",""
"","","","","","html-keyboard-response","290","1039104","0.0-13.0-0.0-1.0-0.1-1.64","null","<span style='color:GreenYellow; font-size: 70px;'>正确! </span>","null","","","","","","","","","","","","","","","","","","","","","","","feedback_test"
"","","","","","psychophysics","291","1041251","0.0-13.0-0.0-1.0-0.1-0.65","995","","j","","","","","","","","","","","","","key","j","16.665664062499673","768","428","j","true","img/S_ambi40.png","坏人","image_first",""
"","","","","","html-keyboard-response","292","1041565","0.0-13.0-0.0-1.0-0.1-1.65","null","<span style='color:GreenYellow; font-size: 70px;'>正确! </span>","null","","","","","","","","","","","","","","","","","","","","","","","feedback_test"
"","","","","","psychophysics","293","1043392","0.0-13.0-0.0-1.0-0.1-0.66","672","","j","","","","","","","","","","","","","key","j","16.660045454545287","768","428","j","true","img/C_ambi40.png","坏人","image_first",""
"","","","","","html-keyboard-response","294","1043705","0.0-13.0-0.0-1.0-0.1-1.66","null","<span style='color:GreenYellow; font-size: 70px;'>正确! </span>","null","","","","","","","","","","","","","","","","","","","","","","","feedback_test"
"","","","","","psychophysics","295","1045421","0.0-13.0-0.0-1.0-0.1-0.67","564","","f","","","","","","","","","","","","","key","f","16.665009900989787","768","428","f","true","img/C_ambi40.png","好人","image_first",""
"","","","","","html-keyboard-response","296","1045728","0.0-13.0-0.0-1.0-0.1-1.67","null","<span style='color:GreenYellow; font-size: 70px;'>正确! </span>","null","","","","","","","","","","","","","","","","","","","","","","","feedback_test"
"","","","","","psychophysics","297","1048251","0.0-13.0-0.0-1.0-0.1-0.68","1361","","f","","","","","","","","","","","","","key","f","16.664801324503372","768","428","f","true","img/T_ambi40.png","坏人","image_first",""
"","","","","","html-keyboard-response","298","1048559","0.0-13.0-0.0-1.0-0.1-1.68","null","<span style='color:GreenYellow; font-size: 70px;'>正确! </span>","null","","","","","","","","","","","","","","","","","","","","","","","feedback_test"
"","","","","","psychophysics","299","1050277","0.0-13.0-0.0-1.0-0.1-0.69","566","","j","","","","","","","","","","","","","key","j","16.65882524271785","768","428","j","true","img/T_ambi40.png","好人","image_first",""
"","","","","","html-keyboard-response","300","1050581","0.0-13.0-0.0-1.0-0.1-1.69","null","<span style='color:GreenYellow; font-size: 70px;'>正确! </span>","null","","","","","","","","","","","","","","","","","","","","","","","feedback_test"
"","","","","","psychophysics","301","1052518","0.0-13.0-0.0-1.0-0.1-0.70","780","","j","","","","","","","","","","","","","key","j","16.65987068965453","768","428","f","false","img/T_ambi40.png","坏人","image_first",""
"","","","","","html-keyboard-response","302","1052832","0.0-13.0-0.0-1.0-0.1-1.70","null","<span style='color:red; font-size: 70px;'>错误! </span>","null","","","","","","","","","","","","","","","","","","","","","","","feedback_test"
"","","","","","psychophysics","303","1054788","0.0-13.0-0.0-1.0-0.1-0.71","803","","f","","","","","","","","","","","","","key","f","16.663711864406526","768","428","f","true","img/S_ambi40.png","常人","image_first",""
"","","","","","html-keyboard-response","304","1055094","0.0-13.0-0.0-1.0-0.1-1.71","null","<span style='color:GreenYellow; font-size: 70px;'>正确! </span>","null","","","","","","","","","","","","","","","","","","","","","","","feedback_test"
"","","","","","psychophysics","305","1056793","0.0-13.0-0.0-1.0-0.1-0.72","548","","f","","","","","","","","","","","","","key","f","16.663336633663107","768","428","f","true","img/C_ambi40.png","好人","image_first",""
"","","","","","html-keyboard-response","306","1057099","0.0-13.0-0.0-1.0-0.1-1.72","null","<span style='color:GreenYellow; font-size: 70px;'>正确! </span>","null","","","","","","","","","","","","","","","","","","","","","","","feedback_test"
"","","","","","psychophysics","307","1059301","0.0-13.0-0.0-1.0-0.1-0.73","1047","","j","","","","","","","","","","","","","key","j","16.664863636364426","768","428","j","true","img/S_ambi40.png","坏人","image_first",""
"","","","","","html-keyboard-response","308","1059616","0.0-13.0-0.0-1.0-0.1-1.73","null","<span style='color:GreenYellow; font-size: 70px;'>正确! </span>","null","","","","","","","","","","","","","","","","","","","","","","","feedback_test"
"","","","","","psychophysics","309","1061842","0.0-13.0-0.0-1.0-0.1-0.74","1071","","j","","","","","","","","","","","","","key","j","16.79392481202967","768","428","j","true","img/S_ambi40.png","好人","image_first",""
"","","","","","html-keyboard-response","310","1062148","0.0-13.0-0.0-1.0-0.1-1.74","null","<span style='color:GreenYellow; font-size: 70px;'>正确! </span>","null","","","","","","","","","","","","","","","","","","","","","","","feedback_test"
"","","","","","psychophysics","311","1064019","0.0-13.0-0.0-1.0-0.1-0.75","716","","f","","","","","","","","","","","","","key","f","16.663468468468636","768","428","f","true","img/T_ambi40.png","坏人","image_first",""
"","","","","","html-keyboard-response","312","1064328","0.0-13.0-0.0-1.0-0.1-1.75","null","<span style='color:GreenYellow; font-size: 70px;'>正确! </span>","null","","","","","","","","","","","","","","","","","","","","","","","feedback_test"
"","","","","","psychophysics","313","1066502","0.0-13.0-0.0-1.0-0.1-0.76","1019","","j","","","","","","","","","","","","","key","j","16.66502307692292","768","428","j","true","img/C_ambi40.png","坏人","image_first",""
"","","","","","html-keyboard-response","314","1066813","0.0-13.0-0.0-1.0-0.1-1.76","null","<span style='color:GreenYellow; font-size: 70px;'>正确! </span>","null","","","","","","","","","","","","","","","","","","","","","","","feedback_test"
"","","","","","psychophysics","315","1069096","0.0-13.0-0.0-1.0-0.1-0.77","1130","","f","","","","","","","","","","","","","key","f","16.66550364963418","768","428","f","true","img/C_ambi40.png","好人","image_first",""
"","","","","","html-keyboard-response","316","1069404","0.0-13.0-0.0-1.0-0.1-1.77","null","<span style='color:GreenYellow; font-size: 70px;'>正确! </span>","null","","","","","","","","","","","","","","","","","","","","","","","feedback_test"
"","","","","","psychophysics","317","1071373","0.0-13.0-0.0-1.0-0.1-0.78","814","","j","","","","","","","","","","","","","key","j","16.662837606836828","768","428","j","true","img/T_ambi40.png","好人","image_first",""
"","","","","","html-keyboard-response","318","1071684","0.0-13.0-0.0-1.0-0.1-1.78","null","<span style='color:GreenYellow; font-size: 70px;'>正确! </span>","null","","","","","","","","","","","","","","","","","","","","","","","feedback_test"
"","","","","","psychophysics","319","1073743","0.0-13.0-0.0-1.0-0.1-0.79","908","","j","","","","","","","","","","","","","key","j","16.664357723577357","768","428","j","true","img/C_ambi40.png","常人","image_first",""
"","","","","","html-keyboard-response","320","1074048","0.0-13.0-0.0-1.0-0.1-1.79","null","<span style='color:GreenYellow; font-size: 70px;'>正确! </span>","null","","","","","","","","","","","","","","","","","","","","","","","feedback_test"
"","","","","","psychophysics","321","1076005","0.0-13.0-0.0-1.0-0.1-0.80","804","","f","","","","","","","","","","","","","key","f","16.8039316239321","768","428","f","true","img/S_ambi40.png","常人","image_first",""
"","","","","","html-keyboard-response","322","1076310","0.0-13.0-0.0-1.0-0.1-1.80","null","<span style='color:GreenYellow; font-size: 70px;'>正确! </span>","null","","","","","","","","","","","","","","","","","","","","","","","feedback_test"
"","","","","","psychophysics","323","1078035","0.0-13.0-0.0-1.0-0.1-0.81","566","","f","","","","","","","","","","","","","key","f","16.663460784315532","768","428","f","true","img/S_ambi40.png","常人","image_first",""
"","","","","","html-keyboard-response","324","1078350","0.0-13.0-0.0-1.0-0.1-1.81","null","<span style='color:GreenYellow; font-size: 70px;'>正确! </span>","null","","","","","","","","","","","","","","","","","","","","","","","feedback_test"
"","","","","","psychophysics","325","1080148","0.0-13.0-0.0-1.0-0.1-0.82","646","","j","","","","","","","","","","","","","key","j","16.66656074766287","768","428","j","true","img/T_ambi40.png","常人","image_first",""
"","","","","","html-keyboard-response","326","1080459","0.0-13.0-0.0-1.0-0.1-1.82","null","<span style='color:GreenYellow; font-size: 70px;'>正确! </span>","null","","","","","","","","","","","","","","","","","","","","","","","feedback_test"
"","","","","","psychophysics","327","1082628","0.0-13.0-0.0-1.0-0.1-0.83","1017","","f","","","","","","","","","","","","","key","f","16.663938461537832","768","428","f","true","img/T_ambi40.png","坏人","image_first",""
"","","","","","html-keyboard-response","328","1082936","0.0-13.0-0.0-1.0-0.1-1.83","null","<span style='color:GreenYellow; font-size: 70px;'>正确! </span>","null","","","","","","","","","","","","","","","","","","","","","","","feedback_test"
"","","","","","psychophysics","329","1085199","0.0-13.0-0.0-1.0-0.1-0.84","1111","","f","","","","","","","","","","","","","key","f","16.665119402984562","768","428","f","true","img/S_ambi40.png","常人","image_first",""
"","","","","","html-keyboard-response","330","1085501","0.0-13.0-0.0-1.0-0.1-1.84","null","<span style='color:GreenYellow; font-size: 70px;'>正确! </span>","null","","","","","","","","","","","","","","","","","","","","","","","feedback_test"
"","","","","","psychophysics","331","1087469","0.0-13.0-0.0-1.0-0.1-0.85","817","","f","","","","","","","","","","","","","key","f","16.66150847457594","768","428","f","true","img/T_ambi40.png","坏人","image_first",""
"","","","","","html-keyboard-response","332","1087774","0.0-13.0-0.0-1.0-0.1-1.85","null","<span style='color:GreenYellow; font-size: 70px;'>正确! </span>","null","","","","","","","","","","","","","","","","","","","","","","","feedback_test"
"","","","","","psychophysics","333","1089581","0.0-13.0-0.0-1.0-0.1-0.86","656","","j","","","","","","","","","","","","","key","j","16.660379629629595","768","428","j","true","img/T_ambi40.png","常人","image_first",""
"","","","","","html-keyboard-response","334","1089889","0.0-13.0-0.0-1.0-0.1-1.86","null","<span style='color:GreenYellow; font-size: 70px;'>正确! </span>","null","","","","","","","","","","","","","","","","","","","","","","","feedback_test"
"","","","","","psychophysics","335","1091790","0.0-13.0-0.0-1.0-0.1-0.87","746","","j","","","","","","","","","","","","","key","j","16.665672566372884","768","428","j","true","img/T_ambi40.png","好人","image_first",""
"","","","","","html-keyboard-response","336","1092094","0.0-13.0-0.0-1.0-0.1-1.87","null","<span style='color:GreenYellow; font-size: 70px;'>正确! </span>","null","","","","","","","","","","","","","","","","","","","","","","","feedback_test"
"","","","","","psychophysics","337","1094018","0.0-13.0-0.0-1.0-0.1-0.88","770","","f","","","","","","","","","","","","","key","f","16.667077586205338","768","428","j","false","img/S_ambi40.png","好人","image_first",""
"","","","","","html-keyboard-response","338","1094329","0.0-13.0-0.0-1.0-0.1-1.88","null","<span style='color:red; font-size: 70px;'>错误! </span>","null","","","","","","","","","","","","","","","","","","","","","","","feedback_test"
"","","","","","psychophysics","339","1096450","0.0-13.0-0.0-1.0-0.1-0.89","967","","j","","","","","","","","","","","","","key","j","16.79557480314915","768","428","j","true","img/C_ambi40.png","常人","image_first",""
"","","","","","html-keyboard-response","340","1096759","0.0-13.0-0.0-1.0-0.1-1.89","null","<span style='color:GreenYellow; font-size: 70px;'>正确! </span>","null","","","","","","","","","","","","","","","","","","","","","","","feedback_test"
"","","","","","psychophysics","341","1099089","0.0-13.0-0.0-1.0-0.1-0.90","1173","","f","","","","","","","","","","","","","key","f","16.664647482013958","768","428","f","true","img/S_ambi40.png","常人","image_first",""
"","","","","","html-keyboard-response","342","1099404","0.0-13.0-0.0-1.0-0.1-1.90","null","<span style='color:GreenYellow; font-size: 70px;'>正确! </span>","null","","","","","","","","","","","","","","","","","","","","","","","feedback_test"
"","","","","","psychophysics","343","1101561","0.0-13.0-0.0-1.0-0.1-0.91","1005","","f","","","","","","","","","","","","","key","f","16.6682015503865","768","428","f","true","img/T_ambi40.png","坏人","image_first",""
"","","","","","html-keyboard-response","344","1101870","0.0-13.0-0.0-1.0-0.1-1.91","null","<span style='color:GreenYellow; font-size: 70px;'>正确! </span>","null","","","","","","","","","","","","","","","","","","","","","","","feedback_test"
"","","","","","psychophysics","345","1103663","0.0-13.0-0.0-1.0-0.1-0.92","636","","f","","","","","","","","","","","","","key","f","16.665654205608348","768","428","f","true","img/C_ambi40.png","好人","image_first",""
"","","","","","html-keyboard-response","346","1103965","0.0-13.0-0.0-1.0-0.1-1.92","null","<span style='color:GreenYellow; font-size: 70px;'>正确! </span>","null","","","","","","","","","","","","","","","","","","","","","","","feedback_test"
"","","","","","psychophysics","347","1106104","0.0-13.0-0.0-1.0-0.1-0.93","989","","j","","","","","","","","","","","","","key","j","16.66691338582566","768","428","j","true","img/S_ambi40.png","坏人","image_first",""
"","","","","","html-keyboard-response","348","1106412","0.0-13.0-0.0-1.0-0.1-1.93","null","<span style='color:GreenYellow; font-size: 70px;'>正确! </span>","null","","","","","","","","","","","","","","","","","","","","","","","feedback_test"
"","","","","","psychophysics","349","1108669","0.0-13.0-0.0-1.0-0.1-0.94","1105","","f","","","","","","","","","","","","","key","f","16.66437777777858","768","428","f","true","img/C_ambi40.png","好人","image_first",""
"","","","","","html-keyboard-response","350","1108973","0.0-13.0-0.0-1.0-0.1-1.94","null","<span style='color:GreenYellow; font-size: 70px;'>正确! </span>","null","","","","","","","","","","","","","","","","","","","","","","","feedback_test"
"","","","","","psychophysics","351","1111409","0.0-13.0-0.0-1.0-0.1-0.95","1282","","j","","","","","","","","","","","","","key","j","16.666931506849135","768","428","j","true","img/C_ambi40.png","坏人","image_first",""
"","","","","","html-keyboard-response","352","1111714","0.0-13.0-0.0-1.0-0.1-1.95","null","<span style='color:GreenYellow; font-size: 70px;'>正确! </span>","null","","","","","","","","","","","","","","","","","","","","","","","feedback_test"
"","","","","","psychophysics","353","1113875","0.0-13.0-0.0-1.0-0.1-0.96","1011","","f","","","","","","","","","","","","","key","f","16.66596875000141","768","428","f","true","img/C_ambi40.png","好人","image_first",""
"","","","","","html-keyboard-response","354","1114184","0.0-13.0-0.0-1.0-0.1-1.96","null","<span style='color:GreenYellow; font-size: 70px;'>正确! </span>","null","","","","","","","","","","","","","","","","","","","","","","","feedback_test"
"","","","","","psychophysics","355","1115950","0.0-13.0-0.0-1.0-0.1-0.97","615","","j","","","","","","","","","","","","","key","j","16.661764150942272","768","428","j","true","img/C_ambi40.png","常人","image_first",""
"","","","","","html-keyboard-response","356","1116255","0.0-13.0-0.0-1.0-0.1-1.97","null","<span style='color:GreenYellow; font-size: 70px;'>正确! </span>","null","","","","","","","","","","","","","","","","","","","","","","","feedback_test"
"","","","","","psychophysics","357","1118760","0.0-13.0-0.0-1.0-0.1-0.98","1352","","j","","","","","","","","","","","","","key","j","16.66384666666544","768","428","j","true","img/S_ambi40.png","坏人","image_first",""
"","","","","","html-keyboard-response","358","1119066","0.0-13.0-0.0-1.0-0.1-1.98","null","<span style='color:GreenYellow; font-size: 70px;'>正确! </span>","null","","","","","","","","","","","","","","","","","","","","","","","feedback_test"
"","","","","","psychophysics","359","1121018","0.0-13.0-0.0-1.0-0.1-0.99","798","","j","","","","","","","","","","","","","key","j","16.664862068964105","768","428","j","true","img/C_ambi40.png","坏人","image_first",""
"","","","","","html-keyboard-response","360","1121333","0.0-13.0-0.0-1.0-0.1-1.99","null","<span style='color:GreenYellow; font-size: 70px;'>正确! </span>","null","","","","","","","","","","","","","","","","","","","","","","","feedback_test"
"","","","","","psychophysics","361","1122973","0.0-13.0-0.0-1.0-0.1-0.100","482","","f","","","","","","","","","","","","","key","f","16.661969387754134","768","428","f","true","img/C_ambi40.png","好人","image_first",""
"","","","","","html-keyboard-response","362","1123288","0.0-13.0-0.0-1.0-0.1-1.100","null","<span style='color:GreenYellow; font-size: 70px;'>正确! </span>","null","","","","","","","","","","","","","","","","","","","","","","","feedback_test"
"","","","","","psychophysics","363","1125111","0.0-13.0-0.0-1.0-0.1-0.101","664","","j","","","","","","","","","","","","","key","j","16.664293577982146","768","428","f","false","img/T_ambi40.png","坏人","image_first",""
"","","","","","html-keyboard-response","364","1125418","0.0-13.0-0.0-1.0-0.1-1.101","null","<span style='color:red; font-size: 70px;'>错误! </span>","null","","","","","","","","","","","","","","","","","","","","","","","feedback_test"
"","","","","","psychophysics","365","1127724","0.0-13.0-0.0-1.0-0.1-0.102","1145","","f","","","","","","","","","","","","","key","f","16.667051094890077","768","428","f","true","img/S_ambi40.png","常人","image_first",""
"","","","","","html-keyboard-response","366","1128031","0.0-13.0-0.0-1.0-0.1-1.102","null","<span style='color:GreenYellow; font-size: 70px;'>正确! </span>","null","","","","","","","","","","","","","","","","","","","","","","","feedback_test"
"","","","","","psychophysics","367","1129874","0.0-13.0-0.0-1.0-0.1-0.103","689","","j","","","","","","","","","","","","","key","j","16.661690909089522","768","428","j","true","img/T_ambi40.png","好人","image_first",""
"","","","","","html-keyboard-response","368","1130181","0.0-13.0-0.0-1.0-0.1-1.103","null","<span style='color:GreenYellow; font-size: 70px;'>正确! </span>","null","","","","","","","","","","","","","","","","","","","","","","","feedback_test"
"","","","","","psychophysics","369","1132414","0.0-13.0-0.0-1.0-0.1-0.104","1081","","f","","","","","","","","","","","","","key","f","16.664567164178422","768","428","f","true","img/T_ambi40.png","坏人","image_first",""
"","","","","","html-keyboard-response","370","1132720","0.0-13.0-0.0-1.0-0.1-1.104","null","<span style='color:GreenYellow; font-size: 70px;'>正确! </span>","null","","","","","","","","","","","","","","","","","","","","","","","feedback_test"
"","","","","","psychophysics","371","1135253","0.0-13.0-0.0-1.0-0.1-0.105","1374","","f","","","","","","","","","","","","","key","f","16.664496688741192","768","428","j","false","img/S_ambi40.png","好人","image_first",""
"","","","","","html-keyboard-response","372","1135568","0.0-13.0-0.0-1.0-0.1-1.105","null","<span style='color:red; font-size: 70px;'>错误! </span>","null","","","","","","","","","","","","","","","","","","","","","","","feedback_test"
"","","","","","psychophysics","373","1137701","0.0-13.0-0.0-1.0-0.1-0.106","973","","f","","","","","","","","","","","","","key","f","16.664898437500597","768","428","f","true","img/S_ambi40.png","常人","image_first",""
"","","","","","html-keyboard-response","374","1138010","0.0-13.0-0.0-1.0-0.1-1.106","null","<span style='color:GreenYellow; font-size: 70px;'>正确! </span>","null","","","","","","","","","","","","","","","","","","","","","","","feedback_test"
"","","","","","psychophysics","375","1139810","0.0-13.0-0.0-1.0-0.1-0.107","648","","j","","","","","","","","","","","","","key","j","16.665794392523278","768","428","j","true","img/T_ambi40.png","常人","image_first",""
"","","","","","html-keyboard-response","376","1140113","0.0-13.0-0.0-1.0-0.1-1.107","null","<span style='color:GreenYellow; font-size: 70px;'>正确! </span>","null","","","","","","","","","","","","","","","","","","","","","","","feedback_test"
"","","","","","psychophysics","377","1142448","0.0-13.0-0.0-1.0-0.1-0.108","1180","","j","","","","","","","","","","","","","key","j","16.66494964028662","768","428","j","true","img/S_ambi40.png","坏人","image_first",""
"","","","","","html-keyboard-response","378","1142755","0.0-13.0-0.0-1.0-0.1-1.108","null","<span style='color:GreenYellow; font-size: 70px;'>正确! </span>","null","","","","","","","","","","","","","","","","","","","","","","","feedback_test"
"","","","","","psychophysics","379","1144968","0.0-13.0-0.0-1.0-0.1-0.109","1057","","j","","","","","","","","","","","","","key","j","16.66318796992589","768","428","j","true","img/T_ambi40.png","好人","image_first",""
"","","","","","html-keyboard-response","380","1145275","0.0-13.0-0.0-1.0-0.1-1.109","null","<span style='color:GreenYellow; font-size: 70px;'>正确! </span>","null","","","","","","","","","","","","","","","","","","","","","","","feedback_test"
"","","","","","psychophysics","381","1147474","0.0-13.0-0.0-1.0-0.1-0.110","1048","","j","","","","","","","","","","","","","key","j","16.664687022900935","768","428","j","true","img/S_ambi40.png","好人","image_first",""
"","","","","","html-keyboard-response","382","1147787","0.0-13.0-0.0-1.0-0.1-1.110","null","<span style='color:GreenYellow; font-size: 70px;'>正确! </span>","null","","","","","","","","","","","","","","","","","","","","","","","feedback_test"
"","","","","","psychophysics","383","1149649","0.0-13.0-0.0-1.0-0.1-0.111","706","","f","","","","","","","","","","","","","key","f","16.664261261261327","768","428","f","true","img/C_ambi40.png","好人","image_first",""
"","","","","","html-keyboard-response","384","1149953","0.0-13.0-0.0-1.0-0.1-1.111","null","<span style='color:GreenYellow; font-size: 70px;'>正确! </span>","null","","","","","","","","","","","","","","","","","","","","","","","feedback_test"
"","","","","","psychophysics","385","1152148","0.0-13.0-0.0-1.0-0.1-0.112","1041","","f","","","","","","","","","","","","","key","f","16.66447727272647","768","428","f","true","img/S_ambi40.png","常人","image_first",""
"","","","","","html-keyboard-response","386","1152450","0.0-13.0-0.0-1.0-0.1-1.112","null","<span style='color:GreenYellow; font-size: 70px;'>正确! </span>","null","","","","","","","","","","","","","","","","","","","","","","","feedback_test"
"","","","","","psychophysics","387","1154951","0.0-13.0-0.0-1.0-0.1-0.113","1344","","f","","","","","","","","","","","","","key","f","16.66380666666664","768","428","f","true","img/T_ambi40.png","坏人","image_first",""
"","","","","","html-keyboard-response","388","1155261","0.0-13.0-0.0-1.0-0.1-1.113","null","<span style='color:GreenYellow; font-size: 70px;'>正确! </span>","null","","","","","","","","","","","","","","","","","","","","","","","feedback_test"
"","","","","","psychophysics","389","1157475","0.0-13.0-0.0-1.0-0.1-0.114","1049","","f","","","","","","","","","","","","","key","f","16.663664122138755","768","428","f","true","img/S_ambi40.png","常人","image_first",""
"","","","","","html-keyboard-response","390","1157783","0.0-13.0-0.0-1.0-0.1-1.114","null","<span style='color:GreenYellow; font-size: 70px;'>正确! </span>","null","","","","","","","","","","","","","","","","","","","","","","","feedback_test"
"","","","","","psychophysics","391","1159864","0.0-13.0-0.0-1.0-0.1-0.115","922","","f","","","","","","","","","","","","","key","f","16.667088000001385","768","428","j","false","img/C_ambi40.png","常人","image_first",""
"","","","","","html-keyboard-response","392","1160172","0.0-13.0-0.0-1.0-0.1-1.115","null","<span style='color:red; font-size: 70px;'>错误! </span>","null","","","","","","","","","","","","","","","","","","","","","","","feedback_test"
"","","","","","psychophysics","393","1162088","0.0-13.0-0.0-1.0-0.1-0.116","763","","j","","","","","","","","","","","","","key","j","16.664219298246806","768","428","j","true","img/C_ambi40.png","坏人","image_first",""
"","","","","","html-keyboard-response","394","1162396","0.0-13.0-0.0-1.0-0.1-1.116","null","<span style='color:GreenYellow; font-size: 70px;'>正确! </span>","null","","","","","","","","","","","","","","","","","","","","","","","feedback_test"
"","","","","","psychophysics","395","1164596","0.0-13.0-0.0-1.0-0.1-0.117","1047","","f","","","","","","","","","","","","","key","f","16.664136363637887","768","428","f","true","img/T_ambi40.png","坏人","image_first",""
"","","","","","html-keyboard-response","396","1164909","0.0-13.0-0.0-1.0-0.1-1.117","null","<span style='color:GreenYellow; font-size: 70px;'>正确! </span>","null","","","","","","","","","","","","","","","","","","","","","","","feedback_test"
"","","","","","psychophysics","397","1166918","0.0-13.0-0.0-1.0-0.1-0.118","859","","j","","","","","","","","","","","","","key","j","16.667424999998182","768","428","j","true","img/T_ambi40.png","常人","image_first",""
"","","","","","html-keyboard-response","398","1167223","0.0-13.0-0.0-1.0-0.1-1.118","null","<span style='color:GreenYellow; font-size: 70px;'>正确! </span>","null","","","","","","","","","","","","","","","","","","","","","","","feedback_test"
"","","","","","psychophysics","399","1168886","0.0-13.0-0.0-1.0-0.1-0.119","511","","f","","","","","","","","","","","","","key","f","16.664040816327727","768","428","f","true","img/C_ambi40.png","好人","image_first",""
"","","","","","html-keyboard-response","400","1169189","0.0-13.0-0.0-1.0-0.1-1.119","null","<span style='color:GreenYellow; font-size: 70px;'>正确! </span>","null","","","","","","","","","","","","","","","","","","","","","","","feedback_test"
"","","","","","html-keyboard-response","401","1170977","0.0-13.0-0.0-1.0-1.1","1787","<style>.context{color:white; font-size: 35px; line-height:40px}</style>                              <div><p class='context'>您正确回答了92% 的试次。</p><p class='context'>您的平均反应时为887毫秒。</p><p class='context'>请按任意键进入休息</p></div>"," ","","","","","","","","","","","","","","","","","","","","","","",""
"","","","","","html-button-response","402","1283386","0.0-13.0-0.0-1.0-2.1","112407","
                      <p>您当前还剩余2组实验</p>
                      <p>现在是休息时间，当您结束休息后，您可以点击 结束休息 按钮 继续</p>
                      <p>建议休息时间还剩余<span id=""iii"">60</span>秒</p>","0","","","","","","","","","","","","","","","","","","","","","","",""
"","","","","","psychophysics","403","1285391","0.0-13.0-0.0-1.0-0.2-0.120","848","","f","","","","","","","","","","","","","key","f","16.663134453781026","768","428","f","true","img/S_ambi40.png","常人","image_first",""
"","","","","","html-keyboard-response","404","1285701","0.0-13.0-0.0-1.0-0.2-1.120","null","<span style='color:GreenYellow; font-size: 70px;'>正确! </span>","null","","","","","","","","","","","","","","","","","","","","","","","feedback_test"
"","","","","","psychophysics","405","1287502","0.0-13.0-0.0-1.0-0.2-0.121","643","","f","","","","","","","","","","","","","key","f","16.665092592593282","768","428","f","true","img/T_ambi40.png","坏人","image_first",""
"","","","","","html-keyboard-response","406","1287813","0.0-13.0-0.0-1.0-0.2-1.121","null","<span style='color:GreenYellow; font-size: 70px;'>正确! </span>","null","","","","","","","","","","","","","","","","","","","","","","","feedback_test"
"","","","","","psychophysics","407","1289592","0.0-13.0-0.0-1.0-0.2-0.122","624","","j","","","","","","","","","","","","","key","j","16.664141509433733","768","428","j","true","img/C_ambi40.png","坏人","image_first",""
"","","","","","html-keyboard-response","408","1289901","0.0-13.0-0.0-1.0-0.2-1.122","null","<span style='color:GreenYellow; font-size: 70px;'>正确! </span>","null","","","","","","","","","","","","","","","","","","","","","","","feedback_test"
"","","","","","psychophysics","409","1291624","0.0-13.0-0.0-1.0-0.2-0.123","567","","f","","","","","","","","","","","","","key","f","16.664912621359548","768","428","f","true","img/C_ambi40.png","好人","image_first",""
"","","","","","html-keyboard-response","410","1291926","0.0-13.0-0.0-1.0-0.2-1.123","null","<span style='color:GreenYellow; font-size: 70px;'>正确! </span>","null","","","","","","","","","","","","","","","","","","","","","","","feedback_test"
"","","","","","psychophysics","411","1293732","0.0-13.0-0.0-1.0-0.2-0.124","650","","j","","","","","","","","","","","","","key","j","16.668324074074107","768","428","j","true","img/C_ambi40.png","常人","image_first",""
"","","","","","html-keyboard-response","412","1294035","0.0-13.0-0.0-1.0-0.2-1.124","null","<span style='color:GreenYellow; font-size: 70px;'>正确! </span>","null","","","","","","","","","","","","","","","","","","","","","","","feedback_test"
"","","","","","psychophysics","413","1296063","0.0-13.0-0.0-1.0-0.2-0.125","872","","f","","","","","","","","","","","","","key","f","16.664446280992106","768","428","f","true","img/S_ambi40.png","常人","image_first",""
"","","","","","html-keyboard-response","414","1296375","0.0-13.0-0.0-1.0-0.2-1.125","null","<span style='color:GreenYellow; font-size: 70px;'>正确! </span>","null","","","","","","","","","","","","","","","","","","","","","","","feedback_test"
"","","","","","psychophysics","415","1298593","0.0-13.0-0.0-1.0-0.2-0.126","1062","","f","","","","","","","","","","","","","key","f","16.66466165413639","768","428","f","true","img/T_ambi40.png","坏人","image_first",""
"","","","","","html-keyboard-response","416","1298904","0.0-13.0-0.0-1.0-0.2-1.126","null","<span style='color:GreenYellow; font-size: 70px;'>正确! </span>","null","","","","","","","","","","","","","","","","","","","","","","","feedback_test"
"","","","","","psychophysics","417","1300732","0.0-13.0-0.0-1.0-0.2-0.127","675","","j","","","","","","","","","","","","","key","j","16.66904587155943","768","428","j","true","img/S_ambi40.png","坏人","image_first",""
"","","","","","html-keyboard-response","418","1301044","0.0-13.0-0.0-1.0-0.2-1.127","null","<span style='color:GreenYellow; font-size: 70px;'>正确! </span>","null","","","","","","","","","","","","","","","","","","","","","","","feedback_test"
"","","","","","psychophysics","419","1303271","0.0-13.0-0.0-1.0-0.2-0.128","1069","","j","","","","","","","","","","","","","key","j","16.66440909090946","768","428","j","true","img/T_ambi40.png","常人","image_first",""
"","","","","","html-keyboard-response","420","1303585","0.0-13.0-0.0-1.0-0.2-1.128","null","<span style='color:GreenYellow; font-size: 70px;'>正确! </span>","null","","","","","","","","","","","","","","","","","","","","","","","feedback_test"
"","","","","","psychophysics","421","1305751","0.0-13.0-0.0-1.0-0.2-0.129","1011","","j","","","","","","","","","","","","","key","j","16.66786153846098","768","428","j","true","img/S_ambi40.png","好人","image_first",""
"","","","","","html-keyboard-response","422","1306052","0.0-13.0-0.0-1.0-0.2-1.129","null","<span style='color:GreenYellow; font-size: 70px;'>正确! </span>","null","","","","","","","","","","","","","","","","","","","","","","","feedback_test"
"","","","","","psychophysics","423","1307695","0.0-13.0-0.0-1.0-0.2-0.130","489","","f","","","","","","","","","","","","","key","f","16.66478571428547","768","428","f","true","img/C_ambi40.png","好人","image_first",""
"","","","","","html-keyboard-response","424","1307998","0.0-13.0-0.0-1.0-0.2-1.130","null","<span style='color:GreenYellow; font-size: 70px;'>正确! </span>","null","","","","","","","","","","","","","","","","","","","","","","","feedback_test"
"","","","","","psychophysics","425","1309941","0.0-13.0-0.0-1.0-0.2-0.131","791","","j","","","","","","","","","","","","","key","j","16.661801724138687","768","428","j","true","img/T_ambi40.png","好人","image_first",""
"","","","","","html-keyboard-response","426","1310257","0.0-13.0-0.0-1.0-0.2-1.131","null","<span style='color:GreenYellow; font-size: 70px;'>正确! </span>","null","","","","","","","","","","","","","","","","","","","","","","","feedback_test"
"","","","","","psychophysics","427","1311944","0.0-13.0-0.0-1.0-0.2-0.132","523","","f","","","","","","","","","","","","","key","f","16.664415841583292","768","428","f","true","img/C_ambi40.png","好人","image_first",""
"","","","","","html-keyboard-response","428","1312253","0.0-13.0-0.0-1.0-0.2-1.132","null","<span style='color:GreenYellow; font-size: 70px;'>正确! </span>","null","","","","","","","","","","","","","","","","","","","","","","","feedback_test"
"","","","","","psychophysics","429","1314148","0.0-13.0-0.0-1.0-0.2-0.133","743","","f","","","","","","","","","","","","","key","f","16.6671592920351","768","428","f","true","img/S_ambi40.png","常人","image_first",""
"","","","","","html-keyboard-response","430","1314455","0.0-13.0-0.0-1.0-0.2-1.133","null","<span style='color:GreenYellow; font-size: 70px;'>正确! </span>","null","","","","","","","","","","","","","","","","","","","","","","","feedback_test"
