"success","timeout","failed_images","failed_audio","failed_video","trial_type","trial_index","time_elapsed","internal_node_id","rt","stimulus","response","value","item_width_mm","item_height_mm","item_width_px","px2mm","view_dist_mm","item_width_deg","px2deg","scale_factor","win_width_deg","win_height_deg","view_history","response_type","key_press","avg_frame_time","center_x","center_y","correct_response","correct","Image","word","condition","screen_id"
"true","false","[]","[]","[]","preload","0","344","0.0-0.0","","","","","","","","","","","","","","","","","","","","","","","","","",""
"","","","","","html-keyboard-response","1","9308","0.0-1.0","8963","
     <p>您好，欢迎参加本次实验。</p>
     <p>为充分保障您的权利，请确保您已经知晓并同意《参与实验同意书》以及《数据公开知情同意书》。</p>
     <p>如果您未见过上述内容，请咨询实验员。</p>
     <p>如果您选择继续实验，则表示您已经清楚两份知情同意书的内容并同意。</p>
     <p> <div style = ""color: green""><按任意键至下页></div> </p>
     ","arrowdown","","","","","","","","","","","","","","","","","","","","","","",""
"","","","","","html-keyboard-response","2","12405","0.0-2.0","3096","
     <p>本实验首先需要您填写一些基本个人信息。</p>
     <p> <div style = ""color: green""><按任意键至下页></div></p>
     ","arrowdown","","","","","","","","","","","","","","","","","","","","","","",""
"","","","","","call-function","3","12407","0.0-3.0-0.0","","","","","","","","","","","","","","","","","","","","","","","","","",""
"","","","","","survey-html-form","4","18185","0.0-3.0-1.0","5774","","{""Q0"":""3""}","","","","","","","","","","","","","","","","","","","","","","",""
"","","","","","html-button-response","5","21741","0.0-3.0-2.0","3555","<p style = 'color : white'>您的性别</p>","0","","","","","","","","","","","","","","","","","","","","","","",""
"","","","","","survey-html-form","6","24631","0.0-3.0-3.0","2889","","{""Q0"":""1995""}","","","","","","","","","","","","","","","","","","","","","","",""
"","","","","","survey-html-form","7","26557","0.0-3.0-4.0","1925","","{""Q0"":""7""}","","","","","","","","","","","","","","","","","","","","","","",""
"","","","","","virtual-chinrest","8","63198","0.0-4.0","36638","","","","85.6","53.98","590.6330110823225","6.901080445277663","413.72","11.812660221646448","50","0.6433775167826432","30.72","14.44","","","","","","","","","","","",""
"true","","","","","fullscreen","9","65486","0.0-5.0","","","","","","","","","","","","","","","","","","","","","","","","","",""
"","","","","","instructions","10","97472","0.0-6.0","31985","","","","","","","","","","","","","","[{""page_index"":0,""viewing_time"":3136},{""page_index"":1,""viewing_time"":22480},{""page_index"":2,""viewing_time"":4646},{""page_index"":3,""viewing_time"":1723}]","","","","","","","","","","",""
"","","","","","psychophysics","11","99381","0.0-7.0-0.0-0.0","754","","j","","","","","","","","","","","","","key","j","16.810544642857167","768","428","j","true","img/S_ambi40.png","坏人","prac_image_first",""
"","","","","","html-keyboard-response","12","99683","0.0-7.0-0.0-1.0","null","<span style='color:GreenYellow; font-size: 70px;'>正确! </span>","null","","","","","","","","","","","","","","","","","","","","","","","feedback_test"
"","","","","","psychophysics","13","101448","0.0-7.0-0.0-0.1","612","","f","","","","","","","","","","","","","key","f","16.650519230769323","768","428","f","true","img/S_ambi40.png","好人","prac_image_first",""
"","","","","","html-keyboard-response","14","101749","0.0-7.0-0.0-1.1","null","<span style='color:GreenYellow; font-size: 70px;'>正确! </span>","null","","","","","","","","","","","","","","","","","","","","","","","feedback_test"
"","","","","","psychophysics","15","103522","0.0-7.0-0.0-0.2","622","","j","","","","","","","","","","","","","key","j","16.662609523809596","768","428","f","false","img/T_ambi40.png","坏人","prac_image_first",""
"","","","","","html-keyboard-response","16","103823","0.0-7.0-0.0-1.2","null","<span style='color:red; font-size: 70px;'>错误! </span>","null","","","","","","","","","","","","","","","","","","","","","","","feedback_test"
"","","","","","psychophysics","17","105562","0.0-7.0-0.0-0.3","586","","j","","","","","","","","","","","","","key","j","16.661368932038826","768","428","j","true","img/T_ambi40.png","好人","prac_image_first",""
"","","","","","html-keyboard-response","18","105865","0.0-7.0-0.0-1.3","null","<span style='color:GreenYellow; font-size: 70px;'>正确! </span>","null","","","","","","","","","","","","","","","","","","","","","","","feedback_test"
"","","","","","psychophysics","19","107592","0.0-7.0-0.0-0.4","576","","f","","","","","","","","","","","","","key","f","16.66126470588243","768","428","f","true","img/C_ambi40.png","坏人","prac_image_first",""
"","","","","","html-keyboard-response","20","107893","0.0-7.0-0.0-1.4","null","<span style='color:GreenYellow; font-size: 70px;'>正确! </span>","null","","","","","","","","","","","","","","","","","","","","","","","feedback_test"
"","","","","","psychophysics","21","109641","0.0-7.0-0.0-0.5","597","","f","","","","","","","","","","","","","key","f","16.662846153846168","768","428","f","true","img/S_ambi40.png","常人","prac_image_first",""
"","","","","","html-keyboard-response","22","109942","0.0-7.0-0.0-1.5","null","<span style='color:GreenYellow; font-size: 70px;'>正确! </span>","null","","","","","","","","","","","","","","","","","","","","","","","feedback_test"
"","","","","","psychophysics","23","111949","0.0-7.0-0.0-0.6","855","","f","","","","","","","","","","","","","key","f","16.661424999999994","768","428","f","true","img/T_ambi40.png","常人","prac_image_first",""
"","","","","","html-keyboard-response","24","112250","0.0-7.0-0.0-1.6","null","<span style='color:GreenYellow; font-size: 70px;'>正确! </span>","null","","","","","","","","","","","","","","","","","","","","","","","feedback_test"
"","","","","","psychophysics","25","114017","0.0-7.0-0.0-0.7","615","","j","","","","","","","","","","","","","key","j","16.66123809523803","768","428","j","true","img/C_ambi40.png","常人","prac_image_first",""
"","","","","","html-keyboard-response","26","114318","0.0-7.0-0.0-1.7","null","<span style='color:GreenYellow; font-size: 70px;'>正确! </span>","null","","","","","","","","","","","","","","","","","","","","","","","feedback_test"
"","","","","","psychophysics","27","115966","0.0-7.0-0.0-0.8","497","","j","","","","","","","","","","","","","key","j","16.659938775510195","768","428","j","true","img/S_ambi40.png","坏人","prac_image_first",""
"","","","","","html-keyboard-response","28","116269","0.0-7.0-0.0-1.8","null","<span style='color:GreenYellow; font-size: 70px;'>正确! </span>","null","","","","","","","","","","","","","","","","","","","","","","","feedback_test"
"","","","","","psychophysics","29","117877","0.0-7.0-0.0-0.9","456","","f","","","","","","","","","","","","","key","f","16.661168421052647","768","428","f","true","img/C_ambi40.png","好人","prac_image_first",""
"","","","","","html-keyboard-response","30","118179","0.0-7.0-0.0-1.9","null","<span style='color:GreenYellow; font-size: 70px;'>正确! </span>","null","","","","","","","","","","","","","","","","","","","","","","","feedback_test"
"","","","","","psychophysics","31","119764","0.0-7.0-0.0-0.10","434","","j","","","","","","","","","","","","","key","j","16.661276595744717","768","428","j","true","img/T_ambi40.png","好人","prac_image_first",""
"","","","","","html-keyboard-response","32","120065","0.0-7.0-0.0-1.10","null","<span style='color:GreenYellow; font-size: 70px;'>正确! </span>","null","","","","","","","","","","","","","","","","","","","","","","","feedback_test"
"","","","","","psychophysics","33","121642","0.0-7.0-0.0-0.11","426","","j","","","","","","","","","","","","","key","j","16.66117204301077","768","428","j","true","img/C_ambi40.png","常人","prac_image_first",""
"","","","","","html-keyboard-response","34","121943","0.0-7.0-0.0-1.11","null","<span style='color:GreenYellow; font-size: 70px;'>正确! </span>","null","","","","","","","","","","","","","","","","","","","","","","","feedback_test"
"","","","","","psychophysics","35","123496","0.0-7.0-0.0-0.12","401","","j","","","","","","","","","","","","","key","j","16.659576086956488","768","428","f","false","img/C_ambi40.png","好人","prac_image_first",""
"","","","","","html-keyboard-response","36","123797","0.0-7.0-0.0-1.12","null","<span style='color:red; font-size: 70px;'>错误! </span>","null","","","","","","","","","","","","","","","","","","","","","","","feedback_test"
"","","","","","psychophysics","37","125921","0.0-7.0-0.0-0.13","971","","f","","","","","","","","","","","","","key","f","17.349727272727357","768","428","f","true","img/T_ambi40.png","坏人","prac_image_first",""
"","","","","","html-keyboard-response","38","126222","0.0-7.0-0.0-1.13","null","<span style='color:GreenYellow; font-size: 70px;'>正确! </span>","null","","","","","","","","","","","","","","","","","","","","","","","feedback_test"
"","","","","","psychophysics","39","127897","0.0-7.0-0.0-0.14","523","","j","","","","","","","","","","","","","key","j","16.66100999999995","768","428","j","true","img/S_ambi40.png","坏人","prac_image_first",""
"","","","","","html-keyboard-response","40","128198","0.0-7.0-0.0-1.14","null","<span style='color:GreenYellow; font-size: 70px;'>正确! </span>","null","","","","","","","","","","","","","","","","","","","","","","","feedback_test"
"","","","","","psychophysics","41","129729","0.0-7.0-0.0-0.15","379","","j","","","","","","","","","","","","","key","j","16.660725274725316","768","428","j","true","img/T_ambi40.png","好人","prac_image_first",""
"","","","","","html-keyboard-response","42","130031","0.0-7.0-0.0-1.15","null","<span style='color:GreenYellow; font-size: 70px;'>正确! </span>","null","","","","","","","","","","","","","","","","","","","","","","","feedback_test"
"","","","","","psychophysics","43","131726","0.0-7.0-0.0-0.16","545","","f","","","","","","","","","","","","","key","f","16.660306930692986","768","428","f","true","img/S_ambi40.png","好人","prac_image_first",""
"","","","","","html-keyboard-response","44","132029","0.0-7.0-0.0-1.16","null","<span style='color:GreenYellow; font-size: 70px;'>正确! </span>","null","","","","","","","","","","","","","","","","","","","","","","","feedback_test"
"","","","","","psychophysics","45","133982","0.0-7.0-0.0-0.17","803","","f","","","","","","","","","","","","","key","f","16.66035344827582","768","428","f","true","img/S_ambi40.png","常人","prac_image_first",""
"","","","","","html-keyboard-response","46","134284","0.0-7.0-0.0-1.17","null","<span style='color:GreenYellow; font-size: 70px;'>正确! </span>","null","","","","","","","","","","","","","","","","","","","","","","","feedback_test"
"","","","","","psychophysics","47","135928","0.0-7.0-0.0-0.18","493","","j","","","","","","","","","","","","","key","j","17.748380434782554","768","428","j","true","img/S_ambi40.png","坏人","prac_image_first",""
"","","","","","html-keyboard-response","48","136230","0.0-7.0-0.0-1.18","null","<span style='color:GreenYellow; font-size: 70px;'>正确! </span>","null","","","","","","","","","","","","","","","","","","","","","","","feedback_test"
"","","","","","psychophysics","49","137908","0.0-7.0-0.0-0.19","526","","j","","","","","","","","","","","","","key","j","16.662129999999888","768","428","j","true","img/C_ambi40.png","常人","prac_image_first",""
"","","","","","html-keyboard-response","50","138209","0.0-7.0-0.0-1.19","null","<span style='color:GreenYellow; font-size: 70px;'>正确! </span>","null","","","","","","","","","","","","","","","","","","","","","","","feedback_test"
"","","","","","psychophysics","51","139752","0.0-7.0-0.0-0.20","390","","j","","","","","","","","","","","","","key","j","16.66117582417568","768","428","j","true","img/C_ambi40.png","常人","prac_image_first",""
"","","","","","html-keyboard-response","52","140054","0.0-7.0-0.0-1.20","null","<span style='color:GreenYellow; font-size: 70px;'>正确! </span>","null","","","","","","","","","","","","","","","","","","","","","","","feedback_test"
"","","","","","psychophysics","53","141652","0.0-7.0-0.0-0.21","446","","f","","","","","","","","","","","","","key","f","16.66009574468084","768","428","f","true","img/C_ambi40.png","坏人","prac_image_first",""
"","","","","","html-keyboard-response","54","141953","0.0-7.0-0.0-1.21","null","<span style='color:GreenYellow; font-size: 70px;'>正确! </span>","null","","","","","","","","","","","","","","","","","","","","","","","feedback_test"
"","","","","","psychophysics","55","143770","0.0-7.0-0.0-0.22","666","","j","","","","","","","","","","","","","key","j","16.66091666666654","768","428","j","true","img/T_ambi40.png","好人","prac_image_first",""
"","","","","","html-keyboard-response","56","144072","0.0-7.0-0.0-1.22","null","<span style='color:GreenYellow; font-size: 70px;'>正确! </span>","null","","","","","","","","","","","","","","","","","","","","","","","feedback_test"
"","","","","","psychophysics","57","145679","0.0-7.0-0.0-0.23","456","","f","","","","","","","","","","","","","key","f","16.660347368420826","768","428","f","true","img/T_ambi40.png","常人","prac_image_first",""
"","","","","","html-keyboard-response","58","145980","0.0-7.0-0.0-1.23","null","<span style='color:GreenYellow; font-size: 70px;'>正确! </span>","null","","","","","","","","","","","","","","","","","","","","","","","feedback_test"
"","","","","","html-keyboard-response","59","148205","0.0-8.0","2222","<style>.context{color:white; font-size: 35px; line-height:40px}</style>                              <div><p class='context'>您正确回答了92% 的试次。</p><p class='context'>您的平均反应时为573毫秒。</p><p class='context'>恭喜您完成这一阶段的练习。按任意键进入<span style='color: yellow;'>先文字后图形条件</span>的练习。</p></div>"," ","","","","","","","","","","","","","","","","","","","","","","",""
"","","","","","psychophysics","60","150605","0.0-9.0-0.0-0.0","1246","","f","","","","","","","","","","","","","key","f","16.660517482517466","768","428","f","true","img/T_ambi40.png","坏人","prac_word_first",""
"","","","","","html-keyboard-response","61","150906","0.0-9.0-0.0-1.0","null","<span style='color:GreenYellow; font-size: 70px;'>正确! </span>","null","","","","","","","","","","","","","","","","","","","","","","","feedback_test"
"","","","","","psychophysics","62","152701","0.0-9.0-0.0-0.1","644","","f","","","","","","","","","","","","","key","f","16.66045794392518","768","428","j","false","img/T_ambi40.png","好人","prac_word_first",""
"","","","","","html-keyboard-response","63","153003","0.0-9.0-0.0-1.1","null","<span style='color:red; font-size: 70px;'>错误! </span>","null","","","","","","","","","","","","","","","","","","","","","","","feedback_test"
"","","","","","psychophysics","64","154678","0.0-9.0-0.0-0.2","524","","j","","","","","","","","","","","","","key","j","16.6609292929293","768","428","j","true","img/C_ambi40.png","常人","prac_word_first",""
"","","","","","html-keyboard-response","65","154979","0.0-9.0-0.0-1.2","null","<span style='color:GreenYellow; font-size: 70px;'>正确! </span>","null","","","","","","","","","","","","","","","","","","","","","","","feedback_test"
"","","","","","psychophysics","66","156653","0.0-9.0-0.0-0.3","522","","j","","","","","","","","","","","","","key","j","16.662460000000138","768","428","j","true","img/T_ambi40.png","好人","prac_word_first",""
"","","","","","html-keyboard-response","67","156954","0.0-9.0-0.0-1.3","null","<span style='color:GreenYellow; font-size: 70px;'>正确! </span>","null","","","","","","","","","","","","","","","","","","","","","","","feedback_test"
"","","","","","psychophysics","68","158550","0.0-9.0-0.0-0.4","445","","j","","","","","","","","","","","","","key","j","17.58651111111103","768","428","j","true","img/S_ambi40.png","坏人","prac_word_first",""
"","","","","","html-keyboard-response","69","158852","0.0-9.0-0.0-1.4","null","<span style='color:GreenYellow; font-size: 70px;'>正确! </span>","null","","","","","","","","","","","","","","","","","","","","","","","feedback_test"
"","","","","","psychophysics","70","160478","0.0-9.0-0.0-0.5","475","","f","","","","","","","","","","","","","key","f","16.661239583333252","768","428","f","true","img/S_ambi40.png","常人","prac_word_first",""
"","","","","","html-keyboard-response","71","160779","0.0-9.0-0.0-1.5","null","<span style='color:GreenYellow; font-size: 70px;'>正确! </span>","null","","","","","","","","","","","","","","","","","","","","","","","feedback_test"
"","","","","","psychophysics","72","162466","0.0-9.0-0.0-0.6","536","","f","","","","","","","","","","","","","key","f","16.661630000000006","768","428","j","false","img/S_ambi40.png","坏人","prac_word_first",""
"","","","","","html-keyboard-response","73","162767","0.0-9.0-0.0-1.6","null","<span style='color:red; font-size: 70px;'>错误! </span>","null","","","","","","","","","","","","","","","","","","","","","","","feedback_test"
"","","","","","psychophysics","74","164442","0.0-9.0-0.0-0.7","523","","j","","","","","","","","","","","","","key","j","16.659898989899155","768","428","j","true","img/C_ambi40.png","常人","prac_word_first",""
"","","","","","html-keyboard-response","75","164743","0.0-9.0-0.0-1.7","null","<span style='color:GreenYellow; font-size: 70px;'>正确! </span>","null","","","","","","","","","","","","","","","","","","","","","","","feedback_test"
"","","","","","psychophysics","76","166520","0.0-9.0-0.0-0.8","626","","f","","","","","","","","","","","","","key","f","16.65150476190472","768","428","f","true","img/C_ambi40.png","好人","prac_word_first",""
"","","","","","html-keyboard-response","77","166822","0.0-9.0-0.0-1.8","null","<span style='color:GreenYellow; font-size: 70px;'>正确! </span>","null","","","","","","","","","","","","","","","","","","","","","","","feedback_test"
"","","","","","psychophysics","78","168649","0.0-9.0-0.0-0.9","675","","f","","","","","","","","","","","","","key","f","17.462461538461728","768","428","f","true","img/T_ambi40.png","常人","prac_word_first",""
"","","","","","html-keyboard-response","79","168950","0.0-9.0-0.0-1.9","null","<span style='color:GreenYellow; font-size: 70px;'>正确! </span>","null","","","","","","","","","","","","","","","","","","","","","","","feedback_test"
"","","","","","psychophysics","80","170862","0.0-9.0-0.0-0.10","760","","f","","","","","","","","","","","","","key","f","16.660868421052694","768","428","f","true","img/S_ambi40.png","好人","prac_word_first",""
"","","","","","html-keyboard-response","81","171163","0.0-9.0-0.0-1.10","null","<span style='color:GreenYellow; font-size: 70px;'>正确! </span>","null","","","","","","","","","","","","","","","","","","","","","","","feedback_test"
"","","","","","psychophysics","82","172822","0.0-9.0-0.0-0.11","507","","f","","","","","","","","","","","","","key","f","16.660469387755054","768","428","f","true","img/C_ambi40.png","坏人","prac_word_first",""
"","","","","","html-keyboard-response","83","173123","0.0-9.0-0.0-1.11","null","<span style='color:GreenYellow; font-size: 70px;'>正确! </span>","null","","","","","","","","","","","","","","","","","","","","","","","feedback_test"
"","","","","","psychophysics","84","174877","0.0-9.0-0.0-0.12","602","","j","","","","","","","","","","","","","key","j","16.66138095238102","768","428","f","false","img/T_ambi40.png","坏人","prac_word_first",""
"","","","","","html-keyboard-response","85","175178","0.0-9.0-0.0-1.12","null","<span style='color:red; font-size: 70px;'>错误! </span>","null","","","","","","","","","","","","","","","","","","","","","","","feedback_test"
"","","","","","psychophysics","86","177113","0.0-9.0-0.0-0.13","784","","f","","","","","","","","","","","","","key","f","16.66013913043476","768","428","f","true","img/C_ambi40.png","好人","prac_word_first",""
"","","","","","html-keyboard-response","87","177414","0.0-9.0-0.0-1.13","null","<span style='color:GreenYellow; font-size: 70px;'>正确! </span>","null","","","","","","","","","","","","","","","","","","","","","","","feedback_test"
"","","","","","psychophysics","88","179155","0.0-9.0-0.0-0.14","589","","f","","","","","","","","","","","","","key","f","17.51214285714288","768","428","f","true","img/T_ambi40.png","常人","prac_word_first",""
"","","","","","html-keyboard-response","89","179457","0.0-9.0-0.0-1.14","null","<span style='color:GreenYellow; font-size: 70px;'>正确! </span>","null","","","","","","","","","","","","","","","","","","","","","","","feedback_test"
"","","","","","psychophysics","90","181343","0.0-9.0-0.0-0.15","734","","f","","","","","","","","","","","","","key","f","16.661794642857267","768","428","f","true","img/C_ambi40.png","坏人","prac_word_first",""
"","","","","","html-keyboard-response","91","181645","0.0-9.0-0.0-1.15","null","<span style='color:GreenYellow; font-size: 70px;'>正确! </span>","null","","","","","","","","","","","","","","","","","","","","","","","feedback_test"
"","","","","","psychophysics","92","183505","0.0-9.0-0.0-0.16","708","","j","","","","","","","","","","","","","key","j","16.661009090909182","768","428","j","true","img/T_ambi40.png","好人","prac_word_first",""
"","","","","","html-keyboard-response","93","183806","0.0-9.0-0.0-1.16","null","<span style='color:GreenYellow; font-size: 70px;'>正确! </span>","null","","","","","","","","","","","","","","","","","","","","","","","feedback_test"
"","","","","","psychophysics","94","185433","0.0-9.0-0.0-0.17","475","","f","","","","","","","","","","","","","key","f","16.661468749999887","768","428","j","false","img/C_ambi40.png","常人","prac_word_first",""
"","","","","","html-keyboard-response","95","185734","0.0-9.0-0.0-1.17","null","<span style='color:red; font-size: 70px;'>错误! </span>","null","","","","","","","","","","","","","","","","","","","","","","","feedback_test"
"","","","","","psychophysics","96","187451","0.0-9.0-0.0-0.18","566","","f","","","","","","","","","","","","","key","f","16.662068627450864","768","428","f","true","img/S_ambi40.png","常人","prac_word_first",""
"","","","","","html-keyboard-response","97","187752","0.0-9.0-0.0-1.18","null","<span style='color:GreenYellow; font-size: 70px;'>正确! </span>","null","","","","","","","","","","","","","","","","","","","","","","","feedback_test"
"","","","","","psychophysics","98","189571","0.0-9.0-0.0-0.19","666","","j","","","","","","","","","","","","","key","j","17.465686274509803","768","428","j","true","img/C_ambi40.png","常人","prac_word_first",""
"","","","","","html-keyboard-response","99","189874","0.0-9.0-0.0-1.19","null","<span style='color:GreenYellow; font-size: 70px;'>正确! </span>","null","","","","","","","","","","","","","","","","","","","","","","","feedback_test"
"","","","","","psychophysics","100","191787","0.0-9.0-0.0-0.20","762","","j","","","","","","","","","","","","","key","j","16.661982456140482","768","428","j","true","img/S_ambi40.png","坏人","prac_word_first",""
"","","","","","html-keyboard-response","101","192088","0.0-9.0-0.0-1.20","null","<span style='color:GreenYellow; font-size: 70px;'>正确! </span>","null","","","","","","","","","","","","","","","","","","","","","","","feedback_test"
"","","","","","psychophysics","102","193702","0.0-9.0-0.0-0.21","463","","j","","","","","","","","","","","","","key","j","16.660736842105152","768","428","j","true","img/T_ambi40.png","好人","prac_word_first",""
"","","","","","html-keyboard-response","103","194003","0.0-9.0-0.0-1.21","null","<span style='color:GreenYellow; font-size: 70px;'>正确! </span>","null","","","","","","","","","","","","","","","","","","","","","","","feedback_test"
"","","","","","psychophysics","104","195717","0.0-9.0-0.0-0.22","561","","f","","","","","","","","","","","","","key","f","16.660999999999987","768","428","j","false","img/S_ambi40.png","坏人","prac_word_first",""
"","","","","","html-keyboard-response","105","196018","0.0-9.0-0.0-1.22","null","<span style='color:red; font-size: 70px;'>错误! </span>","null","","","","","","","","","","","","","","","","","","","","","","","feedback_test"
"","","","","","psychophysics","106","197737","0.0-9.0-0.0-0.23","567","","f","","","","","","","","","","","","","key","f","16.66114705882358","768","428","f","true","img/S_ambi40.png","好人","prac_word_first",""
"","","","","","html-keyboard-response","107","198038","0.0-9.0-0.0-1.23","null","<span style='color:GreenYellow; font-size: 70px;'>正确! </span>","null","","","","","","","","","","","","","","","","","","","","","","","feedback_test"
"","","","","","html-keyboard-response","108","201562","0.0-10.0","3522","<style>.context{color:white; font-size: 35px; line-height:40px}</style>                              <div><p class='context'>您正确回答了79% 的试次。</p><p class='context'>您的平均反应时为639毫秒。</p><p class='context'>恭喜您完成练习。按任意键进入<span style='color: yellow;'>图形和文字同时呈现条件</span>的练习。</p></div>","j","","","","","","","","","","","","","","","","","","","","","","",""
"","","","","","psychophysics","109","203380","0.0-11.0-0.0-0.0","815","","f","","","","","","","","","","","","","key","f","16.662462962962984","768","428","f","true","img/S_ambi40.png","好人","prac_simultaneous",""
"","","","","","html-keyboard-response","110","203682","0.0-11.0-0.0-1.0","null","<span style='color:GreenYellow; font-size: 70px;'>正确! </span>","null","","","","","","","","","","","","","","","","","","","","","","","feedback_test"
"","","","","","psychophysics","111","205377","0.0-11.0-0.0-0.1","692","","f","","","","","","","","","","","","","key","f","16.660080000000015","768","428","f","true","img/S_ambi40.png","常人","prac_simultaneous",""
"","","","","","html-keyboard-response","112","205678","0.0-11.0-0.0-1.1","null","<span style='color:GreenYellow; font-size: 70px;'>正确! </span>","null","","","","","","","","","","","","","","","","","","","","","","","feedback_test"
"","","","","","psychophysics","113","207405","0.0-11.0-0.0-0.2","726","","j","","","","","","","","","","","","","key","j","16.660980582524328","768","428","j","true","img/T_ambi40.png","好人","prac_simultaneous",""
"","","","","","html-keyboard-response","114","207706","0.0-11.0-0.0-1.2","null","<span style='color:GreenYellow; font-size: 70px;'>正确! </span>","null","","","","","","","","","","","","","","","","","","","","","","","feedback_test"
"","","","","","psychophysics","115","209473","0.0-11.0-0.0-0.3","767","","f","","","","","","","","","","","","","key","f","17.495260000000126","768","428","f","true","img/C_ambi40.png","好人","prac_simultaneous",""
"","","","","","html-keyboard-response","116","209775","0.0-11.0-0.0-1.3","null","<span style='color:GreenYellow; font-size: 70px;'>正确! </span>","null","","","","","","","","","","","","","","","","","","","","","","","feedback_test"
"","","","","","psychophysics","117","211349","0.0-11.0-0.0-0.4","573","","j","","","","","","","","","","","","","key","j","16.661329787233818","768","428","j","true","img/S_ambi40.png","坏人","prac_simultaneous",""
"","","","","","html-keyboard-response","118","211651","0.0-11.0-0.0-1.4","null","<span style='color:GreenYellow; font-size: 70px;'>正确! </span>","null","","","","","","","","","","","","","","","","","","","","","","","feedback_test"
"","","","","","psychophysics","119","213246","0.0-11.0-0.0-0.5","594","","f","","","","","","","","","","","","","key","f","16.660494736842136","768","428","f","true","img/C_ambi40.png","坏人","prac_simultaneous",""
"","","","","","html-keyboard-response","120","213547","0.0-11.0-0.0-1.5","null","<span style='color:GreenYellow; font-size: 70px;'>正确! </span>","null","","","","","","","","","","","","","","","","","","","","","","","feedback_test"
"","","","","","psychophysics","121","215372","0.0-11.0-0.0-0.6","824","","f","","","","","","","","","","","","","key","f","16.66096296296288","768","428","f","true","img/T_ambi40.png","坏人","prac_simultaneous",""
"","","","","","html-keyboard-response","122","215674","0.0-11.0-0.0-1.6","null","<span style='color:GreenYellow; font-size: 70px;'>正确! </span>","null","","","","","","","","","","","","","","","","","","","","","","","feedback_test"
"","","","","","psychophysics","123","217409","0.0-11.0-0.0-0.7","733","","j","","","","","","","","","","","","","key","j","16.661184466019265","768","428","j","true","img/T_ambi40.png","好人","prac_simultaneous",""
"","","","","","html-keyboard-response","124","217711","0.0-11.0-0.0-1.7","null","<span style='color:GreenYellow; font-size: 70px;'>正确! </span>","null","","","","","","","","","","","","","","","","","","","","","","","feedback_test"
"","","","","","psychophysics","125","219305","0.0-11.0-0.0-0.8","593","","f","","","","","","","","","","","","","key","f","16.65986170212737","768","428","j","false","img/S_ambi40.png","坏人","prac_simultaneous",""
"","","","","","html-keyboard-response","126","219605","0.0-11.0-0.0-1.8","null","<span style='color:red; font-size: 70px;'>错误! </span>","null","","","","","","","","","","","","","","","","","","","","","","","feedback_test"
"","","","","","psychophysics","127","221163","0.0-11.0-0.0-0.9","556","","j","","","","","","","","","","","","","key","j","16.660806451612764","768","428","j","true","img/C_ambi40.png","常人","prac_simultaneous",""
"","","","","","html-keyboard-response","128","221463","0.0-11.0-0.0-1.9","null","<span style='color:GreenYellow; font-size: 70px;'>正确! </span>","null","","","","","","","","","","","","","","","","","","","","","","","feedback_test"
"","","","","","psychophysics","129","223141","0.0-11.0-0.0-0.10","677","","f","","","","","","","","","","","","","key","f","16.659979797979684","768","428","f","true","img/T_ambi40.png","常人","prac_simultaneous",""
"","","","","","html-keyboard-response","130","223443","0.0-11.0-0.0-1.10","null","<span style='color:GreenYellow; font-size: 70px;'>正确! </span>","null","","","","","","","","","","","","","","","","","","","","","","","feedback_test"
"","","","","","psychophysics","131","225173","0.0-11.0-0.0-0.11","729","","j","","","","","","","","","","","","","key","j","16.661049019607805","768","428","j","true","img/C_ambi40.png","常人","prac_simultaneous",""
"","","","","","html-keyboard-response","132","225475","0.0-11.0-0.0-1.11","null","<span style='color:GreenYellow; font-size: 70px;'>正确! </span>","null","","","","","","","","","","","","","","","","","","","","","","","feedback_test"
"","","","","","psychophysics","133","227071","0.0-11.0-0.0-0.12","593","","f","","","","","","","","","","","","","key","f","16.660617021276575","768","428","f","true","img/C_ambi40.png","坏人","prac_simultaneous",""
"","","","","","html-keyboard-response","134","227373","0.0-11.0-0.0-1.12","null","<span style='color:GreenYellow; font-size: 70px;'>正确! </span>","null","","","","","","","","","","","","","","","","","","","","","","","feedback_test"
"","","","","","psychophysics","135","229006","0.0-11.0-0.0-0.13","633","","j","","","","","","","","","","","","","key","j","16.651156249999985","768","428","j","true","img/T_ambi40.png","好人","prac_simultaneous",""
"","","","","","html-keyboard-response","136","229308","0.0-11.0-0.0-1.13","null","<span style='color:GreenYellow; font-size: 70px;'>正确! </span>","null","","","","","","","","","","","","","","","","","","","","","","","feedback_test"
"","","","","","psychophysics","137","230790","0.0-11.0-0.0-0.14","481","","f","","","","","","","","","","","","","key","f","16.661659090909367","768","428","j","false","img/T_ambi40.png","好人","prac_simultaneous",""
"","","","","","html-keyboard-response","138","231091","0.0-11.0-0.0-1.14","null","<span style='color:red; font-size: 70px;'>错误! </span>","null","","","","","","","","","","","","","","","","","","","","","","","feedback_test"
"","","","","","psychophysics","139","232908","0.0-11.0-0.0-0.15","815","","j","","","","","","","","","","","","","key","j","17.81562376237621","768","428","j","true","img/S_ambi40.png","坏人","prac_simultaneous",""
"","","","","","html-keyboard-response","140","233210","0.0-11.0-0.0-1.15","null","<span style='color:GreenYellow; font-size: 70px;'>正确! </span>","null","","","","","","","","","","","","","","","","","","","","","","","feedback_test"
"","","","","","psychophysics","141","234932","0.0-11.0-0.0-0.16","721","","f","","","","","","","","","","","","","key","f","16.658117647058795","768","428","f","true","img/T_ambi40.png","坏人","prac_simultaneous",""
"","","","","","html-keyboard-response","142","235233","0.0-11.0-0.0-1.16","null","<span style='color:GreenYellow; font-size: 70px;'>正确! </span>","null","","","","","","","","","","","","","","","","","","","","","","","feedback_test"
"","","","","","psychophysics","143","236927","0.0-11.0-0.0-0.17","693","","f","","","","","","","","","","","","","key","f","16.66192079207913","768","428","f","true","img/T_ambi40.png","常人","prac_simultaneous",""
"","","","","","html-keyboard-response","144","237228","0.0-11.0-0.0-1.17","null","<span style='color:GreenYellow; font-size: 70px;'>正确! </span>","null","","","","","","","","","","","","","","","","","","","","","","","feedback_test"
"","","","","","psychophysics","145","238840","0.0-11.0-0.0-0.18","610","","j","","","","","","","","","","","","","key","j","16.660197916666828","768","428","j","true","img/C_ambi40.png","常人","prac_simultaneous",""
"","","","","","html-keyboard-response","146","239140","0.0-11.0-0.0-1.18","null","<span style='color:GreenYellow; font-size: 70px;'>正确! </span>","null","","","","","","","","","","","","","","","","","","","","","","","feedback_test"
"","","","","","psychophysics","147","240697","0.0-11.0-0.0-0.19","556","","f","","","","","","","","","","","","","key","f","16.661902173912928","768","428","f","true","img/C_ambi40.png","好人","prac_simultaneous",""
"","","","","","html-keyboard-response","148","240998","0.0-11.0-0.0-1.19","null","<span style='color:GreenYellow; font-size: 70px;'>正确! </span>","null","","","","","","","","","","","","","","","","","","","","","","","feedback_test"
"","","","","","psychophysics","149","242699","0.0-11.0-0.0-0.20","699","","j","","","","","","","","","","","","","key","j","17.527937500000007","768","428","j","true","img/S_ambi40.png","坏人","prac_simultaneous",""
"","","","","","html-keyboard-response","150","243001","0.0-11.0-0.0-1.20","null","<span style='color:GreenYellow; font-size: 70px;'>正确! </span>","null","","","","","","","","","","","","","","","","","","","","","","","feedback_test"
"","","","","","psychophysics","151","244637","0.0-11.0-0.0-0.21","635","","f","","","","","","","","","","","","","key","f","16.65728865979394","768","428","f","true","img/S_ambi40.png","常人","prac_simultaneous",""
"","","","","","html-keyboard-response","152","244938","0.0-11.0-0.0-1.21","null","<span style='color:GreenYellow; font-size: 70px;'>正确! </span>","null","","","","","","","","","","","","","","","","","","","","","","","feedback_test"
"","","","","","psychophysics","153","246560","0.0-11.0-0.0-0.22","621","","f","","","","","","","","","","","","","key","f","16.659593750000266","768","428","f","true","img/S_ambi40.png","好人","prac_simultaneous",""
"","","","","","html-keyboard-response","154","246862","0.0-11.0-0.0-1.22","null","<span style='color:GreenYellow; font-size: 70px;'>正确! </span>","null","","","","","","","","","","","","","","","","","","","","","","","feedback_test"
"","","","","","psychophysics","155","248522","0.0-11.0-0.0-0.23","659","","j","","","","","","","","","","","","","key","j","16.662464646464674","768","428","j","true","img/C_ambi40.png","常人","prac_simultaneous",""
"","","","","","html-keyboard-response","156","248823","0.0-11.0-0.0-1.23","null","<span style='color:GreenYellow; font-size: 70px;'>正确! </span>","null","","","","","","","","","","","","","","","","","","","","","","","feedback_test"
"","","","","","html-keyboard-response","157","250865","0.0-12.0","2041","<style>.context{color:white; font-size: 35px; line-height:40px}</style>                              <div><p class='context'>您正确回答了92% 的试次。</p><p class='context'>您的平均反应时为678毫秒。</p><p class='context'>恭喜您完成练习。按任意键进入正式实验。</p><p class='footer' style='font-size: 35px; line-height:40px;'>请在进入正式实验实验之前将您的<span style='color: lightgreen;'>食指</span>放在电脑键盘的相应键位上进行按键。</p>","j","","","","","","","","","","","","","","","","","","","","","","",""
"","","","","","html-keyboard-response","158","252488","0.0-13.0-1.0-0.0","1620","
      <p>请您将手指放在按键上，准备进入呈现顺序为<span style='color: yellow;'>先文字后图形条件</span>的正式匹配任务</p>
      <p> <div style = ""color: green""><按任意键进入下一阶段的匹配任务></div></p>
      ","j","","","","","","","","","","","","","","","","","","","","","","",""
"","","","","","psychophysics","159","254280","0.0-13.0-1.0-1.0-0.0-0.0","641","","j","","","","","","","","","","","","","key","j","16.98285576923081","768","428","f","false","img/C_ambi40.png","好人","word_first",""
"","","","","","html-keyboard-response","160","254582","0.0-13.0-1.0-1.0-0.0-1.0","null","<span style='color:red; font-size: 70px;'>错误! </span>","null","","","","","","","","","","","","","","","","","","","","","","","feedback_test"
"","","","","","psychophysics","161","256266","0.0-13.0-1.0-1.0-0.0-0.1","532","","j","","","","","","","","","","","","","key","j","16.66179999999993","768","428","j","true","img/S_ambi40.png","坏人","word_first",""
"","","","","","html-keyboard-response","162","256568","0.0-13.0-1.0-1.0-0.0-1.1","null","<span style='color:GreenYellow; font-size: 70px;'>正确! </span>","null","","","","","","","","","","","","","","","","","","","","","","","feedback_test"
"","","","","","psychophysics","163","258488","0.0-13.0-1.0-1.0-0.0-0.2","768","","j","","","","","","","","","","","","","key","j","16.660149122807127","768","428","j","true","img/C_ambi40.png","常人","word_first",""
"","","","","","html-keyboard-response","164","258789","0.0-13.0-1.0-1.0-0.0-1.2","null","<span style='color:GreenYellow; font-size: 70px;'>正确! </span>","null","","","","","","","","","","","","","","","","","","","","","","","feedback_test"
"","","","","","psychophysics","165","260453","0.0-13.0-1.0-1.0-0.0-0.3","512","","j","","","","","","","","","","","","","key","j","16.660474747474627","768","428","j","true","img/T_ambi40.png","好人","word_first",""
"","","","","","html-keyboard-response","166","260754","0.0-13.0-1.0-1.0-0.0-1.3","null","<span style='color:GreenYellow; font-size: 70px;'>正确! </span>","null","","","","","","","","","","","","","","","","","","","","","","","feedback_test"
"","","","","","psychophysics","167","262422","0.0-13.0-1.0-1.0-0.0-0.4","517","","f","","","","","","","","","","","","","key","f","16.660888888889033","768","428","f","true","img/T_ambi40.png","坏人","word_first",""
"","","","","","html-keyboard-response","168","262723","0.0-13.0-1.0-1.0-0.0-1.4","null","<span style='color:GreenYellow; font-size: 70px;'>正确! </span>","null","","","","","","","","","","","","","","","","","","","","","","","feedback_test"
"","","","","","psychophysics","169","264397","0.0-13.0-1.0-1.0-0.0-0.5","523","","j","","","","","","","","","","","","","key","j","16.829343434343247","768","428","j","true","img/C_ambi40.png","常人","word_first",""
"","","","","","html-keyboard-response","170","264698","0.0-13.0-1.0-1.0-0.0-1.5","null","<span style='color:GreenYellow; font-size: 70px;'>正确! </span>","null","","","","","","","","","","","","","","","","","","","","","","","feedback_test"
"","","","","","psychophysics","171","266530","0.0-13.0-1.0-1.0-0.0-0.6","681","","f","","","","","","","","","","","","","key","f","16.662477064219843","768","428","f","true","img/S_ambi40.png","好人","word_first",""
"","","","","","html-keyboard-response","172","266832","0.0-13.0-1.0-1.0-0.0-1.6","null","<span style='color:GreenYellow; font-size: 70px;'>正确! </span>","null","","","","","","","","","","","","","","","","","","","","","","","feedback_test"
"","","","","","psychophysics","173","268556","0.0-13.0-1.0-1.0-0.0-0.7","572","","j","","","","","","","","","","","","","key","j","16.660803921568647","768","428","j","true","img/T_ambi40.png","好人","word_first",""
"","","","","","html-keyboard-response","174","268857","0.0-13.0-1.0-1.0-0.0-1.7","null","<span style='color:GreenYellow; font-size: 70px;'>正确! </span>","null","","","","","","","","","","","","","","","","","","","","","","","feedback_test"
"","","","","","psychophysics","175","270521","0.0-13.0-1.0-1.0-0.0-0.8","513","","f","","","","","","","","","","","","","key","f","16.662626262626027","768","428","f","true","img/T_ambi40.png","常人","word_first",""
"","","","","","html-keyboard-response","176","270822","0.0-13.0-1.0-1.0-0.0-1.8","null","<span style='color:GreenYellow; font-size: 70px;'>正确! </span>","null","","","","","","","","","","","","","","","","","","","","","","","feedback_test"
"","","","","","psychophysics","177","272746","0.0-13.0-1.0-1.0-0.0-0.9","772","","f","","","","","","","","","","","","","key","f","16.66093043478246","768","428","f","true","img/S_ambi40.png","常人","word_first",""
"","","","","","html-keyboard-response","178","273048","0.0-13.0-1.0-1.0-0.0-1.9","null","<span style='color:GreenYellow; font-size: 70px;'>正确! </span>","null","","","","","","","","","","","","","","","","","","","","","","","feedback_test"
"","","","","","psychophysics","179","274866","0.0-13.0-1.0-1.0-0.0-0.10","667","","f","","","","","","","","","","","","","key","f","16.660444444444792","768","428","f","true","img/C_ambi40.png","坏人","word_first",""
"","","","","","html-keyboard-response","180","275167","0.0-13.0-1.0-1.0-0.0-1.10","null","<span style='color:GreenYellow; font-size: 70px;'>正确! </span>","null","","","","","","","","","","","","","","","","","","","","","","","feedback_test"
"","","","","","psychophysics","181","276793","0.0-13.0-1.0-1.0-0.0-0.11","475","","j","","","","","","","","","","","","","key","j","16.661226804123967","768","428","j","true","img/S_ambi40.png","坏人","word_first",""
"","","","","","html-keyboard-response","182","277095","0.0-13.0-1.0-1.0-0.0-1.11","null","<span style='color:GreenYellow; font-size: 70px;'>正确! </span>","null","","","","","","","","","","","","","","","","","","","","","","","feedback_test"
"","","","","","psychophysics","183","279021","0.0-13.0-1.0-1.0-0.0-0.12","775","","f","","","","","","","","","","","","","key","f","16.660850877192978","768","428","f","true","img/C_ambi40.png","坏人","word_first",""
"","","","","","html-keyboard-response","184","279323","0.0-13.0-1.0-1.0-0.0-1.12","null","<span style='color:GreenYellow; font-size: 70px;'>正确! </span>","null","","","","","","","","","","","","","","","","","","","","","","","feedback_test"
"","","","","","psychophysics","185","281081","0.0-13.0-1.0-1.0-0.0-0.13","606","","j","","","","","","","","","","","","","key","j","16.66120192307706","768","428","j","true","img/C_ambi40.png","常人","word_first",""
"","","","","","html-keyboard-response","186","281382","0.0-13.0-1.0-1.0-0.0-1.13","null","<span style='color:GreenYellow; font-size: 70px;'>正确! </span>","null","","","","","","","","","","","","","","","","","","","","","","","feedback_test"
"","","","","","psychophysics","187","283184","0.0-13.0-1.0-1.0-0.0-0.14","649","","j","","","","","","","","","","","","","key","j","16.659790476190945","768","428","j","true","img/S_ambi40.png","坏人","word_first",""
"","","","","","html-keyboard-response","188","283486","0.0-13.0-1.0-1.0-0.0-1.14","null","<span style='color:GreenYellow; font-size: 70px;'>正确! </span>","null","","","","","","","","","","","","","","","","","","","","","","","feedback_test"
"","","","","","psychophysics","189","285203","0.0-13.0-1.0-1.0-0.0-0.15","566","","f","","","","","","","","","","","","","key","f","16.661725490195927","768","428","f","true","img/S_ambi40.png","好人","word_first",""
"","","","","","html-keyboard-response","190","285504","0.0-13.0-1.0-1.0-0.0-1.15","null","<span style='color:GreenYellow; font-size: 70px;'>正确! </span>","null","","","","","","","","","","","","","","","","","","","","","","","feedback_test"
"","","","","","psychophysics","191","287126","0.0-13.0-1.0-1.0-0.0-0.16","470","","j","","","","","","","","","","","","","key","j","16.66114583333365","768","428","j","true","img/C_ambi40.png","常人","word_first",""
"","","","","","html-keyboard-response","192","287427","0.0-13.0-1.0-1.0-0.0-1.16","null","<span style='color:GreenYellow; font-size: 70px;'>正确! </span>","null","","","","","","","","","","","","","","","","","","","","","","","feedback_test"
"","","","","","psychophysics","193","289167","0.0-13.0-1.0-1.0-0.0-0.17","588","","f","","","","","","","","","","","","","key","f","16.660339805825377","768","428","f","true","img/C_ambi40.png","好人","word_first",""
"","","","","","html-keyboard-response","194","289468","0.0-13.0-1.0-1.0-0.0-1.17","null","<span style='color:GreenYellow; font-size: 70px;'>正确! </span>","null","","","","","","","","","","","","","","","","","","","","","","","feedback_test"
"","","","","","psychophysics","195","291263","0.0-13.0-1.0-1.0-0.0-0.18","645","","j","","","","","","","","","","","","","key","j","16.651235849056768","768","428","f","false","img/S_ambi40.png","常人","word_first",""
"","","","","","html-keyboard-response","196","291565","0.0-13.0-1.0-1.0-0.0-1.18","null","<span style='color:red; font-size: 70px;'>错误! </span>","null","","","","","","","","","","","","","","","","","","","","","","","feedback_test"
"","","","","","psychophysics","197","293277","0.0-13.0-1.0-1.0-0.0-0.19","561","","j","","","","","","","","","","","","","key","j","16.662362745097912","768","428","j","true","img/S_ambi40.png","坏人","word_first",""
"","","","","","html-keyboard-response","198","293578","0.0-13.0-1.0-1.0-0.0-1.19","null","<span style='color:GreenYellow; font-size: 70px;'>正确! </span>","null","","","","","","","","","","","","","","","","","","","","","","","feedback_test"
"","","","","","psychophysics","199","295236","0.0-13.0-1.0-1.0-0.0-0.20","505","","j","","","","","","","","","","","","","key","j","16.661373737373395","768","428","f","false","img/T_ambi40.png","坏人","word_first",""
"","","","","","html-keyboard-response","200","295538","0.0-13.0-1.0-1.0-0.0-1.20","null","<span style='color:red; font-size: 70px;'>错误! </span>","null","","","","","","","","","","","","","","","","","","","","","","","feedback_test"
"","","","","","psychophysics","201","297324","0.0-13.0-1.0-1.0-0.0-0.21","633","","f","","","","","","","","","","","","","key","f","16.660990566037757","768","428","f","true","img/T_ambi40.png","常人","word_first",""
"","","","","","html-keyboard-response","202","297626","0.0-13.0-1.0-1.0-0.0-1.21","null","<span style='color:GreenYellow; font-size: 70px;'>正确! </span>","null","","","","","","","","","","","","","","","","","","","","","","","feedback_test"
"","","","","","psychophysics","203","299457","0.0-13.0-1.0-1.0-0.0-0.22","681","","j","","","","","","","","","","","","","key","j","16.661183486238162","768","428","j","true","img/T_ambi40.png","好人","word_first",""
"","","","","","html-keyboard-response","204","299759","0.0-13.0-1.0-1.0-0.0-1.22","null","<span style='color:GreenYellow; font-size: 70px;'>正确! </span>","null","","","","","","","","","","","","","","","","","","","","","","","feedback_test"
"","","","","","psychophysics","205","301429","0.0-13.0-1.0-1.0-0.0-0.23","519","","f","","","","","","","","","","","","","key","f","16.66116161616178","768","428","j","false","img/T_ambi40.png","好人","word_first",""
"","","","","","html-keyboard-response","206","301730","0.0-13.0-1.0-1.0-0.0-1.23","null","<span style='color:red; font-size: 70px;'>错误! </span>","null","","","","","","","","","","","","","","","","","","","","","","","feedback_test"
"","","","","","psychophysics","207","303316","0.0-13.0-1.0-1.0-0.0-0.24","435","","j","","","","","","","","","","","","","key","j","16.657319148936175","768","428","j","true","img/T_ambi40.png","好人","word_first",""
"","","","","","html-keyboard-response","208","303617","0.0-13.0-1.0-1.0-0.0-1.24","null","<span style='color:GreenYellow; font-size: 70px;'>正确! </span>","null","","","","","","","","","","","","","","","","","","","","","","","feedback_test"
"","","","","","psychophysics","209","305548","0.0-13.0-1.0-1.0-0.0-0.25","780","","j","","","","","","","","","","","","","key","j","16.809044247787792","768","428","j","true","img/S_ambi40.png","坏人","word_first",""
"","","","","","html-keyboard-response","210","305850","0.0-13.0-1.0-1.0-0.0-1.25","null","<span style='color:GreenYellow; font-size: 70px;'>正确! </span>","null","","","","","","","","","","","","","","","","","","","","","","","feedback_test"
"","","","","","psychophysics","211","307555","0.0-13.0-1.0-1.0-0.0-0.26","555","","f","","","","","","","","","","","","","key","f","16.660504950495152","768","428","f","true","img/T_ambi40.png","常人","word_first",""
"","","","","","html-keyboard-response","212","307856","0.0-13.0-1.0-1.0-0.0-1.26","null","<span style='color:GreenYellow; font-size: 70px;'>正确! </span>","null","","","","","","","","","","","","","","","","","","","","","","","feedback_test"
"","","","","","psychophysics","213","309468","0.0-13.0-1.0-1.0-0.0-0.27","460","","j","","","","","","","","","","","","","key","j","16.661187500000477","768","428","j","true","img/C_ambi40.png","常人","word_first",""
"","","","","","html-keyboard-response","214","309769","0.0-13.0-1.0-1.0-0.0-1.27","null","<span style='color:GreenYellow; font-size: 70px;'>正确! </span>","null","","","","","","","","","","","","","","","","","","","","","","","feedback_test"
"","","","","","psychophysics","215","311476","0.0-13.0-1.0-1.0-0.0-0.28","555","","f","","","","","","","","","","","","","key","f","16.66154455445536","768","428","f","true","img/S_ambi40.png","好人","word_first",""
"","","","","","html-keyboard-response","216","311778","0.0-13.0-1.0-1.0-0.0-1.28","null","<span style='color:GreenYellow; font-size: 70px;'>正确! </span>","null","","","","","","","","","","","","","","","","","","","","","","","feedback_test"
"","","","","","psychophysics","217","313584","0.0-13.0-1.0-1.0-0.0-0.29","655","","f","","","","","","","","","","","","","key","f","16.661000000000126","768","428","f","true","img/T_ambi40.png","坏人","word_first",""
"","","","","","html-keyboard-response","218","313885","0.0-13.0-1.0-1.0-0.0-1.29","null","<span style='color:GreenYellow; font-size: 70px;'>正确! </span>","null","","","","","","","","","","","","","","","","","","","","","","","feedback_test"
"","","","","","psychophysics","219","315589","0.0-13.0-1.0-1.0-0.0-0.30","552","","j","","","","","","","","","","","","","key","j","16.66153465346537","768","428","j","true","img/C_ambi40.png","常人","word_first",""
"","","","","","html-keyboard-response","220","315891","0.0-13.0-1.0-1.0-0.0-1.30","null","<span style='color:GreenYellow; font-size: 70px;'>正确! </span>","null","","","","","","","","","","","","","","","","","","","","","","","feedback_test"
"","","","","","psychophysics","221","317620","0.0-13.0-1.0-1.0-0.0-0.31","577","","f","","","","","","","","","","","","","key","f","16.66189320388338","768","428","f","true","img/S_ambi40.png","常人","word_first",""
"","","","","","html-keyboard-response","222","317921","0.0-13.0-1.0-1.0-0.0-1.31","null","<span style='color:GreenYellow; font-size: 70px;'>正确! </span>","null","","","","","","","","","","","","","","","","","","","","","","","feedback_test"
"","","","","","psychophysics","223","319539","0.0-13.0-1.0-1.0-0.0-0.32","467","","j","","","","","","","","","","","","","key","j","16.660145833333445","768","428","j","true","img/T_ambi40.png","好人","word_first",""
"","","","","","html-keyboard-response","224","319840","0.0-13.0-1.0-1.0-0.0-1.32","null","<span style='color:GreenYellow; font-size: 70px;'>正确! </span>","null","","","","","","","","","","","","","","","","","","","","","","","feedback_test"
"","","","","","psychophysics","225","321437","0.0-13.0-1.0-1.0-0.0-0.33","446","","f","","","","","","","","","","","","","key","f","16.66216842105281","768","428","f","true","img/C_ambi40.png","好人","word_first",""
"","","","","","html-keyboard-response","226","321738","0.0-13.0-1.0-1.0-0.0-1.33","null","<span style='color:GreenYellow; font-size: 70px;'>正确! </span>","null","","","","","","","","","","","","","","","","","","","","","","","feedback_test"
"","","","","","psychophysics","227","323765","0.0-13.0-1.0-1.0-0.0-0.34","875","","j","","","","","","","","","","","","","key","j","16.662280991735525","768","428","j","true","img/S_ambi40.png","坏人","word_first",""
"","","","","","html-keyboard-response","228","324065","0.0-13.0-1.0-1.0-0.0-1.34","null","<span style='color:GreenYellow; font-size: 70px;'>正确! </span>","null","","","","","","","","","","","","","","","","","","","","","","","feedback_test"
"","","","","","psychophysics","229","325767","0.0-13.0-1.0-1.0-0.0-0.35","551","","f","","","","","","","","","","","","","key","f","16.998858585858464","768","428","f","true","img/C_ambi40.png","坏人","word_first",""
"","","","","","html-keyboard-response","230","326068","0.0-13.0-1.0-1.0-0.0-1.35","null","<span style='color:GreenYellow; font-size: 70px;'>正确! </span>","null","","","","","","","","","","","","","","","","","","","","","","","feedback_test"
"","","","","","psychophysics","231","327693","0.0-13.0-1.0-1.0-0.0-0.36","471","","j","","","","","","","","","","","","","key","j","16.66250515463894","768","428","f","false","img/T_ambi40.png","常人","word_first",""
"","","","","","html-keyboard-response","232","327994","0.0-13.0-1.0-1.0-0.0-1.36","null","<span style='color:red; font-size: 70px;'>错误! </span>","null","","","","","","","","","","","","","","","","","","","","","","","feedback_test"
"","","","","","psychophysics","233","329806","0.0-13.0-1.0-1.0-0.0-0.37","661","","f","","","","","","","","","","","","","key","f","16.66169444444434","768","428","f","true","img/S_ambi40.png","常人","word_first",""
"","","","","","html-keyboard-response","234","330108","0.0-13.0-1.0-1.0-0.0-1.37","null","<span style='color:GreenYellow; font-size: 70px;'>正确! </span>","null","","","","","","","","","","","","","","","","","","","","","","","feedback_test"
"","","","","","psychophysics","235","331860","0.0-13.0-1.0-1.0-0.0-0.38","601","","f","","","","","","","","","","","","","key","f","16.662096153846225","768","428","j","false","img/S_ambi40.png","坏人","word_first",""
"","","","","","html-keyboard-response","236","332161","0.0-13.0-1.0-1.0-0.0-1.38","null","<span style='color:red; font-size: 70px;'>错误! </span>","null","","","","","","","","","","","","","","","","","","","","","","","feedback_test"
"","","","","","psychophysics","237","333747","0.0-13.0-1.0-1.0-0.0-0.39","434","","j","","","","","","","","","","","","","key","j","16.659829787233786","768","428","j","true","img/T_ambi40.png","好人","word_first",""
"","","","","","html-keyboard-response","238","334048","0.0-13.0-1.0-1.0-0.0-1.39","null","<span style='color:GreenYellow; font-size: 70px;'>正确! </span>","null","","","","","","","","","","","","","","","","","","","","","","","feedback_test"
"","","","","","psychophysics","239","335827","0.0-13.0-1.0-1.0-0.0-0.40","628","","f","","","","","","","","","","","","","key","f","17.66203999999969","768","428","f","true","img/C_ambi40.png","坏人","word_first",""
"","","","","","html-keyboard-response","240","336128","0.0-13.0-1.0-1.0-0.0-1.40","null","<span style='color:GreenYellow; font-size: 70px;'>正确! </span>","null","","","","","","","","","","","","","","","","","","","","","","","feedback_test"
"","","","","","psychophysics","241","337880","0.0-13.0-1.0-1.0-0.0-0.41","600","","j","","","","","","","","","","","","","key","j","16.660567307692524","768","428","j","true","img/C_ambi40.png","常人","word_first",""
"","","","","","html-keyboard-response","242","338181","0.0-13.0-1.0-1.0-0.0-1.41","null","<span style='color:GreenYellow; font-size: 70px;'>正确! </span>","null","","","","","","","","","","","","","","","","","","","","","","","feedback_test"
"","","","","","psychophysics","243","339761","0.0-13.0-1.0-1.0-0.0-0.42","429","","j","","","","","","","","","","","","","key","j","16.661670212765802","768","428","f","false","img/T_ambi40.png","坏人","word_first",""
"","","","","","html-keyboard-response","244","340062","0.0-13.0-1.0-1.0-0.0-1.42","null","<span style='color:red; font-size: 70px;'>错误! </span>","null","","","","","","","","","","","","","","","","","","","","","","","feedback_test"
"","","","","","psychophysics","245","341819","0.0-13.0-1.0-1.0-0.0-0.43","606","","j","","","","","","","","","","","","","key","j","16.66138095238102","768","428","j","true","img/T_ambi40.png","好人","word_first",""
"","","","","","html-keyboard-response","246","342120","0.0-13.0-1.0-1.0-0.0-1.43","null","<span style='color:GreenYellow; font-size: 70px;'>正确! </span>","null","","","","","","","","","","","","","","","","","","","","","","","feedback_test"
"","","","","","psychophysics","247","343777","0.0-13.0-1.0-1.0-0.0-0.44","505","","f","","","","","","","","","","","","","key","f","16.659275510204047","768","428","f","true","img/C_ambi40.png","好人","word_first",""
"","","","","","html-keyboard-response","248","344078","0.0-13.0-1.0-1.0-0.0-1.44","null","<span style='color:GreenYellow; font-size: 70px;'>正确! </span>","null","","","","","","","","","","","","","","","","","","","","","","","feedback_test"
"","","","","","psychophysics","249","345948","0.0-13.0-1.0-1.0-0.0-0.45","719","","f","","","","","","","","","","","","","key","f","17.445471698113494","768","428","j","false","img/S_ambi40.png","坏人","word_first",""
"","","","","","html-keyboard-response","250","346249","0.0-13.0-1.0-1.0-0.0-1.45","null","<span style='color:red; font-size: 70px;'>错误! </span>","null","","","","","","","","","","","","","","","","","","","","","","","feedback_test"
"","","","","","psychophysics","251","347859","0.0-13.0-1.0-1.0-0.0-0.46","459","","j","","","","","","","","","","","","","key","j","16.66190526315783","768","428","j","true","img/C_ambi40.png","常人","word_first",""
"","","","","","html-keyboard-response","252","348160","0.0-13.0-1.0-1.0-0.0-1.46","null","<span style='color:GreenYellow; font-size: 70px;'>正确! </span>","null","","","","","","","","","","","","","","","","","","","","","","","feedback_test"
"","","","","","psychophysics","253","349902","0.0-13.0-1.0-1.0-0.0-0.47","590","","f","","","","","","","","","","","","","key","f","16.66063461538467","768","428","f","true","img/S_ambi40.png","好人","word_first",""
"","","","","","html-keyboard-response","254","350203","0.0-13.0-1.0-1.0-0.0-1.47","null","<span style='color:GreenYellow; font-size: 70px;'>正确! </span>","null","","","","","","","","","","","","","","","","","","","","","","","feedback_test"
"","","","","","psychophysics","255","352353","0.0-13.0-1.0-1.0-0.0-0.48","997","","f","","","","","","","","","","","","","key","f","16.661062499999844","768","428","f","true","img/S_ambi40.png","常人","word_first",""
"","","","","","html-keyboard-response","256","352655","0.0-13.0-1.0-1.0-0.0-1.48","null","<span style='color:GreenYellow; font-size: 70px;'>正确! </span>","null","","","","","","","","","","","","","","","","","","","","","","","feedback_test"
"","","","","","psychophysics","257","354491","0.0-13.0-1.0-1.0-0.0-0.49","685","","j","","","","","","","","","","","","","key","j","16.6625596330279","768","428","j","true","img/T_ambi40.png","好人","word_first",""
"","","","","","html-keyboard-response","258","354793","0.0-13.0-1.0-1.0-0.0-1.49","null","<span style='color:GreenYellow; font-size: 70px;'>正确! </span>","null","","","","","","","","","","","","","","","","","","","","","","","feedback_test"
"","","","","","psychophysics","259","356514","0.0-13.0-1.0-1.0-0.0-0.50","569","","f","","","","","","","","","","","","","key","f","16.660660194174852","768","428","f","true","img/C_ambi40.png","坏人","word_first",""
"","","","","","html-keyboard-response","260","356816","0.0-13.0-1.0-1.0-0.0-1.50","null","<span style='color:GreenYellow; font-size: 70px;'>正确! </span>","null","","","","","","","","","","","","","","","","","","","","","","","feedback_test"
"","","","","","psychophysics","261","358652","0.0-13.0-1.0-1.0-0.0-0.51","685","","j","","","","","","","","","","","","","key","j","17.804068627451116","768","428","j","true","img/T_ambi40.png","好人","word_first",""
"","","","","","html-keyboard-response","262","358953","0.0-13.0-1.0-1.0-0.0-1.51","null","<span style='color:GreenYellow; font-size: 70px;'>正确! </span>","null","","","","","","","","","","","","","","","","","","","","","","","feedback_test"
"","","","","","psychophysics","263","360606","0.0-13.0-1.0-1.0-0.0-0.52","503","","f","","","","","","","","","","","","","key","f","16.661285714285533","768","428","j","false","img/S_ambi40.png","坏人","word_first",""
"","","","","","html-keyboard-response","264","360907","0.0-13.0-1.0-1.0-0.0-1.52","null","<span style='color:red; font-size: 70px;'>错误! </span>","null","","","","","","","","","","","","","","","","","","","","","","","feedback_test"
"","","","","","psychophysics","265","362406","0.0-13.0-1.0-1.0-0.0-0.53","347","","j","","","","","","","","","","","","","key","j","16.66105617977498","768","428","j","true","img/C_ambi40.png","常人","word_first",""
"","","","","","html-keyboard-response","266","362707","0.0-13.0-1.0-1.0-0.0-1.53","null","<span style='color:GreenYellow; font-size: 70px;'>正确! </span>","null","","","","","","","","","","","","","","","","","","","","","","","feedback_test"
"","","","","","psychophysics","267","364453","0.0-13.0-1.0-1.0-0.0-0.54","595","","f","","","","","","","","","","","","","key","f","16.66080769230757","768","428","f","true","img/S_ambi40.png","好人","word_first",""
"","","","","","html-keyboard-response","268","364754","0.0-13.0-1.0-1.0-0.0-1.54","null","<span style='color:GreenYellow; font-size: 70px;'>正确! </span>","null","","","","","","","","","","","","","","","","","","","","","","","feedback_test"
"","","","","","psychophysics","269","366400","0.0-13.0-1.0-1.0-0.0-0.55","496","","f","","","","","","","","","","","","","key","f","16.661285714285533","768","428","j","false","img/C_ambi40.png","常人","word_first",""
"","","","","","html-keyboard-response","270","366702","0.0-13.0-1.0-1.0-0.0-1.55","null","<span style='color:red; font-size: 70px;'>错误! </span>","null","","","","","","","","","","","","","","","","","","","","","","","feedback_test"
"","","","","","psychophysics","271","368737","0.0-13.0-1.0-1.0-0.0-0.56","884","","j","","","","","","","","","","","","","key","j","17.379413793103343","768","428","f","false","img/T_ambi40.png","坏人","word_first",""
"","","","","","html-keyboard-response","272","369038","0.0-13.0-1.0-1.0-0.0-1.56","null","<span style='color:red; font-size: 70px;'>错误! </span>","null","","","","","","","","","","","","","","","","","","","","","","","feedback_test"
"","","","","","psychophysics","273","370811","0.0-13.0-1.0-1.0-0.0-0.57","621","","j","","","","","","","","","","","","","key","j","16.662415094339764","768","428","j","true","img/S_ambi40.png","坏人","word_first",""
"","","","","","html-keyboard-response","274","371114","0.0-13.0-1.0-1.0-0.0-1.57","null","<span style='color:GreenYellow; font-size: 70px;'>正确! </span>","null","","","","","","","","","","","","","","","","","","","","","","","feedback_test"
"","","","","","psychophysics","275","372953","0.0-13.0-1.0-1.0-0.0-0.58","689","","f","","","","","","","","","","","","","key","f","16.66180733944943","768","428","f","true","img/C_ambi40.png","好人","word_first",""
"","","","","","html-keyboard-response","276","373254","0.0-13.0-1.0-1.0-0.0-1.58","null","<span style='color:GreenYellow; font-size: 70px;'>正确! </span>","null","","","","","","","","","","","","","","","","","","","","","","","feedback_test"
"","","","","","psychophysics","277","375014","0.0-13.0-1.0-1.0-0.0-0.59","609","","j","","","","","","","","","","","","","key","j","16.662247619047275","768","428","f","false","img/T_ambi40.png","常人","word_first",""
"","","","","","html-keyboard-response","278","375316","0.0-13.0-1.0-1.0-0.0-1.59","null","<span style='color:red; font-size: 70px;'>错误! </span>","null","","","","","","","","","","","","","","","","","","","","","","","feedback_test"
"","","","","","html-keyboard-response","279","377025","0.0-13.0-1.0-1.0-1.0","1708","<style>.context{color:white; font-size: 35px; line-height:40px}</style>                              <div><p class='context'>您正确回答了80% 的试次。</p><p class='context'>您的平均反应时为597毫秒。</p><p class='context'>请按任意键进入休息</p></div>","j","","","","","","","","","","","","","","","","","","","","","","",""
"","","","","","html-button-response","280","400277","0.0-13.0-1.0-1.0-2.0","23249","
                      <p>您当前还剩余3组实验</p>
                      <p>现在是休息时间，当您结束休息后，您可以点击 结束休息 按钮 继续</p>
                      <p>建议休息时间还剩余<span id=""iii"">60</span>秒</p>","0","","","","","","","","","","","","","","","","","","","","","","",""
"","","","","","psychophysics","281","401924","0.0-13.0-1.0-1.0-0.1-0.60","496","","j","","","","","","","","","","","","","key","j","16.66120408163216","768","428","j","true","img/C_ambi40.png","常人","word_first",""
"","","","","","html-keyboard-response","282","402226","0.0-13.0-1.0-1.0-0.1-1.60","null","<span style='color:GreenYellow; font-size: 70px;'>正确! </span>","null","","","","","","","","","","","","","","","","","","","","","","","feedback_test"
"","","","","","psychophysics","283","403905","0.0-13.0-1.0-1.0-0.1-0.61","528","","j","","","","","","","","","","","","","key","j","16.661510000000124","768","428","j","true","img/T_ambi40.png","好人","word_first",""
"","","","","","html-keyboard-response","284","404206","0.0-13.0-1.0-1.0-0.1-1.61","null","<span style='color:GreenYellow; font-size: 70px;'>正确! </span>","null","","","","","","","","","","","","","","","","","","","","","","","feedback_test"
"","","","","","psychophysics","285","405874","0.0-13.0-1.0-1.0-0.1-0.62","518","","f","","","","","","","","","","","","","key","f","16.661181818181767","768","428","f","true","img/S_ambi40.png","常人","word_first",""
"","","","","","html-keyboard-response","286","406176","0.0-13.0-1.0-1.0-0.1-1.62","null","<span style='color:GreenYellow; font-size: 70px;'>正确! </span>","null","","","","","","","","","","","","","","","","","","","","","","","feedback_test"
"","","","","","psychophysics","287","407925","0.0-13.0-1.0-1.0-0.1-0.63","598","","j","","","","","","","","","","","","","key","j","16.661163461538447","768","428","j","true","img/T_ambi40.png","好人","word_first",""
"","","","","","html-keyboard-response","288","408226","0.0-13.0-1.0-1.0-0.1-1.63","null","<span style='color:GreenYellow; font-size: 70px;'>正确! </span>","null","","","","","","","","","","","","","","","","","","","","","","","feedback_test"
"","","","","","psychophysics","289","409926","0.0-13.0-1.0-1.0-0.1-0.64","549","","j","","","","","","","","","","","","","key","j","16.66156435643535","768","428","j","true","img/S_ambi40.png","坏人","word_first",""
"","","","","","html-keyboard-response","290","410227","0.0-13.0-1.0-1.0-0.1-1.64","null","<span style='color:GreenYellow; font-size: 70px;'>正确! </span>","null","","","","","","","","","","","","","","","","","","","","","","","feedback_test"
"","","","","","psychophysics","291","411845","0.0-13.0-1.0-1.0-0.1-0.65","467","","f","","","","","","","","","","","","","key","f","16.660833333333358","768","428","j","false","img/S_ambi40.png","坏人","word_first",""
"","","","","","html-keyboard-response","292","412146","0.0-13.0-1.0-1.0-0.1-1.65","null","<span style='color:red; font-size: 70px;'>错误! </span>","null","","","","","","","","","","","","","","","","","","","","","","","feedback_test"
"","","","","","psychophysics","293","413802","0.0-13.0-1.0-1.0-0.1-0.66","503","","j","","","","","","","","","","","","","key","j","16.661265306122488","768","428","f","false","img/T_ambi40.png","坏人","word_first",""
"","","","","","html-keyboard-response","294","414104","0.0-13.0-1.0-1.0-0.1-1.66","null","<span style='color:red; font-size: 70px;'>错误! </span>","null","","","","","","","","","","","","","","","","","","","","","","","feedback_test"
"","","","","","psychophysics","295","415774","0.0-13.0-1.0-1.0-0.1-0.67","518","","f","","","","","","","","","","","","","key","f","16.661767676767816","768","428","f","true","img/T_ambi40.png","常人","word_first",""
"","","","","","html-keyboard-response","296","416075","0.0-13.0-1.0-1.0-0.1-1.67","null","<span style='color:GreenYellow; font-size: 70px;'>正确! </span>","null","","","","","","","","","","","","","","","","","","","","","","","feedback_test"
"","","","","","psychophysics","297","417871","0.0-13.0-1.0-1.0-0.1-0.68","645","","j","","","","","","","","","","","","","key","j","17.48528712871254","768","428","f","false","img/C_ambi40.png","好人","word_first",""
"","","","","","html-keyboard-response","298","418172","0.0-13.0-1.0-1.0-0.1-1.68","null","<span style='color:red; font-size: 70px;'>错误! </span>","null","","","","","","","","","","","","","","","","","","","","","","","feedback_test"
"","","","","","psychophysics","299","419983","0.0-13.0-1.0-1.0-0.1-0.69","660","","f","","","","","","","","","","","","","key","f","16.66072222222229","768","428","f","true","img/S_ambi40.png","好人","word_first",""
"","","","","","html-keyboard-response","300","420286","0.0-13.0-1.0-1.0-0.1-1.69","null","<span style='color:GreenYellow; font-size: 70px;'>正确! </span>","null","","","","","","","","","","","","","","","","","","","","","","","feedback_test"
"","","","","","psychophysics","301","421952","0.0-13.0-1.0-1.0-0.1-0.70","516","","j","","","","","","","","","","","","","key","j","16.660272727272417","768","428","j","true","img/C_ambi40.png","常人","word_first",""
"","","","","","html-keyboard-response","302","422254","0.0-13.0-1.0-1.0-0.1-1.70","null","<span style='color:GreenYellow; font-size: 70px;'>正确! </span>","null","","","","","","","","","","","","","","","","","","","","","","","feedback_test"
"","","","","","psychophysics","303","424210","0.0-13.0-1.0-1.0-0.1-0.71","805","","f","","","","","","","","","","","","","key","f","16.66241880341853","768","428","f","true","img/C_ambi40.png","坏人","word_first",""
"","","","","","html-keyboard-response","304","424512","0.0-13.0-1.0-1.0-0.1-1.71","null","<span style='color:GreenYellow; font-size: 70px;'>正确! </span>","null","","","","","","","","","","","","","","","","","","","","","","","feedback_test"
"","","","","","psychophysics","305","426147","0.0-13.0-1.0-1.0-0.1-0.72","484","","j","","","","","","","","","","","","","key","j","16.662371134020617","768","428","j","true","img/T_ambi40.png","好人","word_first",""
"","","","","","html-keyboard-response","306","426449","0.0-13.0-1.0-1.0-0.1-1.72","null","<span style='color:GreenYellow; font-size: 70px;'>正确! </span>","null","","","","","","","","","","","","","","","","","","","","","","","feedback_test"
"","","","","","psychophysics","307","428299","0.0-13.0-1.0-1.0-0.1-0.73","699","","f","","","","","","","","","","","","","key","f","17.455428571428637","768","428","f","true","img/S_ambi40.png","常人","word_first",""
"","","","","","html-keyboard-response","308","428601","0.0-13.0-1.0-1.0-0.1-1.73","null","<span style='color:GreenYellow; font-size: 70px;'>正确! </span>","null","","","","","","","","","","","","","","","","","","","","","","","feedback_test"
"","","","","","psychophysics","309","430305","0.0-13.0-1.0-1.0-0.1-0.74","554","","f","","","","","","","","","","","","","key","f","16.662450980392226","768","428","f","true","img/C_ambi40.png","坏人","word_first",""
"","","","","","html-keyboard-response","310","430606","0.0-13.0-1.0-1.0-0.1-1.74","null","<span style='color:GreenYellow; font-size: 70px;'>正确! </span>","null","","","","","","","","","","","","","","","","","","","","","","","feedback_test"
"","","","","","psychophysics","311","432378","0.0-13.0-1.0-1.0-0.1-0.75","619","","f","","","","","","","","","","","","","key","f","16.661361904762174","768","428","j","false","img/C_ambi40.png","常人","word_first",""
"","","","","","html-keyboard-response","312","432679","0.0-13.0-1.0-1.0-0.1-1.75","null","<span style='color:red; font-size: 70px;'>错误! </span>","null","","","","","","","","","","","","","","","","","","","","","","","feedback_test"
"","","","","","psychophysics","313","434363","0.0-13.0-1.0-1.0-0.1-0.76","533","","f","","","","","","","","","","","","","key","f","16.660489999999992","768","428","j","false","img/S_ambi40.png","坏人","word_first",""
"","","","","","html-keyboard-response","314","434665","0.0-13.0-1.0-1.0-0.1-1.76","null","<span style='color:red; font-size: 70px;'>错误! </span>","null","","","","","","","","","","","","","","","","","","","","","","","feedback_test"
"","","","","","psychophysics","315","436427","0.0-13.0-1.0-1.0-0.1-0.77","612","","f","","","","","","","","","","","","","key","f","16.66073333333313","768","428","f","true","img/T_ambi40.png","常人","word_first",""
"","","","","","html-keyboard-response","316","436728","0.0-13.0-1.0-1.0-0.1-1.77","null","<span style='color:GreenYellow; font-size: 70px;'>正确! </span>","null","","","","","","","","","","","","","","","","","","","","","","","feedback_test"
"","","","","","psychophysics","317","439121","0.0-13.0-1.0-1.0-0.1-0.78","1241","","f","","","","","","","","","","","","","key","f","17.39134306569344","768","428","f","true","img/S_ambi40.png","好人","word_first",""
"","","","","","html-keyboard-response","318","439422","0.0-13.0-1.0-1.0-0.1-1.78","null","<span style='color:GreenYellow; font-size: 70px;'>正确! </span>","null","","","","","","","","","","","","","","","","","","","","","","","feedback_test"
"","","","","","psychophysics","319","441380","0.0-13.0-1.0-1.0-0.1-0.79","808","","f","","","","","","","","","","","","","key","f","16.660017241379606","768","428","f","true","img/T_ambi40.png","坏人","word_first",""
"","","","","","html-keyboard-response","320","441681","0.0-13.0-1.0-1.0-0.1-1.79","null","<span style='color:GreenYellow; font-size: 70px;'>正确! </span>","null","","","","","","","","","","","","","","","","","","","","","","","feedback_test"
"","","","","","psychophysics","321","443269","0.0-13.0-1.0-1.0-0.1-0.80","436","","j","","","","","","","","","","","","","key","j","16.661031578947473","768","428","j","true","img/C_ambi40.png","常人","word_first",""
"","","","","","html-keyboard-response","322","443571","0.0-13.0-1.0-1.0-0.1-1.80","null","<span style='color:GreenYellow; font-size: 70px;'>正确! </span>","null","","","","","","","","","","","","","","","","","","","","","","","feedback_test"
"","","","","","psychophysics","323","445232","0.0-13.0-1.0-1.0-0.1-0.81","510","","f","","","","","","","","","","","","","key","f","16.661642857143008","768","428","f","true","img/C_ambi40.png","好人","word_first",""
"","","","","","html-keyboard-response","324","445533","0.0-13.0-1.0-1.0-0.1-1.81","null","<span style='color:GreenYellow; font-size: 70px;'>正确! </span>","null","","","","","","","","","","","","","","","","","","","","","","","feedback_test"
"","","","","","psychophysics","325","447235","0.0-13.0-1.0-1.0-0.1-0.82","551","","j","","","","","","","","","","","","","key","j","16.662079207921323","768","428","j","true","img/S_ambi40.png","坏人","word_first",""
"","","","","","html-keyboard-response","326","447537","0.0-13.0-1.0-1.0-0.1-1.82","null","<span style='color:GreenYellow; font-size: 70px;'>正确! </span>","null","","","","","","","","","","","","","","","","","","","","","","","feedback_test"
"","","","","","psychophysics","327","449312","0.0-13.0-1.0-1.0-0.1-0.83","624","","j","","","","","","","","","","","","","key","j","17.495279999999912","768","428","j","true","img/T_ambi40.png","好人","word_first",""
"","","","","","html-keyboard-response","328","449614","0.0-13.0-1.0-1.0-0.1-1.83","null","<span style='color:GreenYellow; font-size: 70px;'>正确! </span>","null","","","","","","","","","","","","","","","","","","","","","","","feedback_test"
"","","","","","psychophysics","329","451291","0.0-13.0-1.0-1.0-0.1-0.84","526","","f","","","","","","","","","","","","","key","f","16.659949494949117","768","428","j","false","img/S_ambi40.png","坏人","word_first",""
"","","","","","html-keyboard-response","330","451592","0.0-13.0-1.0-1.0-0.1-1.84","null","<span style='color:red; font-size: 70px;'>错误! </span>","null","","","","","","","","","","","","","","","","","","","","","","","feedback_test"
"","","","","","psychophysics","331","453314","0.0-13.0-1.0-1.0-0.1-0.85","572","","j","","","","","","","","","","","","","key","j","16.661553398057823","768","428","j","true","img/C_ambi40.png","常人","word_first",""
"","","","","","html-keyboard-response","332","453617","0.0-13.0-1.0-1.0-0.1-1.85","null","<span style='color:GreenYellow; font-size: 70px;'>正确! </span>","null","","","","","","","","","","","","","","","","","","","","","","","feedback_test"
"","","","","","psychophysics","333","455503","0.0-13.0-1.0-1.0-0.1-0.86","735","","f","","","","","","","","","","","","","key","f","16.66048214285703","768","428","f","true","img/T_ambi40.png","坏人","word_first",""
"","","","","","html-keyboard-response","334","455805","0.0-13.0-1.0-1.0-0.1-1.86","null","<span style='color:GreenYellow; font-size: 70px;'>正确! </span>","null","","","","","","","","","","","","","","","","","","","","","","","feedback_test"
"","","","","","psychophysics","335","457797","0.0-13.0-1.0-1.0-0.1-0.87","840","","f","","","","","","","","","","","","","key","f","16.660823529412063","768","428","f","true","img/S_ambi40.png","好人","word_first",""
"","","","","","html-keyboard-response","336","458098","0.0-13.0-1.0-1.0-0.1-1.87","null","<span style='color:GreenYellow; font-size: 70px;'>正确! </span>","null","","","","","","","","","","","","","","","","","","","","","","","feedback_test"
"","","","","","psychophysics","337","459796","0.0-13.0-1.0-1.0-0.1-0.88","546","","j","","","","","","","","","","","","","key","j","17.71366315789484","768","428","j","true","img/C_ambi40.png","常人","word_first",""
"","","","","","html-keyboard-response","338","460098","0.0-13.0-1.0-1.0-0.1-1.88","null","<span style='color:GreenYellow; font-size: 70px;'>正确! </span>","null","","","","","","","","","","","","","","","","","","","","","","","feedback_test"
"","","","","","psychophysics","339","461851","0.0-13.0-1.0-1.0-0.1-0.89","602","","j","","","","","","","","","","","","","key","j","16.660048076922696","768","428","j","true","img/T_ambi40.png","好人","word_first",""
"","","","","","html-keyboard-response","340","462153","0.0-13.0-1.0-1.0-0.1-1.89","null","<span style='color:GreenYellow; font-size: 70px;'>正确! </span>","null","","","","","","","","","","","","","","","","","","","","","","","feedback_test"
"","","","","","psychophysics","341","463845","0.0-13.0-1.0-1.0-0.1-0.90","541","","f","","","","","","","","","","","","","key","f","16.661653465346436","768","428","j","false","img/T_ambi40.png","好人","word_first",""
"","","","","","html-keyboard-response","342","464146","0.0-13.0-1.0-1.0-0.1-1.90","null","<span style='color:red; font-size: 70px;'>错误! </span>","null","","","","","","","","","","","","","","","","","","","","","","","feedback_test"
"","","","","","psychophysics","343","465922","0.0-13.0-1.0-1.0-0.1-0.91","625","","j","","","","","","","","","","","","","key","j","16.66208571428544","768","428","f","false","img/C_ambi40.png","坏人","word_first",""
"","","","","","html-keyboard-response","344","466223","0.0-13.0-1.0-1.0-0.1-1.91","null","<span style='color:red; font-size: 70px;'>错误! </span>","null","","","","","","","","","","","","","","","","","","","","","","","feedback_test"
"","","","","","psychophysics","345","468126","0.0-13.0-1.0-1.0-0.1-0.92","751","","f","","","","","","","","","","","","","key","f","16.66219298245657","768","428","f","true","img/C_ambi40.png","好人","word_first",""
"","","","","","html-keyboard-response","346","468427","0.0-13.0-1.0-1.0-0.1-1.92","null","<span style='color:GreenYellow; font-size: 70px;'>正确! </span>","null","","","","","","","","","","","","","","","","","","","","","","","feedback_test"
"","","","","","psychophysics","347","470282","0.0-13.0-1.0-1.0-0.1-0.93","704","","f","","","","","","","","","","","","","key","f","16.66148181818214","768","428","f","true","img/S_ambi40.png","常人","word_first",""
"","","","","","html-keyboard-response","348","470584","0.0-13.0-1.0-1.0-0.1-1.93","null","<span style='color:GreenYellow; font-size: 70px;'>正确! </span>","null","","","","","","","","","","","","","","","","","","","","","","","feedback_test"
"","","","","","psychophysics","349","472679","0.0-13.0-1.0-1.0-0.1-0.94","943","","j","","","","","","","","","","","","","key","j","16.661064000000245","768","428","j","true","img/S_ambi40.png","坏人","word_first",""
"","","","","","html-keyboard-response","350","472980","0.0-13.0-1.0-1.0-0.1-1.94","null","<span style='color:GreenYellow; font-size: 70px;'>正确! </span>","null","","","","","","","","","","","","","","","","","","","","","","","feedback_test"
"","","","","","psychophysics","351","474681","0.0-13.0-1.0-1.0-0.1-0.95","549","","f","","","","","","","","","","","","","key","f","16.662811881188293","768","428","f","true","img/T_ambi40.png","常人","word_first",""
"","","","","","html-keyboard-response","352","474984","0.0-13.0-1.0-1.0-0.1-1.95","null","<span style='color:GreenYellow; font-size: 70px;'>正确! </span>","null","","","","","","","","","","","","","","","","","","","","","","","feedback_test"
"","","","","","psychophysics","353","476684","0.0-13.0-1.0-1.0-0.1-0.96","549","","j","","","","","","","","","","","","","key","j","16.662326732672874","768","428","j","true","img/S_ambi40.png","坏人","word_first",""
"","","","","","html-keyboard-response","354","476985","0.0-13.0-1.0-1.0-0.1-1.96","null","<span style='color:GreenYellow; font-size: 70px;'>正确! </span>","null","","","","","","","","","","","","","","","","","","","","","","","feedback_test"
"","","","","","psychophysics","355","478763","0.0-13.0-1.0-1.0-0.1-0.97","626","","f","","","","","","","","","","","","","key","f","17.486118811881745","768","428","f","true","img/T_ambi40.png","常人","word_first",""
"","","","","","html-keyboard-response","356","479064","0.0-13.0-1.0-1.0-0.1-1.97","null","<span style='color:GreenYellow; font-size: 70px;'>正确! </span>","null","","","","","","","","","","","","","","","","","","","","","","","feedback_test"
"","","","","","psychophysics","357","480953","0.0-13.0-1.0-1.0-0.1-0.98","736","","f","","","","","","","","","","","","","key","f","16.66108928571443","768","428","f","true","img/C_ambi40.png","坏人","word_first",""
"","","","","","html-keyboard-response","358","481254","0.0-13.0-1.0-1.0-0.1-1.98","null","<span style='color:GreenYellow; font-size: 70px;'>正确! </span>","null","","","","","","","","","","","","","","","","","","","","","","","feedback_test"
"","","","","","psychophysics","359","483244","0.0-13.0-1.0-1.0-0.1-0.99","838","","j","","","","","","","","","","","","","key","j","16.66217796610159","768","428","j","true","img/C_ambi40.png","常人","word_first",""
"","","","","","html-keyboard-response","360","483545","0.0-13.0-1.0-1.0-0.1-1.99","null","<span style='color:GreenYellow; font-size: 70px;'>正确! </span>","null","","","","","","","","","","","","","","","","","","","","","","","feedback_test"
"","","","","","psychophysics","361","485277","0.0-13.0-1.0-1.0-0.1-0.100","579","","j","","","","","","","","","","","","","key","j","16.6613009708738","768","428","j","true","img/T_ambi40.png","好人","word_first",""
"","","","","","html-keyboard-response","362","485579","0.0-13.0-1.0-1.0-0.1-1.100","null","<span style='color:GreenYellow; font-size: 70px;'>正确! </span>","null","","","","","","","","","","","","","","","","","","","","","","","feedback_test"
"","","","","","psychophysics","363","487213","0.0-13.0-1.0-1.0-0.1-0.101","483","","j","","","","","","","","","","","","","key","j","16.661556701031248","768","428","j","true","img/S_ambi40.png","坏人","word_first",""
"","","","","","html-keyboard-response","364","487513","0.0-13.0-1.0-1.0-0.1-1.101","null","<span style='color:GreenYellow; font-size: 70px;'>正确! </span>","null","","","","","","","","","","","","","","","","","","","","","","","feedback_test"
"","","","","","psychophysics","365","489158","0.0-13.0-1.0-1.0-0.1-0.102","494","","f","","","","","","","","","","","","","key","f","17.94343956043959","768","428","f","true","img/S_ambi40.png","常人","word_first",""
"","","","","","html-keyboard-response","366","489459","0.0-13.0-1.0-1.0-0.1-1.102","null","<span style='color:GreenYellow; font-size: 70px;'>正确! </span>","null","","","","","","","","","","","","","","","","","","","","","","","feedback_test"
"","","","","","psychophysics","367","491211","0.0-13.0-1.0-1.0-0.1-0.103","600","","f","","","","","","","","","","","","","key","f","16.660615384615085","768","428","f","true","img/S_ambi40.png","好人","word_first",""
"","","","","","html-keyboard-response","368","491513","0.0-13.0-1.0-1.0-0.1-1.103","null","<span style='color:GreenYellow; font-size: 70px;'>正确! </span>","null","","","","","","","","","","","","","","","","","","","","","","","feedback_test"
"","","","","","psychophysics","369","493175","0.0-13.0-1.0-1.0-0.1-0.104","510","","j","","","","","","","","","","","","","key","j","16.660111111111355","768","428","j","true","img/C_ambi40.png","常人","word_first",""
"","","","","","html-keyboard-response","370","493475","0.0-13.0-1.0-1.0-0.1-1.104","null","<span style='color:GreenYellow; font-size: 70px;'>正确! </span>","null","","","","","","","","","","","","","","","","","","","","","","","feedback_test"
"","","","","","psychophysics","371","495225","0.0-13.0-1.0-1.0-0.1-0.105","597","","f","","","","","","","","","","","","","key","f","16.660461538461767","768","428","f","true","img/T_ambi40.png","坏人","word_first",""
"","","","","","html-keyboard-response","372","495526","0.0-13.0-1.0-1.0-0.1-1.105","null","<span style='color:GreenYellow; font-size: 70px;'>正确! </span>","null","","","","","","","","","","","","","","","","","","","","","","","feedback_test"
"","","","","","psychophysics","373","497326","0.0-13.0-1.0-1.0-0.1-0.106","647","","f","","","","","","","","","","","","","key","f","16.65971962616792","768","428","f","true","img/C_ambi40.png","好人","word_first",""
"","","","","","html-keyboard-response","374","497627","0.0-13.0-1.0-1.0-0.1-1.106","null","<span style='color:GreenYellow; font-size: 70px;'>正确! </span>","null","","","","","","","","","","","","","","","","","","","","","","","feedback_test"
"","","","","","psychophysics","375","499449","0.0-13.0-1.0-1.0-0.1-0.107","671","","f","","","","","","","","","","","","","key","f","17.63069902912621","768","428","j","false","img/T_ambi40.png","好人","word_first",""
"","","","","","html-keyboard-response","376","499750","0.0-13.0-1.0-1.0-0.1-1.107","null","<span style='color:red; font-size: 70px;'>错误! </span>","null","","","","","","","","","","","","","","","","","","","","","","","feedback_test"
"","","","","","psychophysics","377","501389","0.0-13.0-1.0-1.0-0.1-0.108","488","","j","","","","","","","","","","","","","key","j","16.661938144330335","768","428","j","true","img/C_ambi40.png","常人","word_first",""
"","","","","","html-keyboard-response","378","501691","0.0-13.0-1.0-1.0-0.1-1.108","null","<span style='color:GreenYellow; font-size: 70px;'>正确! </span>","null","","","","","","","","","","","","","","","","","","","","","","","feedback_test"
"","","","","","psychophysics","379","503437","0.0-13.0-1.0-1.0-0.1-0.109","595","","f","","","","","","","","","","","","","key","f","16.661557692307934","768","428","f","true","img/S_ambi40.png","常人","word_first",""
"","","","","","html-keyboard-response","380","503738","0.0-13.0-1.0-1.0-0.1-1.109","null","<span style='color:GreenYellow; font-size: 70px;'>正确! </span>","null","","","","","","","","","","","","","","","","","","","","","","","feedback_test"
"","","","","","psychophysics","381","505596","0.0-13.0-1.0-1.0-0.1-0.110","708","","f","","","","","","","","","","","","","key","f","16.660873873873513","768","428","f","true","img/C_ambi40.png","坏人","word_first",""
"","","","","","html-keyboard-response","382","505897","0.0-13.0-1.0-1.0-0.1-1.110","null","<span style='color:GreenYellow; font-size: 70px;'>正确! </span>","null","","","","","","","","","","","","","","","","","","","","","","","feedback_test"
"","","","","","psychophysics","383","507468","0.0-13.0-1.0-1.0-0.1-0.111","420","","j","","","","","","","","","","","","","key","j","16.659849462365376","768","428","j","true","img/T_ambi40.png","好人","word_first",""
"","","","","","html-keyboard-response","384","507769","0.0-13.0-1.0-1.0-0.1-1.111","null","<span style='color:GreenYellow; font-size: 70px;'>正确! </span>","null","","","","","","","","","","","","","","","","","","","","","","","feedback_test"
"","","","","","psychophysics","385","509446","0.0-13.0-1.0-1.0-0.1-0.112","525","","j","","","","","","","","","","","","","key","j","17.536515789474116","768","428","j","true","img/S_ambi40.png","坏人","word_first",""
"","","","","","html-keyboard-response","386","509746","0.0-13.0-1.0-1.0-0.1-1.112","null","<span style='color:GreenYellow; font-size: 70px;'>正确! </span>","null","","","","","","","","","","","","","","","","","","","","","","","feedback_test"
"","","","","","psychophysics","387","511380","0.0-13.0-1.0-1.0-0.1-0.113","482","","f","","","","","","","","","","","","","key","f","16.660391752577517","768","428","f","true","img/T_ambi40.png","坏人","word_first",""
"","","","","","html-keyboard-response","388","511682","0.0-13.0-1.0-1.0-0.1-1.113","null","<span style='color:GreenYellow; font-size: 70px;'>正确! </span>","null","","","","","","","","","","","","","","","","","","","","","","","feedback_test"
"","","","","","psychophysics","389","513310","0.0-13.0-1.0-1.0-0.1-0.114","477","","j","","","","","","","","","","","","","key","j","16.661350515464047","768","428","j","true","img/T_ambi40.png","好人","word_first",""
"","","","","","html-keyboard-response","390","513612","0.0-13.0-1.0-1.0-0.1-1.114","null","<span style='color:GreenYellow; font-size: 70px;'>正确! </span>","null","","","","","","","","","","","","","","","","","","","","","","","feedback_test"
"","","","","","psychophysics","391","515355","0.0-13.0-1.0-1.0-0.1-0.115","591","","f","","","","","","","","","","","","","key","f","16.6598349514562","768","428","f","true","img/C_ambi40.png","好人","word_first",""
"","","","","","html-keyboard-response","392","515656","0.0-13.0-1.0-1.0-0.1-1.115","null","<span style='color:GreenYellow; font-size: 70px;'>正确! </span>","null","","","","","","","","","","","","","","","","","","","","","","","feedback_test"
"","","","","","psychophysics","393","517416","0.0-13.0-1.0-1.0-0.1-0.116","608","","f","","","","","","","","","","","","","key","f","16.65403846153864","768","428","f","true","img/S_ambi40.png","好人","word_first",""
"","","","","","html-keyboard-response","394","517717","0.0-13.0-1.0-1.0-0.1-1.116","null","<span style='color:GreenYellow; font-size: 70px;'>正确! </span>","null","","","","","","","","","","","","","","","","","","","","","","","feedback_test"
"","","","","","psychophysics","395","519358","0.0-13.0-1.0-1.0-0.1-0.117","490","","f","","","","","","","","","","","","","key","f","16.661510204081424","768","428","f","true","img/T_ambi40.png","常人","word_first",""
"","","","","","html-keyboard-response","396","519660","0.0-13.0-1.0-1.0-0.1-1.117","null","<span style='color:GreenYellow; font-size: 70px;'>正确! </span>","null","","","","","","","","","","","","","","","","","","","","","","","feedback_test"
"","","","","","psychophysics","397","521392","0.0-13.0-1.0-1.0-0.1-0.118","582","","j","","","","","","","","","","","","","key","j","16.661553398058388","768","428","j","true","img/S_ambi40.png","坏人","word_first",""
"","","","","","html-keyboard-response","398","521695","0.0-13.0-1.0-1.0-0.1-1.118","null","<span style='color:GreenYellow; font-size: 70px;'>正确! </span>","null","","","","","","","","","","","","","","","","","","","","","","","feedback_test"
"","","","","","psychophysics","399","523450","0.0-13.0-1.0-1.0-0.1-0.119","604","","j","","","","","","","","","","","","","key","j","16.661355769231495","768","428","j","true","img/C_ambi40.png","常人","word_first",""
"","","","","","html-keyboard-response","400","523752","0.0-13.0-1.0-1.0-0.1-1.119","null","<span style='color:GreenYellow; font-size: 70px;'>正确! </span>","null","","","","","","","","","","","","","","","","","","","","","","","feedback_test"
"","","","","","html-keyboard-response","401","524797","0.0-13.0-1.0-1.0-1.1","1043","<style>.context{color:white; font-size: 35px; line-height:40px}</style>                              <div><p class='context'>您正确回答了85% 的试次。</p><p class='context'>您的平均反应时为611毫秒。</p><p class='context'>请按任意键进入休息</p></div>","j","","","","","","","","","","","","","","","","","","","","","","",""
"","","","","","html-button-response","402","552426","0.0-13.0-1.0-1.0-2.1","27626","
                      <p>您当前还剩余2组实验</p>
                      <p>现在是休息时间，当您结束休息后，您可以点击 结束休息 按钮 继续</p>
                      <p>建议休息时间还剩余<span id=""iii"">60</span>秒</p>","0","","","","","","","","","","","","","","","","","","","","","","",""
"","","","","","psychophysics","403","554240","0.0-13.0-1.0-1.0-0.2-0.120","662","","f","","","","","","","","","","","","","key","f","16.660638888889313","768","428","f","true","img/T_ambi40.png","常人","word_first",""
"","","","","","html-keyboard-response","404","554542","0.0-13.0-1.0-1.0-0.2-1.120","null","<span style='color:GreenYellow; font-size: 70px;'>正确! </span>","null","","","","","","","","","","","","","","","","","","","","","","","feedback_test"
"","","","","","psychophysics","405","556258","0.0-13.0-1.0-1.0-0.2-0.121","565","","f","","","","","","","","","","","","","key","f","16.66220588235335","768","428","f","true","img/C_ambi40.png","坏人","word_first",""
"","","","","","html-keyboard-response","406","556560","0.0-13.0-1.0-1.0-0.2-1.121","null","<span style='color:GreenYellow; font-size: 70px;'>正确! </span>","null","","","","","","","","","","","","","","","","","","","","","","","feedback_test"
"","","","","","psychophysics","407","558287","0.0-13.0-1.0-1.0-0.2-0.122","576","","f","","","","","","","","","","","","","key","f","16.64751960784334","768","428","f","true","img/S_ambi40.png","常人","word_first",""
"","","","","","html-keyboard-response","408","558589","0.0-13.0-1.0-1.0-0.2-1.122","null","<span style='color:GreenYellow; font-size: 70px;'>正确! </span>","null","","","","","","","","","","","","","","","","","","","","","","","feedback_test"
"","","","","","psychophysics","409","560317","0.0-13.0-1.0-1.0-0.2-0.123","577","","j","","","","","","","","","","","","","key","j","16.660902912621115","768","428","j","true","img/C_ambi40.png","常人","word_first",""
"","","","","","html-keyboard-response","410","560619","0.0-13.0-1.0-1.0-0.2-1.123","null","<span style='color:GreenYellow; font-size: 70px;'>正确! </span>","null","","","","","","","","","","","","","","","","","","","","","","","feedback_test"
"","","","","","psychophysics","411","562345","0.0-13.0-1.0-1.0-0.2-0.124","575","","j","","","","","","","","","","","","","key","j","16.662252427183898","768","428","j","true","img/S_ambi40.png","坏人","word_first",""
"","","","","","html-keyboard-response","412","562647","0.0-13.0-1.0-1.0-0.2-1.124","null","<span style='color:GreenYellow; font-size: 70px;'>正确! </span>","null","","","","","","","","","","","","","","","","","","","","","","","feedback_test"
"","","","","","psychophysics","413","564218","0.0-13.0-1.0-1.0-0.2-0.125","419","","j","","","","","","","","","","","","","key","j","16.660344086021624","768","428","j","true","img/T_ambi40.png","好人","word_first",""
"","","","","","html-keyboard-response","414","564519","0.0-13.0-1.0-1.0-0.2-1.125","null","<span style='color:GreenYellow; font-size: 70px;'>正确! </span>","null","","","","","","","","","","","","","","","","","","","","","","","feedback_test"
"","","","","","psychophysics","415","566150","0.0-13.0-1.0-1.0-0.2-0.126","480","","f","","","","","","","","","","","","","key","f","16.661164948452726","768","428","f","true","img/S_ambi40.png","好人","word_first",""
"","","","","","html-keyboard-response","416","566451","0.0-13.0-1.0-1.0-0.2-1.126","null","<span style='color:GreenYellow; font-size: 70px;'>正确! </span>","null","","","","","","","","","","","","","","","","","","","","","","","feedback_test"
"","","","","","psychophysics","417","568360","0.0-13.0-1.0-1.0-0.2-0.127","757","","f","","","","","","","","","","","","","key","f","16.660298245613824","768","428","f","true","img/T_ambi40.png","坏人","word_first",""
"","","","","","html-keyboard-response","418","568661","0.0-13.0-1.0-1.0-0.2-1.127","null","<span style='color:GreenYellow; font-size: 70px;'>正确! </span>","null","","","","","","","","","","","","","","","","","","","","","","","feedback_test"
"","","","","","psychophysics","419","570436","0.0-13.0-1.0-1.0-0.2-0.128","622","","f","","","","","","","","","","","","","key","f","16.660761904761948","768","428","f","true","img/C_ambi40.png","好人","word_first",""
"","","","","","html-keyboard-response","420","570737","0.0-13.0-1.0-1.0-0.2-1.128","null","<span style='color:GreenYellow; font-size: 70px;'>正确! </span>","null","","","","","","","","","","","","","","","","","","","","","","","feedback_test"
"","","","","","psychophysics","421","572378","0.0-13.0-1.0-1.0-0.2-0.129","490","","j","","","","","","","","","","","","","key","j","16.661612244897846","768","428","j","true","img/C_ambi40.png","常人","word_first",""
"","","","","","html-keyboard-response","422","572679","0.0-13.0-1.0-1.0-0.2-1.129","null","<span style='color:GreenYellow; font-size: 70px;'>正确! </span>","null","","","","","","","","","","","","","","","","","","","","","","","feedback_test"
"","","","","","psychophysics","423","574248","0.0-13.0-1.0-1.0-0.2-0.130","417","","j","","","","","","","","","","","","","key","j","16.6606881720432","768","428","j","true","img/T_ambi40.png","好人","word_first",""
"","","","","","html-keyboard-response","424","574550","0.0-13.0-1.0-1.0-0.2-1.130","null","<span style='color:GreenYellow; font-size: 70px;'>正确! </span>","null","","","","","","","","","","","","","","","","","","","","","","","feedback_test"
"","","","","","psychophysics","425","576234","0.0-13.0-1.0-1.0-0.2-0.131","534","","j","","","","","","","","","","","","","key","j","16.66143999999971","768","428","j","true","img/S_ambi40.png","坏人","word_first",""
"","","","","","html-keyboard-response","426","576535","0.0-13.0-1.0-1.0-0.2-1.131","null","<span style='color:GreenYellow; font-size: 70px;'>正确! </span>","null","","","","","","","","","","","","","","","","","","","","","","","feedback_test"
"","","","","","psychophysics","427","578227","0.0-13.0-1.0-1.0-0.2-0.132","540","","j","","","","","","","","","","","","","key","j","16.66099999999941","768","428","j","true","img/S_ambi40.png","坏人","word_first",""
"","","","","","html-keyboard-response","428","578529","0.0-13.0-1.0-1.0-0.2-1.132","null","<span style='color:GreenYellow; font-size: 70px;'>正确! </span>","null","","","","","","","","","","","","","","","","","","","","","","","feedback_test"
"","","","","","psychophysics","429","580240","0.0-13.0-1.0-1.0-0.2-0.133","561","","j","","","","","","","","","","","","","key","j","16.661323529411355","768","428","j","true","img/C_ambi40.png","常人","word_first",""
"","","","","","html-keyboard-response","430","580541","0.0-13.0-1.0-1.0-0.2-1.133","null","<span style='color:GreenYellow; font-size: 70px;'>正确! </span>","null","","","","","","","","","","","","","","","","","","","","","","","feedback_test"
"","","","","","psychophysics","431","582201","0.0-13.0-1.0-1.0-0.2-0.134","508","","j","","","","","","","","","","","","","key","j","17.748554347827017","768","428","j","true","img/T_ambi40.png","好人","word_first",""
"","","","","","html-keyboard-response","432","582502","0.0-13.0-1.0-1.0-0.2-1.134","null","<span style='color:GreenYellow; font-size: 70px;'>正确! </span>","null","","","","","","","","","","","","","","","","","","","","","","","feedback_test"
