"success","timeout","failed_images","failed_audio","failed_video","trial_type","trial_index","time_elapsed","internal_node_id","rt","stimulus","response","value","item_width_mm","item_height_mm","item_width_px","px2mm","view_dist_mm","item_width_deg","px2deg","scale_factor","win_width_deg","win_height_deg","view_history","response_type","key_press","avg_frame_time","center_x","center_y","correct_response","correct","Image","word","condition","screen_id"
"true","false","[]","[]","[]","preload","0","337","0.0-0.0","","","","","","","","","","","","","","","","","","","","","","","","","",""
"","","","","","html-keyboard-response","1","11135","0.0-1.0","10797","
     <p>您好，欢迎参加本次实验。</p>
     <p>为充分保障您的权利，请确保您已经知晓并同意《参与实验同意书》以及《数据公开知情同意书》。</p>
     <p>如果您未见过上述内容，请咨询实验员。</p>
     <p>如果您选择继续实验，则表示您已经清楚两份知情同意书的内容并同意。</p>
     <p> <div style = ""color: green""><按任意键至下页></div> </p>
     ","m","","","","","","","","","","","","","","","","","","","","","","",""
"","","","","","html-keyboard-response","2","12938","0.0-2.0","1803","
     <p>本实验首先需要您填写一些基本个人信息。</p>
     <p> <div style = ""color: green""><按任意键至下页></div></p>
     ","n","","","","","","","","","","","","","","","","","","","","","","",""
"","","","","","call-function","3","12939","0.0-3.0-0.0","","","","","","","","","","","","","","","","","","","","","","","","","",""
"","","","","","survey-html-form","4","19071","0.0-3.0-1.0","6131","","{""Q0"":""12""}","","","","","","","","","","","","","","","","","","","","","","",""
"","","","","","html-button-response","5","20420","0.0-3.0-2.0","1347","<p style = 'color : white'>您的性别</p>","1","","","","","","","","","","","","","","","","","","","","","","",""
"","","","","","survey-html-form","6","24199","0.0-3.0-3.0","3778","","{""Q0"":""2002""}","","","","","","","","","","","","","","","","","","","","","","",""
"","","","","","survey-html-form","7","27490","0.0-3.0-4.0","3290","","{""Q0"":""5""}","","","","","","","","","","","","","","","","","","","","","","",""
"","","","","","virtual-chinrest","8","104412","0.0-4.0","76919","","","","85.6","53.98","480.95009732019446","5.623609210853315","508.68","9.61900194640389","50","0.7984196325972474","30.72","14.28","","","","","","","","","","","",""
"true","","","","","fullscreen","9","107011","0.0-5.0","","","","","","","","","","","","","","","","","","","","","","","","","",""
"","","","","","instructions","10","170155","0.0-6.0","63142","","","","","","","","","","","","","","[{""page_index"":0,""viewing_time"":3914},{""page_index"":1,""viewing_time"":39458},{""page_index"":2,""viewing_time"":14760},{""page_index"":3,""viewing_time"":5009}]","","","","","","","","","","",""
"","","","","","psychophysics","11","172619","0.0-7.0-0.0-0.0","1309","","f","","","","","","","","","","","","","key","f","16.666272108843607","768","428","f","true","img/C_ambi40.png","好人","prac_image_first",""
"","","","","","html-keyboard-response","12","172937","0.0-7.0-0.0-1.0","null","<span style='color:GreenYellow; font-size: 70px;'>正确! </span>","null","","","","","","","","","","","","","","","","","","","","","","","feedback_test"
"","","","","","psychophysics","13","174869","0.0-7.0-0.0-0.1","776","","f","","","","","","","","","","","","","key","f","16.666113043478287","768","428","j","false","img/C_ambi40.png","常人","prac_image_first",""
"","","","","","html-keyboard-response","14","175179","0.0-7.0-0.0-1.1","null","<span style='color:red; font-size: 70px;'>错误! </span>","null","","","","","","","","","","","","","","","","","","","","","","","feedback_test"
"","","","","","psychophysics","15","177145","0.0-7.0-0.0-0.2","802","","f","","","","","","","","","","","","","key","f","16.66710256410262","768","428","f","true","img/T_ambi40.png","坏人","prac_image_first",""
"","","","","","html-keyboard-response","16","177454","0.0-7.0-0.0-1.2","null","<span style='color:GreenYellow; font-size: 70px;'>正确! </span>","null","","","","","","","","","","","","","","","","","","","","","","","feedback_test"
"","","","","","psychophysics","17","179325","0.0-7.0-0.0-0.3","715","","f","","","","","","","","","","","","","key","f","16.66887387387383","768","428","j","false","img/T_ambi40.png","好人","prac_image_first",""
"","","","","","html-keyboard-response","18","179630","0.0-7.0-0.0-1.3","null","<span style='color:red; font-size: 70px;'>错误! </span>","null","","","","","","","","","","","","","","","","","","","","","","","feedback_test"
"","","","","","psychophysics","19","181545","0.0-7.0-0.0-0.4","756","","j","","","","","","","","","","","","","key","j","16.664350877192767","768","428","j","true","img/C_ambi40.png","坏人","prac_image_first",""
"","","","","","html-keyboard-response","20","181866","0.0-7.0-0.0-1.4","null","<span style='color:GreenYellow; font-size: 70px;'>正确! </span>","null","","","","","","","","","","","","","","","","","","","","","","","feedback_test"
"","","","","","psychophysics","21","184394","0.0-7.0-0.0-0.5","1373","","f","","","","","","","","","","","","","key","f","16.666152317880844","768","428","f","true","img/T_ambi40.png","坏人","prac_image_first",""
"","","","","","html-keyboard-response","22","184706","0.0-7.0-0.0-1.5","null","<span style='color:GreenYellow; font-size: 70px;'>正确! </span>","null","","","","","","","","","","","","","","","","","","","","","","","feedback_test"
"","","","","","psychophysics","23","186475","0.0-7.0-0.0-0.6","616","","f","","","","","","","","","","","","","key","f","16.664447619047547","768","428","f","true","img/S_ambi40.png","常人","prac_image_first",""
"","","","","","html-keyboard-response","24","186787","0.0-7.0-0.0-1.6","null","<span style='color:GreenYellow; font-size: 70px;'>正确! </span>","null","","","","","","","","","","","","","","","","","","","","","","","feedback_test"
"","","","","","psychophysics","25","189233","0.0-7.0-0.0-0.7","1290","","j","","","","","","","","","","","","","key","j","16.666958904109517","768","428","j","true","img/S_ambi40.png","好人","prac_image_first",""
"","","","","","html-keyboard-response","26","189543","0.0-7.0-0.0-1.7","null","<span style='color:GreenYellow; font-size: 70px;'>正确! </span>","null","","","","","","","","","","","","","","","","","","","","","","","feedback_test"
"","","","","","psychophysics","27","191517","0.0-7.0-0.0-0.8","807","","j","","","","","","","","","","","","","key","j","16.663478632478448","768","428","j","true","img/T_ambi40.png","常人","prac_image_first",""
"","","","","","html-keyboard-response","28","191832","0.0-7.0-0.0-1.8","null","<span style='color:GreenYellow; font-size: 70px;'>正确! </span>","null","","","","","","","","","","","","","","","","","","","","","","","feedback_test"
"","","","","","psychophysics","29","193607","0.0-7.0-0.0-0.9","615","","f","","","","","","","","","","","","","key","f","16.667295238095157","768","428","f","true","img/S_ambi40.png","常人","prac_image_first",""
"","","","","","html-keyboard-response","30","193917","0.0-7.0-0.0-1.9","null","<span style='color:GreenYellow; font-size: 70px;'>正确! </span>","null","","","","","","","","","","","","","","","","","","","","","","","feedback_test"
"","","","","","psychophysics","31","195991","0.0-7.0-0.0-0.10","915","","j","","","","","","","","","","","","","key","j","16.66910569105705","768","428","j","true","img/S_ambi40.png","坏人","prac_image_first",""
"","","","","","html-keyboard-response","32","196304","0.0-7.0-0.0-1.10","null","<span style='color:GreenYellow; font-size: 70px;'>正确! </span>","null","","","","","","","","","","","","","","","","","","","","","","","feedback_test"
"","","","","","psychophysics","33","198101","0.0-7.0-0.0-0.11","642","","j","","","","","","","","","","","","","key","j","16.6663084112148","768","428","f","false","img/C_ambi40.png","好人","prac_image_first",""
"","","","","","html-keyboard-response","34","198405","0.0-7.0-0.0-1.11","null","<span style='color:red; font-size: 70px;'>错误! </span>","null","","","","","","","","","","","","","","","","","","","","","","","feedback_test"
"","","","","","psychophysics","35","200247","0.0-7.0-0.0-0.12","688","","j","","","","","","","","","","","","","key","j","16.665472727272903","768","428","j","true","img/C_ambi40.png","常人","prac_image_first",""
"","","","","","html-keyboard-response","36","200557","0.0-7.0-0.0-1.12","null","<span style='color:GreenYellow; font-size: 70px;'>正确! </span>","null","","","","","","","","","","","","","","","","","","","","","","","feedback_test"
"","","","","","psychophysics","37","202559","0.0-7.0-0.0-0.13","849","","j","","","","","","","","","","","","","key","j","16.665949579832112","768","428","j","true","img/T_ambi40.png","好人","prac_image_first",""
"","","","","","html-keyboard-response","38","202863","0.0-7.0-0.0-1.13","null","<span style='color:GreenYellow; font-size: 70px;'>正确! </span>","null","","","","","","","","","","","","","","","","","","","","","","","feedback_test"
"","","","","","psychophysics","39","205007","0.0-7.0-0.0-0.14","980","","j","","","","","","","","","","","","","key","j","16.66664566929126","768","428","j","true","img/T_ambi40.png","常人","prac_image_first",""
"","","","","","html-keyboard-response","40","205321","0.0-7.0-0.0-1.14","null","<span style='color:GreenYellow; font-size: 70px;'>正确! </span>","null","","","","","","","","","","","","","","","","","","","","","","","feedback_test"
"","","","","","psychophysics","41","207111","0.0-7.0-0.0-0.15","636","","j","","","","","","","","","","","","","key","j","16.667401869158983","768","428","f","false","img/S_ambi40.png","常人","prac_image_first",""
"","","","","","html-keyboard-response","42","207423","0.0-7.0-0.0-1.15","null","<span style='color:red; font-size: 70px;'>错误! </span>","null","","","","","","","","","","","","","","","","","","","","","","","feedback_test"
"","","","","","psychophysics","43","209319","0.0-7.0-0.0-0.16","742","","j","","","","","","","","","","","","","key","j","16.664716814159398","768","428","f","false","img/C_ambi40.png","好人","prac_image_first",""
"","","","","","html-keyboard-response","44","209634","0.0-7.0-0.0-1.16","null","<span style='color:red; font-size: 70px;'>错误! </span>","null","","","","","","","","","","","","","","","","","","","","","","","feedback_test"
"","","","","","psychophysics","45","211533","0.0-7.0-0.0-0.17","741","","j","","","","","","","","","","","","","key","j","16.6674070796459","768","428","j","true","img/C_ambi40.png","坏人","prac_image_first",""
"","","","","","html-keyboard-response","46","211844","0.0-7.0-0.0-1.17","null","<span style='color:GreenYellow; font-size: 70px;'>正确! </span>","null","","","","","","","","","","","","","","","","","","","","","","","feedback_test"
"","","","","","psychophysics","47","213672","0.0-7.0-0.0-0.18","675","","j","","","","","","","","","","","","","key","j","16.666472222222417","768","428","j","true","img/S_ambi40.png","好人","prac_image_first",""
"","","","","","html-keyboard-response","48","213981","0.0-7.0-0.0-1.18","null","<span style='color:GreenYellow; font-size: 70px;'>正确! </span>","null","","","","","","","","","","","","","","","","","","","","","","","feedback_test"
"","","","","","psychophysics","49","216063","0.0-7.0-0.0-0.19","921","","f","","","","","","","","","","","","","key","f","16.665943548387254","768","428","f","true","img/T_ambi40.png","坏人","prac_image_first",""
"","","","","","html-keyboard-response","50","216377","0.0-7.0-0.0-1.19","null","<span style='color:GreenYellow; font-size: 70px;'>正确! </span>","null","","","","","","","","","","","","","","","","","","","","","","","feedback_test"
"","","","","","psychophysics","51","218664","0.0-7.0-0.0-0.20","1131","","f","","","","","","","","","","","","","key","f","16.666102941176444","768","428","f","true","img/C_ambi40.png","好人","prac_image_first",""
"","","","","","html-keyboard-response","52","218983","0.0-7.0-0.0-1.20","null","<span style='color:GreenYellow; font-size: 70px;'>正确! </span>","null","","","","","","","","","","","","","","","","","","","","","","","feedback_test"
"","","","","","psychophysics","53","220912","0.0-7.0-0.0-0.21","770","","f","","","","","","","","","","","","","key","f","16.664165217391187","768","428","f","true","img/T_ambi40.png","坏人","prac_image_first",""
"","","","","","html-keyboard-response","54","221222","0.0-7.0-0.0-1.21","null","<span style='color:GreenYellow; font-size: 70px;'>正确! </span>","null","","","","","","","","","","","","","","","","","","","","","","","feedback_test"
"","","","","","psychophysics","55","222943","0.0-7.0-0.0-0.22","567","","j","","","","","","","","","","","","","key","j","16.663578431372525","768","428","j","true","img/S_ambi40.png","坏人","prac_image_first",""
"","","","","","html-keyboard-response","56","223245","0.0-7.0-0.0-1.22","null","<span style='color:GreenYellow; font-size: 70px;'>正确! </span>","null","","","","","","","","","","","","","","","","","","","","","","","feedback_test"
"","","","","","psychophysics","57","225237","0.0-7.0-0.0-0.23","828","","f","","","","","","","","","","","","","key","f","16.66613559322027","768","428","f","true","img/S_ambi40.png","常人","prac_image_first",""
"","","","","","html-keyboard-response","58","225549","0.0-7.0-0.0-1.23","null","<span style='color:GreenYellow; font-size: 70px;'>正确! </span>","null","","","","","","","","","","","","","","","","","","","","","","","feedback_test"
"","","","","","html-keyboard-response","59","230127","0.0-8.0","4575","<style>.context{color:white; font-size: 35px; line-height:40px}</style>                              <div><p class='context'>您正确回答了79% 的试次。</p><p class='context'>您的平均反应时为875毫秒。</p><p class='context'>恭喜您完成这一阶段的练习。按任意键进入<span style='color: yellow;'>先文字后图形条件</span>的练习。</p></div>","j","","","","","","","","","","","","","","","","","","","","","","",""
"","","","","","psychophysics","60","232176","0.0-9.0-0.0-0.0","884","","j","","","","","","","","","","","","","key","j","16.6659834710744","768","428","j","true","img/C_ambi40.png","常人","prac_word_first",""
"","","","","","html-keyboard-response","61","232492","0.0-9.0-0.0-1.0","null","<span style='color:GreenYellow; font-size: 70px;'>正确! </span>","null","","","","","","","","","","","","","","","","","","","","","","","feedback_test"
"","","","","","psychophysics","62","234330","0.0-9.0-0.0-0.1","686","","j","","","","","","","","","","","","","key","j","16.665816513761406","768","428","f","false","img/C_ambi40.png","好人","prac_word_first",""
"","","","","","html-keyboard-response","63","234636","0.0-9.0-0.0-1.1","null","<span style='color:red; font-size: 70px;'>错误! </span>","null","","","","","","","","","","","","","","","","","","","","","","","feedback_test"
"","","","","","psychophysics","64","236671","0.0-9.0-0.0-0.2","880","","f","","","","","","","","","","","","","key","f","16.666280991735498","768","428","f","true","img/S_ambi40.png","常人","prac_word_first",""
"","","","","","html-keyboard-response","65","236973","0.0-9.0-0.0-1.2","null","<span style='color:GreenYellow; font-size: 70px;'>正确! </span>","null","","","","","","","","","","","","","","","","","","","","","","","feedback_test"
"","","","","","psychophysics","66","239065","0.0-9.0-0.0-0.3","940","","j","","","","","","","","","","","","","key","j","16.66412000000011","768","428","j","true","img/C_ambi40.png","坏人","prac_word_first",""
"","","","","","html-keyboard-response","67","239382","0.0-9.0-0.0-1.3","null","<span style='color:GreenYellow; font-size: 70px;'>正确! </span>","null","","","","","","","","","","","","","","","","","","","","","","","feedback_test"
"","","","","","psychophysics","68","241329","0.0-9.0-0.0-0.4","787","","j","","","","","","","","","","","","","key","j","16.665120689655005","768","428","j","true","img/T_ambi40.png","常人","prac_word_first",""
"","","","","","html-keyboard-response","69","241643","0.0-9.0-0.0-1.4","null","<span style='color:GreenYellow; font-size: 70px;'>正确! </span>","null","","","","","","","","","","","","","","","","","","","","","","","feedback_test"
"","","","","","psychophysics","70","243335","0.0-9.0-0.0-0.5","527","","j","","","","","","","","","","","","","key","j","16.66641000000003","768","428","j","true","img/S_ambi40.png","坏人","prac_word_first",""
"","","","","","html-keyboard-response","71","243651","0.0-9.0-0.0-1.5","null","<span style='color:GreenYellow; font-size: 70px;'>正确! </span>","null","","","","","","","","","","","","","","","","","","","","","","","feedback_test"
"","","","","","psychophysics","72","245519","0.0-9.0-0.0-0.6","711","","f","","","","","","","","","","","","","key","f","16.6671891891891","768","428","f","true","img/C_ambi40.png","好人","prac_word_first",""
"","","","","","html-keyboard-response","73","245843","0.0-9.0-0.0-1.6","null","<span style='color:GreenYellow; font-size: 70px;'>正确! </span>","null","","","","","","","","","","","","","","","","","","","","","","","feedback_test"
"","","","","","psychophysics","74","247689","0.0-9.0-0.0-0.7","693","","f","","","","","","","","","","","","","key","f","16.665550458715447","768","428","f","true","img/T_ambi40.png","坏人","prac_word_first",""
"","","","","","html-keyboard-response","75","248007","0.0-9.0-0.0-1.7","null","<span style='color:GreenYellow; font-size: 70px;'>正确! </span>","null","","","","","","","","","","","","","","","","","","","","","","","feedback_test"
"","","","","","psychophysics","76","250069","0.0-9.0-0.0-0.8","896","","f","","","","","","","","","","","","","key","f","16.554868852458924","768","428","f","true","img/S_ambi40.png","常人","prac_word_first",""
"","","","","","html-keyboard-response","77","250388","0.0-9.0-0.0-1.8","null","<span style='color:GreenYellow; font-size: 70px;'>正确! </span>","null","","","","","","","","","","","","","","","","","","","","","","","feedback_test"
"","","","","","psychophysics","78","252270","0.0-9.0-0.0-0.9","729","","j","","","","","","","","","","","","","key","j","16.666830357143095","768","428","j","true","img/S_ambi40.png","好人","prac_word_first",""
"","","","","","html-keyboard-response","79","252575","0.0-9.0-0.0-1.9","null","<span style='color:GreenYellow; font-size: 70px;'>正确! </span>","null","","","","","","","","","","","","","","","","","","","","","","","feedback_test"
"","","","","","psychophysics","80","254344","0.0-9.0-0.0-0.10","603","","f","","","","","","","","","","","","","key","f","16.664876190476242","768","428","f","true","img/T_ambi40.png","坏人","prac_word_first",""
"","","","","","html-keyboard-response","81","254653","0.0-9.0-0.0-1.10","null","<span style='color:GreenYellow; font-size: 70px;'>正确! </span>","null","","","","","","","","","","","","","","","","","","","","","","","feedback_test"
"","","","","","psychophysics","82","256352","0.0-9.0-0.0-0.11","545","","f","","","","","","","","","","","","","key","f","16.666663366336476","768","428","j","false","img/T_ambi40.png","好人","prac_word_first",""
"","","","","","html-keyboard-response","83","256661","0.0-9.0-0.0-1.11","null","<span style='color:red; font-size: 70px;'>错误! </span>","null","","","","","","","","","","","","","","","","","","","","","","","feedback_test"
"","","","","","psychophysics","84","258366","0.0-9.0-0.0-0.12","542","","j","","","","","","","","","","","","","key","j","16.666237623762456","768","428","j","true","img/S_ambi40.png","好人","prac_word_first",""
"","","","","","html-keyboard-response","85","258682","0.0-9.0-0.0-1.12","null","<span style='color:GreenYellow; font-size: 70px;'>正确! </span>","null","","","","","","","","","","","","","","","","","","","","","","","feedback_test"
"","","","","","psychophysics","86","260593","0.0-9.0-0.0-0.13","755","","j","","","","","","","","","","","","","key","j","16.667552631578904","768","428","j","true","img/C_ambi40.png","坏人","prac_word_first",""
"","","","","","html-keyboard-response","87","260909","0.0-9.0-0.0-1.13","null","<span style='color:GreenYellow; font-size: 70px;'>正确! </span>","null","","","","","","","","","","","","","","","","","","","","","","","feedback_test"
"","","","","","psychophysics","88","262741","0.0-9.0-0.0-0.14","667","","j","","","","","","","","","","","","","key","j","16.6661574074072","768","428","j","true","img/S_ambi40.png","坏人","prac_word_first",""
"","","","","","html-keyboard-response","89","263053","0.0-9.0-0.0-1.14","null","<span style='color:GreenYellow; font-size: 70px;'>正确! </span>","null","","","","","","","","","","","","","","","","","","","","","","","feedback_test"
"","","","","","psychophysics","90","264854","0.0-9.0-0.0-0.15","647","","j","","","","","","","","","","","","","key","j","16.66326168224283","768","428","f","false","img/C_ambi40.png","好人","prac_word_first",""
"","","","","","html-keyboard-response","91","265165","0.0-9.0-0.0-1.15","null","<span style='color:red; font-size: 70px;'>错误! </span>","null","","","","","","","","","","","","","","","","","","","","","","","feedback_test"
"","","","","","psychophysics","92","266825","0.0-9.0-0.0-0.16","500","","j","","","","","","","","","","","","","key","j","16.66630303030281","768","428","j","true","img/C_ambi40.png","常人","prac_word_first",""
"","","","","","html-keyboard-response","93","267142","0.0-9.0-0.0-1.16","null","<span style='color:GreenYellow; font-size: 70px;'>正确! </span>","null","","","","","","","","","","","","","","","","","","","","","","","feedback_test"
"","","","","","psychophysics","94","268894","0.0-9.0-0.0-0.17","587","","f","","","","","","","","","","","","","key","f","16.664605769230267","768","428","f","true","img/T_ambi40.png","坏人","prac_word_first",""
"","","","","","html-keyboard-response","95","269198","0.0-9.0-0.0-1.17","null","<span style='color:GreenYellow; font-size: 70px;'>正确! </span>","null","","","","","","","","","","","","","","","","","","","","","","","feedback_test"
"","","","","","psychophysics","96","271025","0.0-9.0-0.0-0.18","668","","f","","","","","","","","","","","","","key","f","16.66875229357825","768","428","f","true","img/S_ambi40.png","常人","prac_word_first",""
"","","","","","html-keyboard-response","97","271345","0.0-9.0-0.0-1.18","null","<span style='color:GreenYellow; font-size: 70px;'>正确! </span>","null","","","","","","","","","","","","","","","","","","","","","","","feedback_test"
"","","","","","psychophysics","98","273057","0.0-9.0-0.0-0.19","549","","f","","","","","","","","","","","","","key","f","16.6652475247525","768","428","f","true","img/S_ambi40.png","常人","prac_word_first",""
"","","","","","html-keyboard-response","99","273367","0.0-9.0-0.0-1.19","null","<span style='color:GreenYellow; font-size: 70px;'>正确! </span>","null","","","","","","","","","","","","","","","","","","","","","","","feedback_test"
"","","","","","psychophysics","100","275085","0.0-9.0-0.0-0.20","561","","f","","","","","","","","","","","","","key","f","16.666882352941148","768","428","j","false","img/T_ambi40.png","好人","prac_word_first",""
"","","","","","html-keyboard-response","101","275394","0.0-9.0-0.0-1.20","null","<span style='color:red; font-size: 70px;'>错误! </span>","null","","","","","","","","","","","","","","","","","","","","","","","feedback_test"
"","","","","","psychophysics","102","277297","0.0-9.0-0.0-0.21","740","","f","","","","","","","","","","","","","key","f","16.66596460176953","768","428","f","true","img/C_ambi40.png","好人","prac_word_first",""
"","","","","","html-keyboard-response","103","277615","0.0-9.0-0.0-1.21","null","<span style='color:GreenYellow; font-size: 70px;'>正确! </span>","null","","","","","","","","","","","","","","","","","","","","","","","feedback_test"
"","","","","","psychophysics","104","279310","0.0-9.0-0.0-0.22","537","","f","","","","","","","","","","","","","key","f","16.666841584158078","768","428","f","true","img/T_ambi40.png","坏人","prac_word_first",""
"","","","","","html-keyboard-response","105","279624","0.0-9.0-0.0-1.22","null","<span style='color:GreenYellow; font-size: 70px;'>正确! </span>","null","","","","","","","","","","","","","","","","","","","","","","","feedback_test"
"","","","","","psychophysics","106","281471","0.0-9.0-0.0-0.23","679","","f","","","","","","","","","","","","","key","f","16.665651376146627","768","428","j","false","img/T_ambi40.png","常人","prac_word_first",""
"","","","","","html-keyboard-response","107","281786","0.0-9.0-0.0-1.23","null","<span style='color:red; font-size: 70px;'>错误! </span>","null","","","","","","","","","","","","","","","","","","","","","","","feedback_test"
"","","","","","html-keyboard-response","108","288203","0.0-10.0","6415","<style>.context{color:white; font-size: 35px; line-height:40px}</style>                              <div><p class='context'>您正确回答了79% 的试次。</p><p class='context'>您的平均反应时为694毫秒。</p><p class='context'>恭喜您完成练习。按任意键进入<span style='color: yellow;'>图形和文字同时呈现条件</span>的练习。</p></div>","j","","","","","","","","","","","","","","","","","","","","","","",""
"","","","","","psychophysics","109","290298","0.0-11.0-0.0-0.0","1090","","f","","","","","","","","","","","","","key","f","16.666711999999826","768","428","f","true","img/T_ambi40.png","坏人","prac_simultaneous",""
"","","","","","html-keyboard-response","110","290618","0.0-11.0-0.0-1.0","null","<span style='color:GreenYellow; font-size: 70px;'>正确! </span>","null","","","","","","","","","","","","","","","","","","","","","","","feedback_test"
"","","","","","psychophysics","111","292591","0.0-11.0-0.0-0.1","968","","j","","","","","","","","","","","","","key","j","16.666440677965728","768","428","j","true","img/S_ambi40.png","好人","prac_simultaneous",""
"","","","","","html-keyboard-response","112","292908","0.0-11.0-0.0-1.1","null","<span style='color:GreenYellow; font-size: 70px;'>正确! </span>","null","","","","","","","","","","","","","","","","","","","","","","","feedback_test"
"","","","","","psychophysics","113","294518","0.0-11.0-0.0-0.2","599","","f","","","","","","","","","","","","","key","f","16.663800000000474","768","428","f","true","img/S_ambi40.png","常人","prac_simultaneous",""
"","","","","","html-keyboard-response","114","294835","0.0-11.0-0.0-1.2","null","<span style='color:GreenYellow; font-size: 70px;'>正确! </span>","null","","","","","","","","","","","","","","","","","","","","","","","feedback_test"
"","","","","","psychophysics","115","296909","0.0-11.0-0.0-0.3","1069","","j","","","","","","","","","","","","","key","j","16.666080645161152","768","428","j","true","img/C_ambi40.png","常人","prac_simultaneous",""
"","","","","","html-keyboard-response","116","297218","0.0-11.0-0.0-1.3","null","<span style='color:GreenYellow; font-size: 70px;'>正确! </span>","null","","","","","","","","","","","","","","","","","","","","","","","feedback_test"
"","","","","","psychophysics","117","299363","0.0-11.0-0.0-0.4","1140","","f","","","","","","","","","","","","","key","f","16.66693750000013","768","428","f","true","img/S_ambi40.png","常人","prac_simultaneous",""
"","","","","","html-keyboard-response","118","299680","0.0-11.0-0.0-1.4","null","<span style='color:GreenYellow; font-size: 70px;'>正确! </span>","null","","","","","","","","","","","","","","","","","","","","","","","feedback_test"
"","","","","","psychophysics","119","301437","0.0-11.0-0.0-0.5","747","","j","","","","","","","","","","","","","key","j","16.66752884615338","768","428","j","true","img/C_ambi40.png","坏人","prac_simultaneous",""
"","","","","","html-keyboard-response","120","301753","0.0-11.0-0.0-1.5","null","<span style='color:GreenYellow; font-size: 70px;'>正确! </span>","null","","","","","","","","","","","","","","","","","","","","","","","feedback_test"
"","","","","","psychophysics","121","303436","0.0-11.0-0.0-0.6","680","","f","","","","","","","","","","","","","key","f","16.66609999999986","768","428","j","false","img/T_ambi40.png","常人","prac_simultaneous",""
"","","","","","html-keyboard-response","122","303752","0.0-11.0-0.0-1.6","null","<span style='color:red; font-size: 70px;'>错误! </span>","null","","","","","","","","","","","","","","","","","","","","","","","feedback_test"
"","","","","","psychophysics","123","305949","0.0-11.0-0.0-0.7","1192","","j","","","","","","","","","","","","","key","j","16.668465648855097","768","428","j","true","img/S_ambi40.png","坏人","prac_simultaneous",""
"","","","","","html-keyboard-response","124","306265","0.0-11.0-0.0-1.7","null","<span style='color:GreenYellow; font-size: 70px;'>正确! </span>","null","","","","","","","","","","","","","","","","","","","","","","","feedback_test"
"","","","","","psychophysics","125","308492","0.0-11.0-0.0-0.8","1218","","j","","","","","","","","","","","","","key","j","16.666353383458645","768","428","f","false","img/T_ambi40.png","坏人","prac_simultaneous",""
"","","","","","html-keyboard-response","126","308811","0.0-11.0-0.0-1.8","null","<span style='color:red; font-size: 70px;'>错误! </span>","null","","","","","","","","","","","","","","","","","","","","","","","feedback_test"
"","","","","","psychophysics","127","310561","0.0-11.0-0.0-0.9","738","","j","","","","","","","","","","","","","key","j","16.666432692307772","768","428","j","true","img/T_ambi40.png","好人","prac_simultaneous",""
"","","","","","html-keyboard-response","128","310878","0.0-11.0-0.0-1.9","null","<span style='color:GreenYellow; font-size: 70px;'>正确! </span>","null","","","","","","","","","","","","","","","","","","","","","","","feedback_test"
"","","","","","psychophysics","129","312652","0.0-11.0-0.0-0.10","763","","f","","","","","","","","","","","","","key","f","16.6641523809527","768","428","f","true","img/C_ambi40.png","好人","prac_simultaneous",""
"","","","","","html-keyboard-response","130","312968","0.0-11.0-0.0-1.10","null","<span style='color:GreenYellow; font-size: 70px;'>正确! </span>","null","","","","","","","","","","","","","","","","","","","","","","","feedback_test"
"","","","","","psychophysics","131","314537","0.0-11.0-0.0-0.11","564","","f","","","","","","","","","","","","","key","f","16.66549462365595","768","428","f","true","img/C_ambi40.png","好人","prac_simultaneous",""
"","","","","","html-keyboard-response","132","314852","0.0-11.0-0.0-1.11","null","<span style='color:GreenYellow; font-size: 70px;'>正确! </span>","null","","","","","","","","","","","","","","","","","","","","","","","feedback_test"
"","","","","","psychophysics","133","316599","0.0-11.0-0.0-0.12","742","","j","","","","","","","","","","","","","key","j","16.663634615384442","768","428","j","true","img/S_ambi40.png","坏人","prac_simultaneous",""
"","","","","","html-keyboard-response","134","316901","0.0-11.0-0.0-1.12","null","<span style='color:GreenYellow; font-size: 70px;'>正确! </span>","null","","","","","","","","","","","","","","","","","","","","","","","feedback_test"
"","","","","","psychophysics","135","318883","0.0-11.0-0.0-0.13","976","","j","","","","","","","","","","","","","key","j","16.665161016949163","768","428","j","true","img/C_ambi40.png","常人","prac_simultaneous",""
"","","","","","html-keyboard-response","136","319203","0.0-11.0-0.0-1.13","null","<span style='color:GreenYellow; font-size: 70px;'>正确! </span>","null","","","","","","","","","","","","","","","","","","","","","","","feedback_test"
"","","","","","psychophysics","137","321103","0.0-11.0-0.0-0.14","897","","f","","","","","","","","","","","","","key","f","16.667743362832002","768","428","f","true","img/S_ambi40.png","常人","prac_simultaneous",""
"","","","","","html-keyboard-response","138","321410","0.0-11.0-0.0-1.14","null","<span style='color:GreenYellow; font-size: 70px;'>正确! </span>","null","","","","","","","","","","","","","","","","","","","","","","","feedback_test"
"","","","","","psychophysics","139","323170","0.0-11.0-0.0-0.15","748","","f","","","","","","","","","","","","","key","f","16.671038461538465","768","428","f","true","img/T_ambi40.png","坏人","prac_simultaneous",""
"","","","","","html-keyboard-response","140","323491","0.0-11.0-0.0-1.15","null","<span style='color:GreenYellow; font-size: 70px;'>正确! </span>","null","","","","","","","","","","","","","","","","","","","","","","","feedback_test"
"","","","","","psychophysics","141","325203","0.0-11.0-0.0-0.16","699","","j","","","","","","","","","","","","","key","j","16.665831683168424","768","428","f","false","img/C_ambi40.png","好人","prac_simultaneous",""
"","","","","","html-keyboard-response","142","325522","0.0-11.0-0.0-1.16","null","<span style='color:red; font-size: 70px;'>错误! </span>","null","","","","","","","","","","","","","","","","","","","","","","","feedback_test"
"","","","","","psychophysics","143","327153","0.0-11.0-0.0-0.17","618","","f","","","","","","","","","","","","","key","f","16.665927083333372","768","428","f","true","img/S_ambi40.png","常人","prac_simultaneous",""
"","","","","","html-keyboard-response","144","327472","0.0-11.0-0.0-1.17","null","<span style='color:GreenYellow; font-size: 70px;'>正确! </span>","null","","","","","","","","","","","","","","","","","","","","","","","feedback_test"
"","","","","","psychophysics","145","329242","0.0-11.0-0.0-0.18","769","","f","","","","","","","","","","","","","key","f","16.52932380952351","768","428","j","false","img/T_ambi40.png","常人","prac_simultaneous",""
"","","","","","html-keyboard-response","146","329553","0.0-11.0-0.0-1.18","null","<span style='color:red; font-size: 70px;'>错误! </span>","null","","","","","","","","","","","","","","","","","","","","","","","feedback_test"
"","","","","","psychophysics","147","331241","0.0-11.0-0.0-0.19","685","","j","","","","","","","","","","","","","key","j","16.667831683168327","768","428","j","true","img/C_ambi40.png","坏人","prac_simultaneous",""
"","","","","","html-keyboard-response","148","331561","0.0-11.0-0.0-1.19","null","<span style='color:GreenYellow; font-size: 70px;'>正确! </span>","null","","","","","","","","","","","","","","","","","","","","","","","feedback_test"
"","","","","","psychophysics","149","333473","0.0-11.0-0.0-0.20","900","","j","","","","","","","","","","","","","key","j","16.666274336283095","768","428","j","true","img/S_ambi40.png","好人","prac_simultaneous",""
"","","","","","html-keyboard-response","150","333791","0.0-11.0-0.0-1.20","null","<span style='color:GreenYellow; font-size: 70px;'>正确! </span>","null","","","","","","","","","","","","","","","","","","","","","","","feedback_test"
"","","","","","psychophysics","151","335457","0.0-11.0-0.0-0.21","656","","j","","","","","","","","","","","","","key","j","16.668656565657006","768","428","f","false","img/T_ambi40.png","坏人","prac_simultaneous",""
"","","","","","html-keyboard-response","152","335770","0.0-11.0-0.0-1.21","null","<span style='color:red; font-size: 70px;'>错误! </span>","null","","","","","","","","","","","","","","","","","","","","","","","feedback_test"
"","","","","","psychophysics","153","337561","0.0-11.0-0.0-0.22","788","","f","","","","","","","","","","","","","key","f","16.665570093458083","768","428","f","true","img/C_ambi40.png","好人","prac_simultaneous",""
"","","","","","html-keyboard-response","154","337872","0.0-11.0-0.0-1.22","null","<span style='color:GreenYellow; font-size: 70px;'>正确! </span>","null","","","","","","","","","","","","","","","","","","","","","","","feedback_test"
"","","","","","psychophysics","155","339487","0.0-11.0-0.0-0.23","614","","f","","","","","","","","","","","","","key","f","16.51833684210555","768","428","j","false","img/T_ambi40.png","好人","prac_simultaneous",""
"","","","","","html-keyboard-response","156","339790","0.0-11.0-0.0-1.23","null","<span style='color:red; font-size: 70px;'>错误! </span>","null","","","","","","","","","","","","","","","","","","","","","","","feedback_test"
"","","","","","html-keyboard-response","157","352527","0.0-12.0","12735","<style>.context{color:white; font-size: 35px; line-height:40px}</style>                              <div><p class='context'>您正确回答了75% 的试次。</p><p class='context'>您的平均反应时为846毫秒。</p><p class='context'>恭喜您完成练习。按任意键进入正式实验。</p><p class='footer' style='font-size: 35px; line-height:40px;'>请在进入正式实验实验之前将您的<span style='color: lightgreen;'>食指</span>放在电脑键盘的相应键位上进行按键。</p>","j","","","","","","","","","","","","","","","","","","","","","","",""
"","","","","","html-keyboard-response","158","355471","0.0-13.0-1.0-0.0","2940","
      <p>请您将手指放在按键上，准备进入呈现顺序为<span style='color: yellow;'>先文字后图形条件</span>的正式匹配任务</p>
      <p> <div style = ""color: green""><按任意键进入下一阶段的匹配任务></div></p>
      ","j","","","","","","","","","","","","","","","","","","","","","","",""
"","","","","","psychophysics","159","357233","0.0-13.0-1.0-1.0-0.0-0.0","610","","f","","","","","","","","","","","","","key","f","16.5437596153844","768","428","j","false","img/T_ambi40.png","好人","word_first",""
"","","","","","html-keyboard-response","160","357540","0.0-13.0-1.0-1.0-0.0-1.0","null","<span style='color:red; font-size: 70px;'>错误! </span>","null","","","","","","","","","","","","","","","","","","","","","","","feedback_test"
"","","","","","psychophysics","161","359373","0.0-13.0-1.0-1.0-0.0-0.1","680","","f","","","","","","","","","","","","","key","f","16.664137614678395","768","428","f","true","img/S_ambi40.png","常人","word_first",""
"","","","","","html-keyboard-response","162","359687","0.0-13.0-1.0-1.0-0.0-1.1","null","<span style='color:GreenYellow; font-size: 70px;'>正确! </span>","null","","","","","","","","","","","","","","","","","","","","","","","feedback_test"
"","","","","","psychophysics","163","361601","0.0-13.0-1.0-1.0-0.0-0.2","762","","f","","","","","","","","","","","","","key","f","16.6658684210525","768","428","f","true","img/S_ambi40.png","常人","word_first",""
"","","","","","html-keyboard-response","164","361914","0.0-13.0-1.0-1.0-0.0-1.2","null","<span style='color:GreenYellow; font-size: 70px;'>正确! </span>","null","","","","","","","","","","","","","","","","","","","","","","","feedback_test"
"","","","","","psychophysics","165","363708","0.0-13.0-1.0-1.0-0.0-0.3","636","","j","","","","","","","","","","","","","key","j","16.668196261682542","768","428","j","true","img/C_ambi40.png","坏人","word_first",""
"","","","","","html-keyboard-response","166","364026","0.0-13.0-1.0-1.0-0.0-1.3","null","<span style='color:GreenYellow; font-size: 70px;'>正确! </span>","null","","","","","","","","","","","","","","","","","","","","","","","feedback_test"
"","","","","","psychophysics","167","366008","0.0-13.0-1.0-1.0-0.0-0.4","820","","j","","","","","","","","","","","","","key","j","16.664067796610052","768","428","j","true","img/T_ambi40.png","常人","word_first",""
"","","","","","html-keyboard-response","168","366317","0.0-13.0-1.0-1.0-0.0-1.4","null","<span style='color:GreenYellow; font-size: 70px;'>正确! </span>","null","","","","","","","","","","","","","","","","","","","","","","","feedback_test"
"","","","","","psychophysics","169","368217","0.0-13.0-1.0-1.0-0.0-0.5","745","","f","","","","","","","","","","","","","key","f","16.667053097344944","768","428","f","true","img/C_ambi40.png","好人","word_first",""
"","","","","","html-keyboard-response","170","368528","0.0-13.0-1.0-1.0-0.0-1.5","null","<span style='color:GreenYellow; font-size: 70px;'>正确! </span>","null","","","","","","","","","","","","","","","","","","","","","","","feedback_test"
"","","","","","psychophysics","171","370890","0.0-13.0-1.0-1.0-0.0-0.6","1201","","f","","","","","","","","","","","","","key","f","16.666550000000278","768","428","f","true","img/T_ambi40.png","坏人","word_first",""
"","","","","","html-keyboard-response","172","371203","0.0-13.0-1.0-1.0-0.0-1.6","null","<span style='color:GreenYellow; font-size: 70px;'>正确! </span>","null","","","","","","","","","","","","","","","","","","","","","","","feedback_test"
"","","","","","psychophysics","173","373051","0.0-13.0-1.0-1.0-0.0-0.7","695","","j","","","","","","","","","","","","","key","j","16.666127272727582","768","428","j","true","img/S_ambi40.png","坏人","word_first",""
"","","","","","html-keyboard-response","174","373368","0.0-13.0-1.0-1.0-0.0-1.7","null","<span style='color:GreenYellow; font-size: 70px;'>正确! </span>","null","","","","","","","","","","","","","","","","","","","","","","","feedback_test"
"","","","","","psychophysics","175","375127","0.0-13.0-1.0-1.0-0.0-0.8","605","","f","","","","","","","","","","","","","key","f","16.666676190476643","768","428","f","true","img/T_ambi40.png","坏人","word_first",""
"","","","","","html-keyboard-response","176","375437","0.0-13.0-1.0-1.0-0.0-1.8","null","<span style='color:GreenYellow; font-size: 70px;'>正确! </span>","null","","","","","","","","","","","","","","","","","","","","","","","feedback_test"
"","","","","","psychophysics","177","377127","0.0-13.0-1.0-1.0-0.0-0.9","538","","j","","","","","","","","","","","","","key","j","16.669950495049296","768","428","j","true","img/S_ambi40.png","好人","word_first",""
"","","","","","html-keyboard-response","178","377430","0.0-13.0-1.0-1.0-0.0-1.9","null","<span style='color:GreenYellow; font-size: 70px;'>正确! </span>","null","","","","","","","","","","","","","","","","","","","","","","","feedback_test"
"","","","","","psychophysics","179","379097","0.0-13.0-1.0-1.0-0.0-0.10","508","","j","","","","","","","","","","","","","key","j","16.670555555555648","768","428","j","true","img/C_ambi40.png","常人","word_first",""
"","","","","","html-keyboard-response","180","379405","0.0-13.0-1.0-1.0-0.0-1.10","null","<span style='color:GreenYellow; font-size: 70px;'>正确! </span>","null","","","","","","","","","","","","","","","","","","","","","","","feedback_test"
"","","","","","psychophysics","181","380935","0.0-13.0-1.0-1.0-0.0-0.11","364","","f","","","","","","","","","","","","","key","f","16.667111111110877","768","428","f","true","img/C_ambi40.png","好人","word_first",""
"","","","","","html-keyboard-response","182","381259","0.0-13.0-1.0-1.0-0.0-1.11","null","<span style='color:GreenYellow; font-size: 70px;'>正确! </span>","null","","","","","","","","","","","","","","","","","","","","","","","feedback_test"
"","","","","","psychophysics","183","382905","0.0-13.0-1.0-1.0-0.0-0.12","484","","j","","","","","","","","","","","","","key","j","16.666680412371186","768","428","f","false","img/S_ambi40.png","常人","word_first",""
"","","","","","html-keyboard-response","184","383221","0.0-13.0-1.0-1.0-0.0-1.12","null","<span style='color:red; font-size: 70px;'>错误! </span>","null","","","","","","","","","","","","","","","","","","","","","","","feedback_test"
"","","","","","psychophysics","185","384899","0.0-13.0-1.0-1.0-0.0-0.13","526","","f","","","","","","","","","","","","","key","f","16.665888888888986","768","428","f","true","img/S_ambi40.png","常人","word_first",""
"","","","","","html-keyboard-response","186","385211","0.0-13.0-1.0-1.0-0.0-1.13","null","<span style='color:GreenYellow; font-size: 70px;'>正确! </span>","null","","","","","","","","","","","","","","","","","","","","","","","feedback_test"
"","","","","","psychophysics","187","386757","0.0-13.0-1.0-1.0-0.0-0.14","393","","f","","","","","","","","","","","","","key","f","16.66628260869576","768","428","j","false","img/C_ambi40.png","常人","word_first",""
"","","","","","html-keyboard-response","188","387064","0.0-13.0-1.0-1.0-0.0-1.14","null","<span style='color:red; font-size: 70px;'>错误! </span>","null","","","","","","","","","","","","","","","","","","","","","","","feedback_test"
"","","","","","psychophysics","189","388796","0.0-13.0-1.0-1.0-0.0-0.15","575","","j","","","","","","","","","","","","","key","j","16.6674368932043","768","428","j","true","img/S_ambi40.png","好人","word_first",""
"","","","","","html-keyboard-response","190","389101","0.0-13.0-1.0-1.0-0.0-1.15","null","<span style='color:GreenYellow; font-size: 70px;'>正确! </span>","null","","","","","","","","","","","","","","","","","","","","","","","feedback_test"
"","","","","","psychophysics","191","390931","0.0-13.0-1.0-1.0-0.0-0.16","676","","j","","","","","","","","","","","","","key","j","16.668697247706213","768","428","j","true","img/T_ambi40.png","好人","word_first",""
"","","","","","html-keyboard-response","192","391236","0.0-13.0-1.0-1.0-0.0-1.16","null","<span style='color:GreenYellow; font-size: 70px;'>正确! </span>","null","","","","","","","","","","","","","","","","","","","","","","","feedback_test"
"","","","","","psychophysics","193","393144","0.0-13.0-1.0-1.0-0.0-0.17","757","","j","","","","","","","","","","","","","key","j","16.547575221238844","768","428","j","true","img/T_ambi40.png","常人","word_first",""
"","","","","","html-keyboard-response","194","393461","0.0-13.0-1.0-1.0-0.0-1.17","null","<span style='color:GreenYellow; font-size: 70px;'>正确! </span>","null","","","","","","","","","","","","","","","","","","","","","","","feedback_test"
"","","","","","psychophysics","195","395250","0.0-13.0-1.0-1.0-0.0-0.18","629","","f","","","","","","","","","","","","","key","f","16.667594339622774","768","428","f","true","img/C_ambi40.png","好人","word_first",""
"","","","","","html-keyboard-response","196","395558","0.0-13.0-1.0-1.0-0.0-1.18","null","<span style='color:GreenYellow; font-size: 70px;'>正确! </span>","null","","","","","","","","","","","","","","","","","","","","","","","feedback_test"
"","","","","","psychophysics","197","397221","0.0-13.0-1.0-1.0-0.0-0.19","500","","j","","","","","","","","","","","","","key","j","16.665918367347032","768","428","j","true","img/C_ambi40.png","坏人","word_first",""
"","","","","","html-keyboard-response","198","397534","0.0-13.0-1.0-1.0-0.0-1.19","null","<span style='color:GreenYellow; font-size: 70px;'>正确! </span>","null","","","","","","","","","","","","","","","","","","","","","","","feedback_test"
"","","","","","psychophysics","199","399224","0.0-13.0-1.0-1.0-0.0-0.20","536","","j","","","","","","","","","","","","","key","j","16.664554455445497","768","428","f","false","img/C_ambi40.png","好人","word_first",""
"","","","","","html-keyboard-response","200","399541","0.0-13.0-1.0-1.0-0.0-1.20","null","<span style='color:red; font-size: 70px;'>错误! </span>","null","","","","","","","","","","","","","","","","","","","","","","","feedback_test"
"","","","","","psychophysics","201","401260","0.0-13.0-1.0-1.0-0.0-0.21","556","","f","","","","","","","","","","","","","key","f","16.659558823529068","768","428","f","true","img/T_ambi40.png","坏人","word_first",""
"","","","","","html-keyboard-response","202","401577","0.0-13.0-1.0-1.0-0.0-1.21","null","<span style='color:GreenYellow; font-size: 70px;'>正确! </span>","null","","","","","","","","","","","","","","","","","","","","","","","feedback_test"
"","","","","","psychophysics","203","403373","0.0-13.0-1.0-1.0-0.0-0.22","635","","j","","","","","","","","","","","","","key","j","16.664009345794383","768","428","j","true","img/S_ambi40.png","坏人","word_first",""
"","","","","","html-keyboard-response","204","403682","0.0-13.0-1.0-1.0-0.0-1.22","null","<span style='color:GreenYellow; font-size: 70px;'>正确! </span>","null","","","","","","","","","","","","","","","","","","","","","","","feedback_test"
"","","","","","psychophysics","205","405558","0.0-13.0-1.0-1.0-0.0-0.23","721","","f","","","","","","","","","","","","","key","f","16.666732142857136","768","428","f","true","img/T_ambi40.png","坏人","word_first",""
"","","","","","html-keyboard-response","206","405875","0.0-13.0-1.0-1.0-0.0-1.23","null","<span style='color:GreenYellow; font-size: 70px;'>正确! </span>","null","","","","","","","","","","","","","","","","","","","","","","","feedback_test"
"","","","","","psychophysics","207","407561","0.0-13.0-1.0-1.0-0.0-0.24","533","","f","","","","","","","","","","","","","key","f","16.666479999999865","768","428","f","true","img/T_ambi40.png","坏人","word_first",""
"","","","","","html-keyboard-response","208","407881","0.0-13.0-1.0-1.0-0.0-1.24","null","<span style='color:GreenYellow; font-size: 70px;'>正确! </span>","null","","","","","","","","","","","","","","","","","","","","","","","feedback_test"
"","","","","","psychophysics","209","409724","0.0-13.0-1.0-1.0-0.0-0.25","686","","f","","","","","","","","","","","","","key","f","16.66676363636348","768","428","f","true","img/S_ambi40.png","常人","word_first",""
"","","","","","html-keyboard-response","210","410031","0.0-13.0-1.0-1.0-0.0-1.25","null","<span style='color:GreenYellow; font-size: 70px;'>正确! </span>","null","","","","","","","","","","","","","","","","","","","","","","","feedback_test"
"","","","","","psychophysics","211","411774","0.0-13.0-1.0-1.0-0.0-0.26","586","","j","","","","","","","","","","","","","key","j","16.666730769230455","768","428","j","true","img/C_ambi40.png","坏人","word_first",""
"","","","","","html-keyboard-response","212","412087","0.0-13.0-1.0-1.0-0.0-1.26","null","<span style='color:GreenYellow; font-size: 70px;'>正确! </span>","null","","","","","","","","","","","","","","","","","","","","","","","feedback_test"
"","","","","","psychophysics","213","413673","0.0-13.0-1.0-1.0-0.0-0.27","422","","f","","","","","","","","","","","","","key","f","16.52740425531916","768","428","f","true","img/C_ambi40.png","好人","word_first",""
"","","","","","html-keyboard-response","214","413983","0.0-13.0-1.0-1.0-0.0-1.27","null","<span style='color:GreenYellow; font-size: 70px;'>正确! </span>","null","","","","","","","","","","","","","","","","","","","","","","","feedback_test"
"","","","","","psychophysics","215","415716","0.0-13.0-1.0-1.0-0.0-0.28","579","","f","","","","","","","","","","","","","key","f","16.664766990290886","768","428","j","false","img/T_ambi40.png","好人","word_first",""
"","","","","","html-keyboard-response","216","416035","0.0-13.0-1.0-1.0-0.0-1.28","null","<span style='color:red; font-size: 70px;'>错误! </span>","null","","","","","","","","","","","","","","","","","","","","","","","feedback_test"
"","","","","","psychophysics","217","417923","0.0-13.0-1.0-1.0-0.0-0.29","735","","j","","","","","","","","","","","","","key","j","16.6650707964601","768","428","j","true","img/T_ambi40.png","常人","word_first",""
"","","","","","html-keyboard-response","218","418241","0.0-13.0-1.0-1.0-0.0-1.29","null","<span style='color:GreenYellow; font-size: 70px;'>正确! </span>","null","","","","","","","","","","","","","","","","","","","","","","","feedback_test"
"","","","","","psychophysics","219","420063","0.0-13.0-1.0-1.0-0.0-0.30","662","","j","","","","","","","","","","","","","key","j","16.666101851851973","768","428","f","false","img/S_ambi40.png","常人","word_first",""
"","","","","","html-keyboard-response","220","420377","0.0-13.0-1.0-1.0-0.0-1.30","null","<span style='color:red; font-size: 70px;'>错误! </span>","null","","","","","","","","","","","","","","","","","","","","","","","feedback_test"
"","","","","","psychophysics","221","422351","0.0-13.0-1.0-1.0-0.0-0.31","813","","j","","","","","","","","","","","","","key","j","16.66371794871769","768","428","j","true","img/S_ambi40.png","坏人","word_first",""
"","","","","","html-keyboard-response","222","422666","0.0-13.0-1.0-1.0-0.0-1.31","null","<span style='color:GreenYellow; font-size: 70px;'>正确! </span>","null","","","","","","","","","","","","","","","","","","","","","","","feedback_test"
"","","","","","psychophysics","223","424673","0.0-13.0-1.0-1.0-0.0-0.32","852","","f","","","","","","","","","","","","","key","f","16.665899999999965","768","428","f","true","img/T_ambi40.png","坏人","word_first",""
"","","","","","html-keyboard-response","224","424992","0.0-13.0-1.0-1.0-0.0-1.32","null","<span style='color:GreenYellow; font-size: 70px;'>正确! </span>","null","","","","","","","","","","","","","","","","","","","","","","","feedback_test"
"","","","","","psychophysics","225","427085","0.0-13.0-1.0-1.0-0.0-0.33","931","","j","","","","","","","","","","","","","key","j","16.667774193548418","768","428","j","true","img/C_ambi40.png","常人","word_first",""
"","","","","","html-keyboard-response","226","427399","0.0-13.0-1.0-1.0-0.0-1.33","null","<span style='color:GreenYellow; font-size: 70px;'>正确! </span>","null","","","","","","","","","","","","","","","","","","","","","","","feedback_test"
"","","","","","psychophysics","227","429494","0.0-13.0-1.0-1.0-0.0-0.34","941","","f","","","","","","","","","","","","","key","f","16.665279999999797","768","428","f","true","img/C_ambi40.png","好人","word_first",""
"","","","","","html-keyboard-response","228","429810","0.0-13.0-1.0-1.0-0.0-1.34","null","<span style='color:GreenYellow; font-size: 70px;'>正确! </span>","null","","","","","","","","","","","","","","","","","","","","","","","feedback_test"
"","","","","","psychophysics","229","431519","0.0-13.0-1.0-1.0-0.0-0.35","548","","j","","","","","","","","","","","","","key","j","16.664574257425485","768","428","j","true","img/S_ambi40.png","好人","word_first",""
"","","","","","html-keyboard-response","230","431822","0.0-13.0-1.0-1.0-0.0-1.35","null","<span style='color:GreenYellow; font-size: 70px;'>正确! </span>","null","","","","","","","","","","","","","","","","","","","","","","","feedback_test"
"","","","","","psychophysics","231","433742","0.0-13.0-1.0-1.0-0.0-0.36","755","","f","","","","","","","","","","","","","key","f","16.665184210525855","768","428","f","true","img/S_ambi40.png","常人","word_first",""
"","","","","","html-keyboard-response","232","434050","0.0-13.0-1.0-1.0-0.0-1.36","null","<span style='color:GreenYellow; font-size: 70px;'>正确! </span>","null","","","","","","","","","","","","","","","","","","","","","","","feedback_test"
"","","","","","psychophysics","233","435946","0.0-13.0-1.0-1.0-0.0-0.37","741","","j","","","","","","","","","","","","","key","j","16.665964601770046","768","428","j","true","img/C_ambi40.png","坏人","word_first",""
"","","","","","html-keyboard-response","234","436261","0.0-13.0-1.0-1.0-0.0-1.37","null","<span style='color:GreenYellow; font-size: 70px;'>正确! </span>","null","","","","","","","","","","","","","","","","","","","","","","","feedback_test"
"","","","","","psychophysics","235","438226","0.0-13.0-1.0-1.0-0.0-0.38","806","","j","","","","","","","","","","","","","key","j","16.667709401709676","768","428","j","true","img/S_ambi40.png","好人","word_first",""
"","","","","","html-keyboard-response","236","438534","0.0-13.0-1.0-1.0-0.0-1.38","null","<span style='color:GreenYellow; font-size: 70px;'>正确! </span>","null","","","","","","","","","","","","","","","","","","","","","","","feedback_test"
"","","","","","psychophysics","237","440359","0.0-13.0-1.0-1.0-0.0-0.39","672","","j","","","","","","","","","","","","","key","j","16.66593577981651","768","428","j","true","img/T_ambi40.png","好人","word_first",""
"","","","","","html-keyboard-response","238","440672","0.0-13.0-1.0-1.0-0.0-1.39","null","<span style='color:GreenYellow; font-size: 70px;'>正确! </span>","null","","","","","","","","","","","","","","","","","","","","","","","feedback_test"
"","","","","","psychophysics","239","442448","0.0-13.0-1.0-1.0-0.0-0.40","611","","f","","","","","","","","","","","","","key","f","16.666295238094783","768","428","f","true","img/T_ambi40.png","坏人","word_first",""
"","","","","","html-keyboard-response","240","442756","0.0-13.0-1.0-1.0-0.0-1.40","null","<span style='color:GreenYellow; font-size: 70px;'>正确! </span>","null","","","","","","","","","","","","","","","","","","","","","","","feedback_test"
"","","","","","psychophysics","241","444521","0.0-13.0-1.0-1.0-0.0-0.41","601","","f","","","","","","","","","","","","","key","f","16.665314285714356","768","428","f","true","img/C_ambi40.png","好人","word_first",""
"","","","","","html-keyboard-response","242","444842","0.0-13.0-1.0-1.0-0.0-1.41","null","<span style='color:GreenYellow; font-size: 70px;'>正确! </span>","null","","","","","","","","","","","","","","","","","","","","","","","feedback_test"
"","","","","","psychophysics","243","447504","0.0-13.0-1.0-1.0-0.0-0.42","null","","null","","","","","","","","","","","","","key","null","16.66830379746838","768","428","f","false","img/S_ambi40.png","常人","word_first",""
"","","","","","html-keyboard-response","244","447816","0.0-13.0-1.0-1.0-0.0-1.42","null","<span class='add_' style='color:yellow; font-size: 70px;'> 太慢! </span>","null","","","","","","","","","","","","","","","","","","","","","","","feedback_test"
"","","","","","psychophysics","245","449664","0.0-13.0-1.0-1.0-0.0-0.43","694","","j","","","","","","","","","","","","","key","j","16.666990909090963","768","428","j","true","img/C_ambi40.png","常人","word_first",""
"","","","","","html-keyboard-response","246","449973","0.0-13.0-1.0-1.0-0.0-1.43","null","<span style='color:GreenYellow; font-size: 70px;'>正确! </span>","null","","","","","","","","","","","","","","","","","","","","","","","feedback_test"
"","","","","","psychophysics","247","451751","0.0-13.0-1.0-1.0-0.0-0.44","615","","j","","","","","","","","","","","","","key","j","16.665828571428122","768","428","j","true","img/S_ambi40.png","坏人","word_first",""
"","","","","","html-keyboard-response","248","452066","0.0-13.0-1.0-1.0-0.0-1.44","null","<span style='color:GreenYellow; font-size: 70px;'>正确! </span>","null","","","","","","","","","","","","","","","","","","","","","","","feedback_test"
"","","","","","psychophysics","249","454285","0.0-13.0-1.0-1.0-0.0-0.45","1064","","f","","","","","","","","","","","","","key","f","16.666666666666668","768","428","f","true","img/T_ambi40.png","坏人","word_first",""
"","","","","","html-keyboard-response","250","454590","0.0-13.0-1.0-1.0-0.0-1.45","null","<span style='color:GreenYellow; font-size: 70px;'>正确! </span>","null","","","","","","","","","","","","","","","","","","","","","","","feedback_test"
"","","","","","psychophysics","251","456331","0.0-13.0-1.0-1.0-0.0-0.46","576","","f","","","","","","","","","","","","","key","f","16.664436893203654","768","428","f","true","img/C_ambi40.png","好人","word_first",""
"","","","","","html-keyboard-response","252","456641","0.0-13.0-1.0-1.0-0.0-1.46","null","<span style='color:GreenYellow; font-size: 70px;'>正确! </span>","null","","","","","","","","","","","","","","","","","","","","","","","feedback_test"
"","","","","","psychophysics","253","458309","0.0-13.0-1.0-1.0-0.0-0.47","506","","j","","","","","","","","","","","","","key","j","16.66722222222215","768","428","j","true","img/T_ambi40.png","常人","word_first",""
"","","","","","html-keyboard-response","254","458622","0.0-13.0-1.0-1.0-0.0-1.47","null","<span style='color:GreenYellow; font-size: 70px;'>正确! </span>","null","","","","","","","","","","","","","","","","","","","","","","","feedback_test"
"","","","","","psychophysics","255","460643","0.0-13.0-1.0-1.0-0.0-0.48","856","","j","","","","","","","","","","","","","key","j","16.666891666666682","768","428","j","true","img/S_ambi40.png","坏人","word_first",""
"","","","","","html-keyboard-response","256","460957","0.0-13.0-1.0-1.0-0.0-1.48","null","<span style='color:GreenYellow; font-size: 70px;'>正确! </span>","null","","","","","","","","","","","","","","","","","","","","","","","feedback_test"
"","","","","","psychophysics","257","462731","0.0-13.0-1.0-1.0-0.0-0.49","612","","f","","","","","","","","","","","","","key","f","16.66696190476207","768","428","f","true","img/C_ambi40.png","好人","word_first",""
"","","","","","html-keyboard-response","258","463041","0.0-13.0-1.0-1.0-0.0-1.49","null","<span style='color:GreenYellow; font-size: 70px;'>正确! </span>","null","","","","","","","","","","","","","","","","","","","","","","","feedback_test"
"","","","","","psychophysics","259","464656","0.0-13.0-1.0-1.0-0.0-0.50","453","","f","","","","","","","","","","","","","key","f","16.66498958333371","768","428","f","true","img/C_ambi40.png","好人","word_first",""
"","","","","","html-keyboard-response","260","464971","0.0-13.0-1.0-1.0-0.0-1.50","null","<span style='color:GreenYellow; font-size: 70px;'>正确! </span>","null","","","","","","","","","","","","","","","","","","","","","","","feedback_test"
"","","","","","psychophysics","261","466760","0.0-13.0-1.0-1.0-0.0-0.51","627","","j","","","","","","","","","","","","","key","j","16.665566037736287","768","428","j","true","img/C_ambi40.png","坏人","word_first",""
"","","","","","html-keyboard-response","262","467070","0.0-13.0-1.0-1.0-0.0-1.51","null","<span style='color:GreenYellow; font-size: 70px;'>正确! </span>","null","","","","","","","","","","","","","","","","","","","","","","","feedback_test"
"","","","","","psychophysics","263","468645","0.0-13.0-1.0-1.0-0.0-0.52","424","","f","","","","","","","","","","","","","key","f","16.667053763441096","768","428","j","false","img/T_ambi40.png","好人","word_first",""
"","","","","","html-keyboard-response","264","468952","0.0-13.0-1.0-1.0-0.0-1.52","null","<span style='color:red; font-size: 70px;'>错误! </span>","null","","","","","","","","","","","","","","","","","","","","","","","feedback_test"
"","","","","","psychophysics","265","470942","0.0-13.0-1.0-1.0-0.0-0.53","839","","j","","","","","","","","","","","","","key","j","16.551966101695267","768","428","j","true","img/S_ambi40.png","好人","word_first",""
"","","","","","html-keyboard-response","266","471257","0.0-13.0-1.0-1.0-0.0-1.53","null","<span style='color:GreenYellow; font-size: 70px;'>正确! </span>","null","","","","","","","","","","","","","","","","","","","","","","","feedback_test"
"","","","","","psychophysics","267","473291","0.0-13.0-1.0-1.0-0.0-0.54","871","","f","","","","","","","","","","","","","key","f","16.66592561983463","768","428","j","false","img/C_ambi40.png","常人","word_first",""
"","","","","","html-keyboard-response","268","473606","0.0-13.0-1.0-1.0-0.0-1.54","null","<span style='color:red; font-size: 70px;'>错误! </span>","null","","","","","","","","","","","","","","","","","","","","","","","feedback_test"
"","","","","","psychophysics","269","475253","0.0-13.0-1.0-1.0-0.0-0.55","486","","f","","","","","","","","","","","","","key","f","16.663216494845308","768","428","f","true","img/S_ambi40.png","常人","word_first",""
"","","","","","html-keyboard-response","270","475558","0.0-13.0-1.0-1.0-0.0-1.55","null","<span style='color:GreenYellow; font-size: 70px;'>正确! </span>","null","","","","","","","","","","","","","","","","","","","","","","","feedback_test"
"","","","","","psychophysics","271","477505","0.0-13.0-1.0-1.0-0.0-0.56","786","","f","","","","","","","","","","","","","key","f","16.66429310344794","768","428","f","true","img/S_ambi40.png","常人","word_first",""
"","","","","","html-keyboard-response","272","477817","0.0-13.0-1.0-1.0-0.0-1.56","null","<span style='color:GreenYellow; font-size: 70px;'>正确! </span>","null","","","","","","","","","","","","","","","","","","","","","","","feedback_test"
"","","","","","psychophysics","273","479306","0.0-13.0-1.0-1.0-0.0-0.57","337","","f","","","","","","","","","","","","","key","f","16.66386516853903","768","428","j","false","img/T_ambi40.png","常人","word_first",""
"","","","","","html-keyboard-response","274","479621","0.0-13.0-1.0-1.0-0.0-1.57","null","<span style='color:red; font-size: 70px;'>错误! </span>","null","","","","","","","","","","","","","","","","","","","","","","","feedback_test"
"","","","","","psychophysics","275","481190","0.0-13.0-1.0-1.0-0.0-0.58","404","","f","","","","","","","","","","","","","key","f","16.662623655914093","768","428","f","true","img/T_ambi40.png","坏人","word_first",""
"","","","","","html-keyboard-response","276","481493","0.0-13.0-1.0-1.0-0.0-1.58","null","<span style='color:GreenYellow; font-size: 70px;'>正确! </span>","null","","","","","","","","","","","","","","","","","","","","","","","feedback_test"
"","","","","","psychophysics","277","483155","0.0-13.0-1.0-1.0-0.0-0.59","502","","f","","","","","","","","","","","","","key","f","16.66898989898971","768","428","f","true","img/T_ambi40.png","坏人","word_first",""
"","","","","","html-keyboard-response","278","483470","0.0-13.0-1.0-1.0-0.0-1.59","null","<span style='color:GreenYellow; font-size: 70px;'>正确! </span>","null","","","","","","","","","","","","","","","","","","","","","","","feedback_test"
"","","","","","html-keyboard-response","279","486297","0.0-13.0-1.0-1.0-1.0","2825","<style>.context{color:white; font-size: 35px; line-height:40px}</style>                              <div><p class='context'>您正确回答了83% 的试次。</p><p class='context'>您的平均反应时为668毫秒。</p><p class='context'>请按任意键进入休息</p></div>","j","","","","","","","","","","","","","","","","","","","","","","",""
"","","","","","html-button-response","280","543715","0.0-13.0-1.0-1.0-2.0","57416","
                      <p>您当前还剩余3组实验</p>
                      <p>现在是休息时间，当您结束休息后，您可以点击 结束休息 按钮 继续</p>
                      <p>建议休息时间还剩余<span id=""iii"">60</span>秒</p>","0","","","","","","","","","","","","","","","","","","","","","","",""
"","","","","","psychophysics","281","545362","0.0-13.0-1.0-1.0-0.1-0.60","495","","f","","","","","","","","","","","","","key","f","16.667530612244356","768","428","f","true","img/S_ambi40.png","常人","word_first",""
"","","","","","html-keyboard-response","282","545673","0.0-13.0-1.0-1.0-0.1-1.60","null","<span style='color:GreenYellow; font-size: 70px;'>正确! </span>","null","","","","","","","","","","","","","","","","","","","","","","","feedback_test"
"","","","","","psychophysics","283","547294","0.0-13.0-1.0-1.0-0.1-0.61","466","","f","","","","","","","","","","","","","key","f","16.665770833333227","768","428","f","true","img/C_ambi40.png","好人","word_first",""
"","","","","","html-keyboard-response","284","547607","0.0-13.0-1.0-1.0-0.1-1.61","null","<span style='color:GreenYellow; font-size: 70px;'>正确! </span>","null","","","","","","","","","","","","","","","","","","","","","","","feedback_test"
"","","","","","psychophysics","285","549198","0.0-13.0-1.0-1.0-0.1-0.62","430","","f","","","","","","","","","","","","","key","f","16.665840425532302","768","428","j","false","img/T_ambi40.png","常人","word_first",""
"","","","","","html-keyboard-response","286","549505","0.0-13.0-1.0-1.0-0.1-1.62","null","<span style='color:red; font-size: 70px;'>错误! </span>","null","","","","","","","","","","","","","","","","","","","","","","","feedback_test"
"","","","","","psychophysics","287","551094","0.0-13.0-1.0-1.0-0.1-0.63","426","","f","","","","","","","","","","","","","key","f","16.665021276595617","768","428","f","true","img/T_ambi40.png","坏人","word_first",""
"","","","","","html-keyboard-response","288","551407","0.0-13.0-1.0-1.0-0.1-1.63","null","<span style='color:GreenYellow; font-size: 70px;'>正确! </span>","null","","","","","","","","","","","","","","","","","","","","","","","feedback_test"
"","","","","","psychophysics","289","553072","0.0-13.0-1.0-1.0-0.1-0.64","505","","f","","","","","","","","","","","","","key","f","16.664777777778607","768","428","f","true","img/C_ambi40.png","好人","word_first",""
"","","","","","html-keyboard-response","290","553381","0.0-13.0-1.0-1.0-0.1-1.64","null","<span style='color:GreenYellow; font-size: 70px;'>正确! </span>","null","","","","","","","","","","","","","","","","","","","","","","","feedback_test"
"","","","","","psychophysics","291","555098","0.0-13.0-1.0-1.0-0.1-0.65","564","","f","","","","","","","","","","","","","key","f","16.66432352941118","768","428","f","true","img/T_ambi40.png","坏人","word_first",""
"","","","","","html-keyboard-response","292","555412","0.0-13.0-1.0-1.0-0.1-1.65","null","<span style='color:GreenYellow; font-size: 70px;'>正确! </span>","null","","","","","","","","","","","","","","","","","","","","","","","feedback_test"
"","","","","","psychophysics","293","557098","0.0-13.0-1.0-1.0-0.1-0.66","530","","j","","","","","","","","","","","","","key","j","16.66746999999974","768","428","f","false","img/S_ambi40.png","常人","word_first",""
"","","","","","html-keyboard-response","294","557419","0.0-13.0-1.0-1.0-0.1-1.66","null","<span style='color:red; font-size: 70px;'>错误! </span>","null","","","","","","","","","","","","","","","","","","","","","","","feedback_test"
"","","","","","psychophysics","295","559422","0.0-13.0-1.0-1.0-0.1-0.67","845","","j","","","","","","","","","","","","","key","j","16.663394957983343","768","428","j","true","img/T_ambi40.png","好人","word_first",""
"","","","","","html-keyboard-response","296","559732","0.0-13.0-1.0-1.0-0.1-1.67","null","<span style='color:GreenYellow; font-size: 70px;'>正确! </span>","null","","","","","","","","","","","","","","","","","","","","","","","feedback_test"
"","","","","","psychophysics","297","561624","0.0-13.0-1.0-1.0-0.1-0.68","740","","j","","","","","","","","","","","","","key","j","16.544044642856793","768","428","j","true","img/S_ambi40.png","坏人","word_first",""
"","","","","","html-keyboard-response","298","561934","0.0-13.0-1.0-1.0-0.1-1.68","null","<span style='color:GreenYellow; font-size: 70px;'>正确! </span>","null","","","","","","","","","","","","","","","","","","","","","","","feedback_test"
"","","","","","psychophysics","299","564000","0.0-13.0-1.0-1.0-0.1-0.69","904","","j","","","","","","","","","","","","","key","j","16.665991803278125","768","428","j","true","img/C_ambi40.png","常人","word_first",""
"","","","","","html-keyboard-response","300","564321","0.0-13.0-1.0-1.0-0.1-1.69","null","<span style='color:GreenYellow; font-size: 70px;'>正确! </span>","null","","","","","","","","","","","","","","","","","","","","","","","feedback_test"
"","","","","","psychophysics","301","566015","0.0-13.0-1.0-1.0-0.1-0.70","538","","j","","","","","","","","","","","","","key","j","16.66682999999961","768","428","j","true","img/C_ambi40.png","坏人","word_first",""
"","","","","","html-keyboard-response","302","566333","0.0-13.0-1.0-1.0-0.1-1.70","null","<span style='color:GreenYellow; font-size: 70px;'>正确! </span>","null","","","","","","","","","","","","","","","","","","","","","","","feedback_test"
"","","","","","psychophysics","303","568051","0.0-13.0-1.0-1.0-0.1-0.71","566","","j","","","","","","","","","","","","","key","j","16.536524752474225","768","428","j","true","img/S_ambi40.png","好人","word_first",""
"","","","","","html-keyboard-response","304","568371","0.0-13.0-1.0-1.0-0.1-1.71","null","<span style='color:GreenYellow; font-size: 70px;'>正确! </span>","null","","","","","","","","","","","","","","","","","","","","","","","feedback_test"
"","","","","","psychophysics","305","570097","0.0-13.0-1.0-1.0-0.1-0.72","562","","f","","","","","","","","","","","","","key","f","16.66473529411836","768","428","f","true","img/S_ambi40.png","常人","word_first",""
"","","","","","html-keyboard-response","306","570411","0.0-13.0-1.0-1.0-0.1-1.72","null","<span style='color:GreenYellow; font-size: 70px;'>正确! </span>","null","","","","","","","","","","","","","","","","","","","","","","","feedback_test"
"","","","","","psychophysics","307","572231","0.0-13.0-1.0-1.0-0.1-0.73","663","","j","","","","","","","","","","","","","key","j","16.66634259259229","768","428","j","true","img/S_ambi40.png","坏人","word_first",""
"","","","","","html-keyboard-response","308","572539","0.0-13.0-1.0-1.0-0.1-1.73","null","<span style='color:GreenYellow; font-size: 70px;'>正确! </span>","null","","","","","","","","","","","","","","","","","","","","","","","feedback_test"
"","","","","","psychophysics","309","574305","0.0-13.0-1.0-1.0-0.1-0.74","612","","j","","","","","","","","","","","","","key","j","16.68183809523803","768","428","j","true","img/C_ambi40.png","常人","word_first",""
"","","","","","html-keyboard-response","310","574612","0.0-13.0-1.0-1.0-0.1-1.74","null","<span style='color:GreenYellow; font-size: 70px;'>正确! </span>","null","","","","","","","","","","","","","","","","","","","","","","","feedback_test"
"","","","","","psychophysics","311","576416","0.0-13.0-1.0-1.0-0.1-0.75","652","","f","","","","","","","","","","","","","key","f","16.667224299065794","768","428","f","true","img/C_ambi40.png","好人","word_first",""
"","","","","","html-keyboard-response","312","576728","0.0-13.0-1.0-1.0-0.1-1.75","null","<span style='color:GreenYellow; font-size: 70px;'>正确! </span>","null","","","","","","","","","","","","","","","","","","","","","","","feedback_test"
"","","","","","psychophysics","313","578341","0.0-13.0-1.0-1.0-0.1-0.76","457","","j","","","","","","","","","","","","","key","j","16.66703125000034","768","428","f","false","img/T_ambi40.png","坏人","word_first",""
"","","","","","html-keyboard-response","314","578657","0.0-13.0-1.0-1.0-0.1-1.76","null","<span style='color:red; font-size: 70px;'>错误! </span>","null","","","","","","","","","","","","","","","","","","","","","","","feedback_test"
"","","","","","psychophysics","315","580439","0.0-13.0-1.0-1.0-0.1-0.77","626","","j","","","","","","","","","","","","","key","j","16.665047169811277","768","428","j","true","img/C_ambi40.png","坏人","word_first",""
"","","","","","html-keyboard-response","316","580744","0.0-13.0-1.0-1.0-0.1-1.77","null","<span style='color:GreenYellow; font-size: 70px;'>正确! </span>","null","","","","","","","","","","","","","","","","","","","","","","","feedback_test"
"","","","","","psychophysics","317","582245","0.0-13.0-1.0-1.0-0.1-0.78","345","","f","","","","","","","","","","","","","key","f","16.666977528088957","768","428","j","false","img/T_ambi40.png","好人","word_first",""
"","","","","","html-keyboard-response","318","582550","0.0-13.0-1.0-1.0-0.1-1.78","null","<span style='color:red; font-size: 70px;'>错误! </span>","null","","","","","","","","","","","","","","","","","","","","","","","feedback_test"
"","","","","","psychophysics","319","584486","0.0-13.0-1.0-1.0-0.1-0.79","785","","j","","","","","","","","","","","","","key","j","16.546791304347266","768","428","j","true","img/S_ambi40.png","好人","word_first",""
"","","","","","html-keyboard-response","320","584799","0.0-13.0-1.0-1.0-0.1-1.79","null","<span style='color:GreenYellow; font-size: 70px;'>正确! </span>","null","","","","","","","","","","","","","","","","","","","","","","","feedback_test"
"","","","","","psychophysics","321","586807","0.0-13.0-1.0-1.0-0.1-0.80","854","","j","","","","","","","","","","","","","key","j","16.557672268907666","768","428","j","true","img/T_ambi40.png","常人","word_first",""
"","","","","","html-keyboard-response","322","587119","0.0-13.0-1.0-1.0-0.1-1.80","null","<span style='color:GreenYellow; font-size: 70px;'>正确! </span>","null","","","","","","","","","","","","","","","","","","","","","","","feedback_test"
"","","","","","psychophysics","323","588875","0.0-13.0-1.0-1.0-0.1-0.81","591","","f","","","","","","","","","","","","","key","f","16.66552884615353","768","428","f","true","img/C_ambi40.png","好人","word_first",""
"","","","","","html-keyboard-response","324","589190","0.0-13.0-1.0-1.0-0.1-1.81","null","<span style='color:GreenYellow; font-size: 70px;'>正确! </span>","null","","","","","","","","","","","","","","","","","","","","","","","feedback_test"
"","","","","","psychophysics","325","591003","0.0-13.0-1.0-1.0-0.1-0.82","652","","f","","","","","","","","","","","","","key","f","16.667638888888717","768","428","f","true","img/S_ambi40.png","常人","word_first",""
"","","","","","html-keyboard-response","326","591312","0.0-13.0-1.0-1.0-0.1-1.82","null","<span style='color:GreenYellow; font-size: 70px;'>正确! </span>","null","","","","","","","","","","","","","","","","","","","","","","","feedback_test"
"","","","","","psychophysics","327","593595","0.0-13.0-1.0-1.0-0.1-0.83","1128","","j","","","","","","","","","","","","","key","j","16.666191176471116","768","428","f","false","img/T_ambi40.png","坏人","word_first",""
"","","","","","html-keyboard-response","328","593911","0.0-13.0-1.0-1.0-0.1-1.83","null","<span style='color:red; font-size: 70px;'>错误! </span>","null","","","","","","","","","","","","","","","","","","","","","","","feedback_test"
"","","","","","psychophysics","329","595641","0.0-13.0-1.0-1.0-0.1-0.84","573","","j","","","","","","","","","","","","","key","j","16.666766990291507","768","428","j","true","img/T_ambi40.png","常人","word_first",""
"","","","","","html-keyboard-response","330","595950","0.0-13.0-1.0-1.0-0.1-1.84","null","<span style='color:GreenYellow; font-size: 70px;'>正确! </span>","null","","","","","","","","","","","","","","","","","","","","","","","feedback_test"
"","","","","","psychophysics","331","597815","0.0-13.0-1.0-1.0-0.1-0.85","697","","f","","","","","","","","","","","","","key","f","16.665000000000212","768","428","f","true","img/T_ambi40.png","坏人","word_first",""
"","","","","","html-keyboard-response","332","598118","0.0-13.0-1.0-1.0-0.1-1.85","null","<span style='color:GreenYellow; font-size: 70px;'>正确! </span>","null","","","","","","","","","","","","","","","","","","","","","","","feedback_test"
"","","","","","psychophysics","333","599985","0.0-13.0-1.0-1.0-0.1-0.86","701","","j","","","","","","","","","","","","","key","j","16.66307207207229","768","428","j","true","img/S_ambi40.png","坏人","word_first",""
"","","","","","html-keyboard-response","334","600303","0.0-13.0-1.0-1.0-0.1-1.86","null","<span style='color:GreenYellow; font-size: 70px;'>正确! </span>","null","","","","","","","","","","","","","","","","","","","","","","","feedback_test"
"","","","","","psychophysics","335","602459","0.0-13.0-1.0-1.0-0.1-0.87","992","","j","","","","","","","","","","","","","key","j","16.666421875000196","768","428","j","true","img/T_ambi40.png","好人","word_first",""
"","","","","","html-keyboard-response","336","602775","0.0-13.0-1.0-1.0-0.1-1.87","null","<span style='color:GreenYellow; font-size: 70px;'>正确! </span>","null","","","","","","","","","","","","","","","","","","","","","","","feedback_test"
"","","","","","psychophysics","337","604533","0.0-13.0-1.0-1.0-0.1-0.88","599","","f","","","","","","","","","","","","","key","f","16.666019230768704","768","428","f","true","img/T_ambi40.png","坏人","word_first",""
"","","","","","html-keyboard-response","338","604844","0.0-13.0-1.0-1.0-0.1-1.88","null","<span style='color:GreenYellow; font-size: 70px;'>正确! </span>","null","","","","","","","","","","","","","","","","","","","","","","","feedback_test"
"","","","","","psychophysics","339","606591","0.0-13.0-1.0-1.0-0.1-0.89","591","","f","","","","","","","","","","","","","key","f","16.66501923076934","768","428","f","true","img/S_ambi40.png","常人","word_first",""
"","","","","","html-keyboard-response","340","606903","0.0-13.0-1.0-1.0-0.1-1.89","null","<span style='color:GreenYellow; font-size: 70px;'>正确! </span>","null","","","","","","","","","","","","","","","","","","","","","","","feedback_test"
"","","","","","psychophysics","341","608715","0.0-13.0-1.0-1.0-0.1-0.90","648","","f","","","","","","","","","","","","","key","f","16.666803738318826","768","428","f","true","img/C_ambi40.png","好人","word_first",""
"","","","","","html-keyboard-response","342","609035","0.0-13.0-1.0-1.0-0.1-1.90","null","<span style='color:GreenYellow; font-size: 70px;'>正确! </span>","null","","","","","","","","","","","","","","","","","","","","","","","feedback_test"
"","","","","","psychophysics","343","610939","0.0-13.0-1.0-1.0-0.1-0.91","742","","j","","","","","","","","","","","","","key","j","16.665477876106394","768","428","j","true","img/C_ambi40.png","常人","word_first",""
"","","","","","html-keyboard-response","344","611257","0.0-13.0-1.0-1.0-0.1-1.91","null","<span style='color:GreenYellow; font-size: 70px;'>正确! </span>","null","","","","","","","","","","","","","","","","","","","","","","","feedback_test"
"","","","","","psychophysics","345","612865","0.0-13.0-1.0-1.0-0.1-0.92","448","","f","","","","","","","","","","","","","key","f","16.666378947368234","768","428","f","true","img/S_ambi40.png","常人","word_first",""
"","","","","","html-keyboard-response","346","613173","0.0-13.0-1.0-1.0-0.1-1.92","null","<span style='color:GreenYellow; font-size: 70px;'>正确! </span>","null","","","","","","","","","","","","","","","","","","","","","","","feedback_test"
"","","","","","psychophysics","347","614919","0.0-13.0-1.0-1.0-0.1-0.93","591","","j","","","","","","","","","","","","","key","j","16.665211538461826","768","428","j","true","img/S_ambi40.png","好人","word_first",""
"","","","","","html-keyboard-response","348","615234","0.0-13.0-1.0-1.0-0.1-1.93","null","<span style='color:GreenYellow; font-size: 70px;'>正确! </span>","null","","","","","","","","","","","","","","","","","","","","","","","feedback_test"
"","","","","","psychophysics","349","616879","0.0-13.0-1.0-1.0-0.1-0.94","490","","f","","","","","","","","","","","","","key","f","16.66592783505126","768","428","f","true","img/C_ambi40.png","好人","word_first",""
"","","","","","html-keyboard-response","350","617186","0.0-13.0-1.0-1.0-0.1-1.94","null","<span style='color:GreenYellow; font-size: 70px;'>正确! </span>","null","","","","","","","","","","","","","","","","","","","","","","","feedback_test"
"","","","","","psychophysics","351","619103","0.0-13.0-1.0-1.0-0.1-0.95","753","","j","","","","","","","","","","","","","key","j","16.663719298246544","768","428","j","true","img/C_ambi40.png","坏人","word_first",""
"","","","","","html-keyboard-response","352","619410","0.0-13.0-1.0-1.0-0.1-1.95","null","<span style='color:GreenYellow; font-size: 70px;'>正确! </span>","null","","","","","","","","","","","","","","","","","","","","","","","feedback_test"
"","","","","","psychophysics","353","621373","0.0-13.0-1.0-1.0-0.1-0.96","809","","f","","","","","","","","","","","","","key","f","16.666820512820856","768","428","f","true","img/S_ambi40.png","常人","word_first",""
"","","","","","html-keyboard-response","354","621680","0.0-13.0-1.0-1.0-0.1-1.96","null","<span style='color:GreenYellow; font-size: 70px;'>正确! </span>","null","","","","","","","","","","","","","","","","","","","","","","","feedback_test"
"","","","","","psychophysics","355","623323","0.0-13.0-1.0-1.0-0.1-0.97","489","","j","","","","","","","","","","","","","key","j","16.665867346938825","768","428","j","true","img/T_ambi40.png","常人","word_first",""
"","","","","","html-keyboard-response","356","623636","0.0-13.0-1.0-1.0-0.1-1.97","null","<span style='color:GreenYellow; font-size: 70px;'>正确! </span>","null","","","","","","","","","","","","","","","","","","","","","","","feedback_test"
"","","","","","psychophysics","357","625241","0.0-13.0-1.0-1.0-0.1-0.98","441","","f","","","","","","","","","","","","","key","f","16.666547368421515","768","428","f","true","img/S_ambi40.png","常人","word_first",""
"","","","","","html-keyboard-response","358","625550","0.0-13.0-1.0-1.0-0.1-1.98","null","<span style='color:GreenYellow; font-size: 70px;'>正确! </span>","null","","","","","","","","","","","","","","","","","","","","","","","feedback_test"
"","","","","","psychophysics","359","627285","0.0-13.0-1.0-1.0-0.1-0.99","584","","j","","","","","","","","","","","","","key","j","16.665932038833965","768","428","f","false","img/C_ambi40.png","好人","word_first",""
"","","","","","html-keyboard-response","360","627591","0.0-13.0-1.0-1.0-0.1-1.99","null","<span style='color:red; font-size: 70px;'>错误! </span>","null","","","","","","","","","","","","","","","","","","","","","","","feedback_test"
"","","","","","psychophysics","361","629315","0.0-13.0-1.0-1.0-0.1-0.100","565","","j","","","","","","","","","","","","","key","j","16.667176470588483","768","428","j","true","img/C_ambi40.png","坏人","word_first",""
"","","","","","html-keyboard-response","362","629632","0.0-13.0-1.0-1.0-0.1-1.100","null","<span style='color:GreenYellow; font-size: 70px;'>正确! </span>","null","","","","","","","","","","","","","","","","","","","","","","","feedback_test"
"","","","","","psychophysics","363","631190","0.0-13.0-1.0-1.0-0.1-0.101","407","","f","","","","","","","","","","","","","key","f","16.509032608695712","768","428","f","true","img/C_ambi40.png","好人","word_first",""
"","","","","","html-keyboard-response","364","631500","0.0-13.0-1.0-1.0-0.1-1.101","null","<span style='color:GreenYellow; font-size: 70px;'>正确! </span>","null","","","","","","","","","","","","","","","","","","","","","","","feedback_test"
"","","","","","psychophysics","365","633173","0.0-13.0-1.0-1.0-0.1-0.102","522","","j","","","","","","","","","","","","","key","j","16.66368686868762","768","428","j","true","img/C_ambi40.png","常人","word_first",""
"","","","","","html-keyboard-response","366","633477","0.0-13.0-1.0-1.0-0.1-1.102","null","<span style='color:GreenYellow; font-size: 70px;'>正确! </span>","null","","","","","","","","","","","","","","","","","","","","","","","feedback_test"
"","","","","","psychophysics","367","635075","0.0-13.0-1.0-1.0-0.1-0.103","442","","j","","","","","","","","","","","","","key","j","16.66729473684253","768","428","f","false","img/T_ambi40.png","坏人","word_first",""
"","","","","","html-keyboard-response","368","635385","0.0-13.0-1.0-1.0-0.1-1.103","null","<span style='color:red; font-size: 70px;'>错误! </span>","null","","","","","","","","","","","","","","","","","","","","","","","feedback_test"
"","","","","","psychophysics","369","637205","0.0-13.0-1.0-1.0-0.1-0.104","655","","f","","","","","","","","","","","","","key","f","16.66659259259231","768","428","f","true","img/T_ambi40.png","坏人","word_first",""
"","","","","","html-keyboard-response","370","637517","0.0-13.0-1.0-1.0-0.1-1.104","null","<span style='color:GreenYellow; font-size: 70px;'>正确! </span>","null","","","","","","","","","","","","","","","","","","","","","","","feedback_test"
"","","","","","psychophysics","371","639124","0.0-13.0-1.0-1.0-0.1-0.105","442","","j","","","","","","","","","","","","","key","j","16.667157894736892","768","428","j","true","img/S_ambi40.png","坏人","word_first",""
"","","","","","html-keyboard-response","372","639429","0.0-13.0-1.0-1.0-0.1-1.105","null","<span style='color:GreenYellow; font-size: 70px;'>正确! </span>","null","","","","","","","","","","","","","","","","","","","","","","","feedback_test"
"","","","","","psychophysics","373","641110","0.0-13.0-1.0-1.0-0.1-0.106","528","","j","","","","","","","","","","","","","key","j","16.66433999999892","768","428","j","true","img/S_ambi40.png","好人","word_first",""
"","","","","","html-keyboard-response","374","641422","0.0-13.0-1.0-1.0-0.1-1.106","null","<span style='color:GreenYellow; font-size: 70px;'>正确! </span>","null","","","","","","","","","","","","","","","","","","","","","","","feedback_test"
"","","","","","psychophysics","375","643023","0.0-13.0-1.0-1.0-0.1-0.107","440","","f","","","","","","","","","","","","","key","f","16.6679578947369","768","428","j","false","img/T_ambi40.png","好人","word_first",""
"","","","","","html-keyboard-response","376","643336","0.0-13.0-1.0-1.0-0.1-1.107","null","<span style='color:red; font-size: 70px;'>错误! </span>","null","","","","","","","","","","","","","","","","","","","","","","","feedback_test"
"","","","","","psychophysics","377","645018","0.0-13.0-1.0-1.0-0.1-0.108","519","","f","","","","","","","","","","","","","key","f","16.665100000000095","768","428","f","true","img/S_ambi40.png","常人","word_first",""
"","","","","","html-keyboard-response","378","645328","0.0-13.0-1.0-1.0-0.1-1.108","null","<span style='color:GreenYellow; font-size: 70px;'>正确! </span>","null","","","","","","","","","","","","","","","","","","","","","","","feedback_test"
"","","","","","psychophysics","379","647042","0.0-13.0-1.0-1.0-0.1-0.109","560","","j","","","","","","","","","","","","","key","j","16.667509803921668","768","428","j","true","img/C_ambi40.png","常人","word_first",""
"","","","","","html-keyboard-response","380","647354","0.0-13.0-1.0-1.0-0.1-1.109","null","<span style='color:GreenYellow; font-size: 70px;'>正确! </span>","null","","","","","","","","","","","","","","","","","","","","","","","feedback_test"
"","","","","","psychophysics","381","649005","0.0-13.0-1.0-1.0-0.1-0.110","496","","j","","","","","","","","","","","","","key","j","16.663397959184035","768","428","f","false","img/C_ambi40.png","好人","word_first",""
"","","","","","html-keyboard-response","382","649329","0.0-13.0-1.0-1.0-0.1-1.110","null","<span style='color:red; font-size: 70px;'>错误! </span>","null","","","","","","","","","","","","","","","","","","","","","","","feedback_test"
"","","","","","psychophysics","383","651321","0.0-13.0-1.0-1.0-0.1-0.111","838","","f","","","","","","","","","","","","","key","f","16.664302521008615","768","428","f","true","img/C_ambi40.png","好人","word_first",""
"","","","","","html-keyboard-response","384","651637","0.0-13.0-1.0-1.0-0.1-1.111","null","<span style='color:GreenYellow; font-size: 70px;'>正确! </span>","null","","","","","","","","","","","","","","","","","","","","","","","feedback_test"
"","","","","","psychophysics","385","653463","0.0-13.0-1.0-1.0-0.1-0.112","664","","f","","","","","","","","","","","","","key","f","16.667620370370397","768","428","f","true","img/S_ambi40.png","常人","word_first",""
"","","","","","html-keyboard-response","386","653770","0.0-13.0-1.0-1.0-0.1-1.112","null","<span style='color:GreenYellow; font-size: 70px;'>正确! </span>","null","","","","","","","","","","","","","","","","","","","","","","","feedback_test"
"","","","","","psychophysics","387","655296","0.0-13.0-1.0-1.0-0.1-0.113","363","","f","","","","","","","","","","","","","key","f","16.6658999999998","768","428","j","false","img/T_ambi40.png","好人","word_first",""
"","","","","","html-keyboard-response","388","655606","0.0-13.0-1.0-1.0-0.1-1.113","null","<span style='color:red; font-size: 70px;'>错误! </span>","null","","","","","","","","","","","","","","","","","","","","","","","feedback_test"
"","","","","","psychophysics","389","657312","0.0-13.0-1.0-1.0-0.1-0.114","546","","j","","","","","","","","","","","","","key","j","16.66698019801971","768","428","j","true","img/C_ambi40.png","坏人","word_first",""
"","","","","","html-keyboard-response","390","657634","0.0-13.0-1.0-1.0-0.1-1.114","null","<span style='color:GreenYellow; font-size: 70px;'>正确! </span>","null","","","","","","","","","","","","","","","","","","","","","","","feedback_test"
"","","","","","psychophysics","391","659317","0.0-13.0-1.0-1.0-0.1-0.115","518","","f","","","","","","","","","","","","","key","f","16.665879999999888","768","428","f","true","img/T_ambi40.png","坏人","word_first",""
"","","","","","html-keyboard-response","392","659626","0.0-13.0-1.0-1.0-0.1-1.115","null","<span style='color:GreenYellow; font-size: 70px;'>正确! </span>","null","","","","","","","","","","","","","","","","","","","","","","","feedback_test"
"","","","","","psychophysics","393","661313","0.0-13.0-1.0-1.0-0.1-0.116","531","","j","","","","","","","","","","","","","key","j","16.666199999999954","768","428","j","true","img/T_ambi40.png","常人","word_first",""
"","","","","","html-keyboard-response","394","661630","0.0-13.0-1.0-1.0-0.1-1.116","null","<span style='color:GreenYellow; font-size: 70px;'>正确! </span>","null","","","","","","","","","","","","","","","","","","","","","","","feedback_test"
"","","","","","psychophysics","395","663558","0.0-13.0-1.0-1.0-0.1-0.117","776","","f","","","","","","","","","","","","","key","f","16.6674521739129","768","428","f","true","img/T_ambi40.png","坏人","word_first",""
"","","","","","html-keyboard-response","396","663867","0.0-13.0-1.0-1.0-0.1-1.117","null","<span style='color:GreenYellow; font-size: 70px;'>正确! </span>","null","","","","","","","","","","","","","","","","","","","","","","","feedback_test"
"","","","","","psychophysics","397","665667","0.0-13.0-1.0-1.0-0.1-0.118","635","","j","","","","","","","","","","","","","key","j","16.66689719626175","768","428","j","true","img/S_ambi40.png","好人","word_first",""
"","","","","","html-keyboard-response","398","665981","0.0-13.0-1.0-1.0-0.1-1.118","null","<span style='color:GreenYellow; font-size: 70px;'>正确! </span>","null","","","","","","","","","","","","","","","","","","","","","","","feedback_test"
"","","","","","psychophysics","399","668061","0.0-13.0-1.0-1.0-0.1-0.119","929","","j","","","","","","","","","","","","","key","j","16.55403252032574","768","428","j","true","img/S_ambi40.png","坏人","word_first",""
"","","","","","html-keyboard-response","400","668370","0.0-13.0-1.0-1.0-0.1-1.119","null","<span style='color:GreenYellow; font-size: 70px;'>正确! </span>","null","","","","","","","","","","","","","","","","","","","","","","","feedback_test"
"","","","","","html-keyboard-response","401","671245","0.0-13.0-1.0-1.0-1.1","2874","<style>.context{color:white; font-size: 35px; line-height:40px}</style>                              <div><p class='context'>您正确回答了83% 的试次。</p><p class='context'>您的平均反应时为625毫秒。</p><p class='context'>请按任意键进入休息</p></div>","j","","","","","","","","","","","","","","","","","","","","","","",""
"","","","","","html-button-response","402","715005","0.0-13.0-1.0-1.0-2.1","43756","
                      <p>您当前还剩余2组实验</p>
                      <p>现在是休息时间，当您结束休息后，您可以点击 结束休息 按钮 继续</p>
                      <p>建议休息时间还剩余<span id=""iii"">60</span>秒</p>","0","","","","","","","","","","","","","","","","","","","","","","",""
"","","","","","psychophysics","403","716936","0.0-13.0-1.0-1.0-0.2-0.120","771","","j","","","","","","","","","","","","","key","j","16.666069565217374","768","428","j","true","img/T_ambi40.png","常人","word_first",""
"","","","","","html-keyboard-response","404","717242","0.0-13.0-1.0-1.0-0.2-1.120","null","<span style='color:GreenYellow; font-size: 70px;'>正确! </span>","null","","","","","","","","","","","","","","","","","","","","","","","feedback_test"
"","","","","","psychophysics","405","718951","0.0-13.0-1.0-1.0-0.2-0.121","555","","f","","","","","","","","","","","","","key","f","16.666833333333262","768","428","f","true","img/T_ambi40.png","坏人","word_first",""
"","","","","","html-keyboard-response","406","719264","0.0-13.0-1.0-1.0-0.2-1.121","null","<span style='color:GreenYellow; font-size: 70px;'>正确! </span>","null","","","","","","","","","","","","","","","","","","","","","","","feedback_test"
"","","","","","psychophysics","407","721103","0.0-13.0-1.0-1.0-0.2-0.122","686","","f","","","","","","","","","","","","","key","f","16.54019266054987","768","428","f","true","img/S_ambi40.png","常人","word_first",""
"","","","","","html-keyboard-response","408","721414","0.0-13.0-1.0-1.0-0.2-1.122","null","<span style='color:GreenYellow; font-size: 70px;'>正确! </span>","null","","","","","","","","","","","","","","","","","","","","","","","feedback_test"
"","","","","","psychophysics","409","723030","0.0-13.0-1.0-1.0-0.2-0.123","464","","f","","","","","","","","","","","","","key","f","16.667494736842222","768","428","j","false","img/T_ambi40.png","好人","word_first",""
"","","","","","html-keyboard-response","410","723343","0.0-13.0-1.0-1.0-0.2-1.123","null","<span style='color:red; font-size: 70px;'>错误! </span>","null","","","","","","","","","","","","","","","","","","","","","","","feedback_test"
"","","","","","psychophysics","411","725476","0.0-13.0-1.0-1.0-0.2-0.124","978","","f","","","","","","","","","","","","","key","f","16.66481889763803","768","428","f","true","img/C_ambi40.png","好人","word_first",""
"","","","","","html-keyboard-response","412","725786","0.0-13.0-1.0-1.0-0.2-1.124","null","<span style='color:GreenYellow; font-size: 70px;'>正确! </span>","null","","","","","","","","","","","","","","","","","","","","","","","feedback_test"
"","","","","","psychophysics","413","727583","0.0-13.0-1.0-1.0-0.2-0.125","640","","j","","","","","","","","","","","","","key","j","16.66893457943926","768","428","j","true","img/C_ambi40.png","坏人","word_first",""
"","","","","","html-keyboard-response","414","727891","0.0-13.0-1.0-1.0-0.2-1.125","null","<span style='color:GreenYellow; font-size: 70px;'>正确! </span>","null","","","","","","","","","","","","","","","","","","","","","","","feedback_test"
"","","","","","psychophysics","415","729557","0.0-13.0-1.0-1.0-0.2-0.126","509","","j","","","","","","","","","","","","","key","j","16.66453535353525","768","428","j","true","img/C_ambi40.png","常人","word_first",""
"","","","","","html-keyboard-response","416","729868","0.0-13.0-1.0-1.0-0.2-1.126","null","<span style='color:GreenYellow; font-size: 70px;'>正确! </span>","null","","","","","","","","","","","","","","","","","","","","","","","feedback_test"
"","","","","","psychophysics","417","731667","0.0-13.0-1.0-1.0-0.2-0.127","644","","f","","","","","","","","","","","","","key","f","16.665710280374103","768","428","f","true","img/S_ambi40.png","常人","word_first",""
"","","","","","html-keyboard-response","418","731973","0.0-13.0-1.0-1.0-0.2-1.127","null","<span style='color:GreenYellow; font-size: 70px;'>正确! </span>","null","","","","","","","","","","","","","","","","","","","","","","","feedback_test"
"","","","","","psychophysics","419","733662","0.0-13.0-1.0-1.0-0.2-0.128","530","","f","","","","","","","","","","","","","key","f","16.666089999999386","768","428","f","true","img/T_ambi40.png","坏人","word_first",""
"","","","","","html-keyboard-response","420","733968","0.0-13.0-1.0-1.0-0.2-1.128","null","<span style='color:GreenYellow; font-size: 70px;'>正确! </span>","null","","","","","","","","","","","","","","","","","","","","","","","feedback_test"
"","","","","","psychophysics","421","735905","0.0-13.0-1.0-1.0-0.2-0.129","774","","j","","","","","","","","","","","","","key","j","16.664626086955767","768","428","j","true","img/S_ambi40.png","坏人","word_first",""
"","","","","","html-keyboard-response","422","736219","0.0-13.0-1.0-1.0-0.2-1.129","null","<span style='color:GreenYellow; font-size: 70px;'>正确! </span>","null","","","","","","","","","","","","","","","","","","","","","","","feedback_test"
"","","","","","psychophysics","423","737939","0.0-13.0-1.0-1.0-0.2-0.130","558","","f","","","","","","","","","","","","","key","f","16.66568627450889","768","428","f","true","img/C_ambi40.png","好人","word_first",""
"","","","","","html-keyboard-response","424","738255","0.0-13.0-1.0-1.0-0.2-1.130","null","<span style='color:GreenYellow; font-size: 70px;'>正确! </span>","null","","","","","","","","","","","","","","","","","","","","","","","feedback_test"
"","","","","","psychophysics","425","739936","0.0-13.0-1.0-1.0-0.2-0.131","521","","j","","","","","","","","","","","","","key","j","16.66694999999949","768","428","j","true","img/S_ambi40.png","好人","word_first",""
"","","","","","html-keyboard-response","426","740250","0.0-13.0-1.0-1.0-0.2-1.131","null","<span style='color:GreenYellow; font-size: 70px;'>正确! </span>","null","","","","","","","","","","","","","","","","","","","","","","","feedback_test"
"","","","","","psychophysics","427","742059","0.0-13.0-1.0-1.0-0.2-0.132","652","","f","","","","","","","","","","","","","key","f","16.665121495326606","768","428","f","true","img/T_ambi40.png","坏人","word_first",""
"","","","","","html-keyboard-response","428","742371","0.0-13.0-1.0-1.0-0.2-1.132","null","<span style='color:GreenYellow; font-size: 70px;'>正确! </span>","null","","","","","","","","","","","","","","","","","","","","","","","feedback_test"
"","","","","","psychophysics","429","744067","0.0-13.0-1.0-1.0-0.2-0.133","536","","j","","","","","","","","","","","","","key","j","16.666465346534313","768","428","j","true","img/S_ambi40.png","坏人","word_first",""
"","","","","","html-keyboard-response","430","744377","0.0-13.0-1.0-1.0-0.2-1.133","null","<span style='color:GreenYellow; font-size: 70px;'>正确! </span>","null","","","","","","","","","","","","","","","","","","","","","","","feedback_test"
"","","","","","psychophysics","431","746177","0.0-13.0-1.0-1.0-0.2-0.134","646","","f","","","","","","","","","","","","","key","f","16.664570093458458","768","428","f","true","img/C_ambi40.png","好人","word_first",""
"","","","","","html-keyboard-response","432","746500","0.0-13.0-1.0-1.0-0.2-1.134","null","<span style='color:GreenYellow; font-size: 70px;'>正确! </span>","null","","","","","","","","","","","","","","","","","","","","","","","feedback_test"
"","","","","","psychophysics","433","748185","0.0-13.0-1.0-1.0-0.2-0.135","521","","f","","","","","","","","","","","","","key","f","16.666480000000448","768","428","f","true","img/T_ambi40.png","坏人","word_first",""
