"success","timeout","failed_images","failed_audio","failed_video","trial_type","trial_index","time_elapsed","internal_node_id","rt","stimulus","response","value","item_width_mm","item_height_mm","item_width_px","px2mm","view_dist_mm","item_width_deg","px2deg","scale_factor","win_width_deg","win_height_deg","view_history","response_type","key_press","avg_frame_time","center_x","center_y","correct_response","correct","Image","word","condition","screen_id"
"true","false","[]","[]","[]","preload","0","639","0.0-0.0","","","","","","","","","","","","","","","","","","","","","","","","","",""
"","","","","","html-keyboard-response","1","232247","0.0-1.0","231786","
     <p>您好，欢迎参加本次实验。</p>
     <p>为充分保障您的权利，请确保您已经知晓并同意《参与实验同意书》以及《数据公开知情同意书》。</p>
     <p>如果您未见过上述内容，请咨询实验员。</p>
     <p>如果您选择继续实验，则表示您已经清楚两份知情同意书的内容并同意。</p>
     <p> <div style = ""color: green""><按任意键至下页></div> </p>
     "," ","","","","","","","","","","","","","","","","","","","","","","",""
"","","","","","html-keyboard-response","2","233436","0.0-2.0","1188","
     <p>本实验首先需要您填写一些基本个人信息。</p>
     <p> <div style = ""color: green""><按任意键至下页></div></p>
     "," ","","","","","","","","","","","","","","","","","","","","","","",""
"","","","","","call-function","3","233438","0.0-3.0-0.0","","","","","","","","","","","","","","","","","","","","","","","","","",""
"","","","","","survey-html-form","4","238665","0.0-3.0-1.0","5223","","{""Q0"":""33""}","","","","","","","","","","","","","","","","","","","","","","",""
"","","","","","html-button-response","5","240579","0.0-3.0-2.0","1913","<p style = 'color : white'>您的性别</p>","0","","","","","","","","","","","","","","","","","","","","","","",""
"","","","","","survey-html-form","6","244984","0.0-3.0-3.0","4404","","{""Q0"":""2000""}","","","","","","","","","","","","","","","","","","","","","","",""
"","","","","","survey-html-form","7","247912","0.0-3.0-4.0","2926","","{""Q0"":""5""}","","","","","","","","","","","","","","","","","","","","","","",""
"","","","","","virtual-chinrest","8","288527","0.0-4.0","40610","","","","85.6","53.98","527.0015641756063","6.15656032915428","464.01","10.540031283512127","50","0.8121418020258148","28.8","15.28","","","","","","","","","","","",""
"true","","","","","fullscreen","9","290658","0.0-5.0","","","","","","","","","","","","","","","","","","","","","","","","","",""
"","","","","","instructions","10","323677","0.0-6.0","33018","","","","","","","","","","","","","","[{""page_index"":0,""viewing_time"":1516},{""page_index"":1,""viewing_time"":22248},{""page_index"":2,""viewing_time"":4236},{""page_index"":3,""viewing_time"":5018}]","","","","","","","","","","",""
"","","","","","psychophysics","11","325875","0.0-7.0-0.0-0.0","1037","","f","","","","","","","","","","","","","key","f","16.665999999999677","720","446","j","false","img/T_ambi40.png","好人","prac_image_first",""
"","","","","","html-keyboard-response","12","326186","0.0-7.0-0.0-1.0","null","<span style='color:red; font-size: 70px;'>错误! </span>","null","","","","","","","","","","","","","","","","","","","","","","","feedback_test"
"","","","","","psychophysics","13","328736","0.0-7.0-0.0-0.1","1398","","f","","","","","","","","","","","","","key","f","16.66600000000012","720","446","j","false","img/S_ambi40.png","坏人","prac_image_first",""
"","","","","","html-keyboard-response","14","329047","0.0-7.0-0.0-1.1","null","<span style='color:red; font-size: 70px;'>错误! </span>","null","","","","","","","","","","","","","","","","","","","","","","","feedback_test"
"","","","","","psychophysics","15","331058","0.0-7.0-0.0-0.2","854","","j","","","","","","","","","","","","","key","j","16.66600000000035","720","446","f","false","img/S_ambi40.png","好人","prac_image_first",""
"","","","","","html-keyboard-response","16","331366","0.0-7.0-0.0-1.2","null","<span style='color:red; font-size: 70px;'>错误! </span>","null","","","","","","","","","","","","","","","","","","","","","","","feedback_test"
"","","","","","psychophysics","17","334021","0.0-7.0-0.0-0.3","null","","null","","","","","","","","","","","","","key","null","16.66599999999982","720","446","j","false","img/C_ambi40.png","常人","prac_image_first",""
"","","","","","html-keyboard-response","18","334328","0.0-7.0-0.0-1.3","null","<span class='add_' style='color:yellow; font-size: 70px;'> 太慢! </span>","null","","","","","","","","","","","","","","","","","","","","","","","feedback_test"
"","","","","","psychophysics","19","336360","0.0-7.0-0.0-0.4","873","","f","","","","","","","","","","","","","key","f","16.666000000000086","720","446","j","false","img/S_ambi40.png","坏人","prac_image_first",""
"","","","","","html-keyboard-response","20","336666","0.0-7.0-0.0-1.4","null","<span style='color:red; font-size: 70px;'>错误! </span>","null","","","","","","","","","","","","","","","","","","","","","","","feedback_test"
"","","","","","psychophysics","21","339322","0.0-7.0-0.0-0.5","null","","null","","","","","","","","","","","","","key","null","16.669295597484307","720","446","f","false","img/S_ambi40.png","常人","prac_image_first",""
"","","","","","html-keyboard-response","22","339626","0.0-7.0-0.0-1.5","null","<span class='add_' style='color:yellow; font-size: 70px;'> 太慢! </span>","null","","","","","","","","","","","","","","","","","","","","","","","feedback_test"
"","","","","","psychophysics","23","342295","0.0-7.0-0.0-0.6","null","","null","","","","","","","","","","","","","key","null","16.666000000000185","720","446","f","false","img/C_ambi40.png","好人","prac_image_first",""
"","","","","","html-keyboard-response","24","342601","0.0-7.0-0.0-1.6","null","<span class='add_' style='color:yellow; font-size: 70px;'> 太慢! </span>","null","","","","","","","","","","","","","","","","","","","","","","","feedback_test"
"","","","","","psychophysics","25","344627","0.0-7.0-0.0-0.7","873","","f","","","","","","","","","","","","","key","f","16.665999999999865","720","446","f","true","img/T_ambi40.png","常人","prac_image_first",""
"","","","","","html-keyboard-response","26","344938","0.0-7.0-0.0-1.7","null","<span style='color:GreenYellow; font-size: 70px;'>正确! </span>","null","","","","","","","","","","","","","","","","","","","","","","","feedback_test"
"","","","","","psychophysics","27","346793","0.0-7.0-0.0-0.8","704","","j","","","","","","","","","","","","","key","j","16.666000000000086","720","446","f","false","img/C_ambi40.png","坏人","prac_image_first",""
"","","","","","html-keyboard-response","28","347102","0.0-7.0-0.0-1.8","null","<span style='color:red; font-size: 70px;'>错误! </span>","null","","","","","","","","","","","","","","","","","","","","","","","feedback_test"
"","","","","","psychophysics","29","349074","0.0-7.0-0.0-0.9","821","","j","","","","","","","","","","","","","key","j","16.666000000000174","720","446","f","false","img/T_ambi40.png","坏人","prac_image_first",""
"","","","","","html-keyboard-response","30","349386","0.0-7.0-0.0-1.9","null","<span style='color:red; font-size: 70px;'>错误! </span>","null","","","","","","","","","","","","","","","","","","","","","","","feedback_test"
"","","","","","psychophysics","31","351343","0.0-7.0-0.0-0.10","801","","j","","","","","","","","","","","","","key","j","16.665999999999947","720","446","j","true","img/T_ambi40.png","好人","prac_image_first",""
"","","","","","html-keyboard-response","32","351650","0.0-7.0-0.0-1.10","null","<span style='color:GreenYellow; font-size: 70px;'>正确! </span>","null","","","","","","","","","","","","","","","","","","","","","","","feedback_test"
"","","","","","psychophysics","33","353773","0.0-7.0-0.0-0.11","970","","j","","","","","","","","","","","","","key","j","16.66600000000021","720","446","j","true","img/C_ambi40.png","常人","prac_image_first",""
"","","","","","html-keyboard-response","34","354080","0.0-7.0-0.0-1.11","null","<span style='color:GreenYellow; font-size: 70px;'>正确! </span>","null","","","","","","","","","","","","","","","","","","","","","","","feedback_test"
"","","","","","psychophysics","35","356209","0.0-7.0-0.0-0.12","972","","f","","","","","","","","","","","","","key","f","16.66599999999996","720","446","f","true","img/S_ambi40.png","好人","prac_image_first",""
"","","","","","html-keyboard-response","36","356514","0.0-7.0-0.0-1.12","null","<span style='color:GreenYellow; font-size: 70px;'>正确! </span>","null","","","","","","","","","","","","","","","","","","","","","","","feedback_test"
"","","","","","psychophysics","37","358581","0.0-7.0-0.0-0.13","912","","f","","","","","","","","","","","","","key","f","16.666000000000043","720","446","j","false","img/T_ambi40.png","好人","prac_image_first",""
"","","","","","html-keyboard-response","38","358890","0.0-7.0-0.0-1.13","null","<span style='color:red; font-size: 70px;'>错误! </span>","null","","","","","","","","","","","","","","","","","","","","","","","feedback_test"
"","","","","","psychophysics","39","360580","0.0-7.0-0.0-0.14","533","","j","","","","","","","","","","","","","key","j","16.671290000000155","720","446","j","true","img/T_ambi40.png","好人","prac_image_first",""
"","","","","","html-keyboard-response","40","360885","0.0-7.0-0.0-1.14","null","<span style='color:GreenYellow; font-size: 70px;'>正确! </span>","null","","","","","","","","","","","","","","","","","","","","","","","feedback_test"
"","","","","","psychophysics","41","362885","0.0-7.0-0.0-0.15","848","","f","","","","","","","","","","","","","key","f","16.665999999999904","720","446","f","true","img/T_ambi40.png","坏人","prac_image_first",""
"","","","","","html-keyboard-response","42","363194","0.0-7.0-0.0-1.15","null","<span style='color:GreenYellow; font-size: 70px;'>正确! </span>","null","","","","","","","","","","","","","","","","","","","","","","","feedback_test"
"","","","","","psychophysics","43","365401","0.0-7.0-0.0-0.16","1048","","j","","","","","","","","","","","","","key","j","16.665999999999883","720","446","f","false","img/T_ambi40.png","常人","prac_image_first",""
"","","","","","html-keyboard-response","44","365714","0.0-7.0-0.0-1.16","null","<span style='color:red; font-size: 70px;'>错误! </span>","null","","","","","","","","","","","","","","","","","","","","","","","feedback_test"
"","","","","","psychophysics","45","367712","0.0-7.0-0.0-0.17","843","","f","","","","","","","","","","","","","key","f","16.66600000000013","720","446","j","false","img/S_ambi40.png","坏人","prac_image_first",""
"","","","","","html-keyboard-response","46","368014","0.0-7.0-0.0-1.17","null","<span style='color:red; font-size: 70px;'>错误! </span>","null","","","","","","","","","","","","","","","","","","","","","","","feedback_test"
"","","","","","psychophysics","47","370405","0.0-7.0-0.0-0.18","1235","","j","","","","","","","","","","","","","key","j","16.666000000000086","720","446","f","false","img/C_ambi40.png","好人","prac_image_first",""
"","","","","","html-keyboard-response","48","370714","0.0-7.0-0.0-1.18","null","<span style='color:red; font-size: 70px;'>错误! </span>","null","","","","","","","","","","","","","","","","","","","","","","","feedback_test"
"","","","","","psychophysics","49","373371","0.0-7.0-0.0-0.19","null","","null","","","","","","","","","","","","","key","null","16.666000000000185","720","446","f","false","img/S_ambi40.png","常人","prac_image_first",""
"","","","","","html-keyboard-response","50","373690","0.0-7.0-0.0-1.19","null","<span class='add_' style='color:yellow; font-size: 70px;'> 太慢! </span>","null","","","","","","","","","","","","","","","","","","","","","","","feedback_test"
"","","","","","psychophysics","51","376084","0.0-7.0-0.0-0.20","1239","","j","","","","","","","","","","","","","key","j","16.665999999999897","720","446","j","true","img/C_ambi40.png","常人","prac_image_first",""
"","","","","","html-keyboard-response","52","376394","0.0-7.0-0.0-1.20","null","<span style='color:GreenYellow; font-size: 70px;'>正确! </span>","null","","","","","","","","","","","","","","","","","","","","","","","feedback_test"
"","","","","","psychophysics","53","378965","0.0-7.0-0.0-0.21","1414","","f","","","","","","","","","","","","","key","f","16.66599999999991","720","446","j","false","img/S_ambi40.png","坏人","prac_image_first",""
"","","","","","html-keyboard-response","54","379275","0.0-7.0-0.0-1.21","null","<span style='color:red; font-size: 70px;'>错误! </span>","null","","","","","","","","","","","","","","","","","","","","","","","feedback_test"
"","","","","","psychophysics","55","381691","0.0-7.0-0.0-0.22","1261","","f","","","","","","","","","","","","","key","f","16.666000000000267","720","446","f","true","img/C_ambi40.png","坏人","prac_image_first",""
"","","","","","html-keyboard-response","56","382003","0.0-7.0-0.0-1.22","null","<span style='color:GreenYellow; font-size: 70px;'>正确! </span>","null","","","","","","","","","","","","","","","","","","","","","","","feedback_test"
"","","","","","psychophysics","57","384308","0.0-7.0-0.0-0.23","1154","","f","","","","","","","","","","","","","key","f","16.6660000000002","720","446","j","false","img/C_ambi40.png","常人","prac_image_first",""
"","","","","","html-keyboard-response","58","384618","0.0-7.0-0.0-1.23","null","<span style='color:red; font-size: 70px;'>错误! </span>","null","","","","","","","","","","","","","","","","","","","","","","","feedback_test"
"","","","","","html-keyboard-response","59","386922","0.0-7.0-1.0-0.0","2300","<style>.context{color:white; font-size: 35px; line-height:40px}</style>                              <div><p class='context'>您正确回答了33% 的试次。</p><p class='context'>您的平均反应时为937毫秒。</p>"," ","","","","","","","","","","","","","","","","","","","","","","",""
"","","","","","instructions","60","420323","0.0-7.0-1.0-1.0","33396","","","","","","","","","","","","","","[{""page_index"":0,""viewing_time"":1643},{""page_index"":1,""viewing_time"":29061},{""page_index"":2,""viewing_time"":2692}]","","","","","","","","","","",""
"","","","","","psychophysics","61","422227","0.0-7.1-0.1-0.24","745","","f","","","","","","","","","","","","","key","f","16.66600000000027","720","446","f","true","img/S_ambi40.png","常人","prac_image_first",""
"","","","","","html-keyboard-response","62","422534","0.0-7.1-0.1-1.24","null","<span style='color:GreenYellow; font-size: 70px;'>正确! </span>","null","","","","","","","","","","","","","","","","","","","","","","","feedback_test"
"","","","","","psychophysics","63","424483","0.0-7.1-0.1-0.25","798","","f","","","","","","","","","","","","","key","f","16.668286956521765","720","446","f","true","img/C_ambi40.png","坏人","prac_image_first",""
"","","","","","html-keyboard-response","64","424794","0.0-7.1-0.1-1.25","null","<span style='color:GreenYellow; font-size: 70px;'>正确! </span>","null","","","","","","","","","","","","","","","","","","","","","","","feedback_test"
"","","","","","psychophysics","65","427321","0.0-7.1-0.1-0.26","1371","","f","","","","","","","","","","","","","key","f","16.665999999999944","720","446","j","false","img/T_ambi40.png","好人","prac_image_first",""
"","","","","","html-keyboard-response","66","427631","0.0-7.1-0.1-1.26","null","<span style='color:red; font-size: 70px;'>错误! </span>","null","","","","","","","","","","","","","","","","","","","","","","","feedback_test"
"","","","","","psychophysics","67","429626","0.0-7.1-0.1-0.27","841","","f","","","","","","","","","","","","","key","f","16.66600000000013","720","446","j","false","img/C_ambi40.png","常人","prac_image_first",""
"","","","","","html-keyboard-response","68","429938","0.0-7.1-0.1-1.27","null","<span style='color:red; font-size: 70px;'>错误! </span>","null","","","","","","","","","","","","","","","","","","","","","","","feedback_test"
"","","","","","psychophysics","69","431811","0.0-7.1-0.1-0.28","716","","j","","","","","","","","","","","","","key","j","16.665999999999798","720","446","j","true","img/S_ambi40.png","坏人","prac_image_first",""
"","","","","","html-keyboard-response","70","432119","0.0-7.1-0.1-1.28","null","<span style='color:GreenYellow; font-size: 70px;'>正确! </span>","null","","","","","","","","","","","","","","","","","","","","","","","feedback_test"
"","","","","","psychophysics","71","434111","0.0-7.1-0.1-0.29","840","","j","","","","","","","","","","","","","key","j","16.665999999999904","720","446","j","true","img/T_ambi40.png","好人","prac_image_first",""
"","","","","","html-keyboard-response","72","434419","0.0-7.1-0.1-1.29","null","<span style='color:GreenYellow; font-size: 70px;'>正确! </span>","null","","","","","","","","","","","","","","","","","","","","","","","feedback_test"
"","","","","","psychophysics","73","436112","0.0-7.1-0.1-0.30","537","","j","","","","","","","","","","","","","key","j","16.665999999999766","720","446","f","false","img/T_ambi40.png","坏人","prac_image_first",""
"","","","","","html-keyboard-response","74","436419","0.0-7.1-0.1-1.30","null","<span style='color:red; font-size: 70px;'>错误! </span>","null","","","","","","","","","","","","","","","","","","","","","","","feedback_test"
"","","","","","psychophysics","75","438293","0.0-7.1-0.1-0.31","722","","f","","","","","","","","","","","","","key","f","16.666000000000324","720","446","f","true","img/S_ambi40.png","好人","prac_image_first",""
"","","","","","html-keyboard-response","76","438603","0.0-7.1-0.1-1.31","null","<span style='color:GreenYellow; font-size: 70px;'>正确! </span>","null","","","","","","","","","","","","","","","","","","","","","","","feedback_test"
"","","","","","psychophysics","77","440843","0.0-7.1-0.1-0.32","1085","","f","","","","","","","","","","","","","key","f","16.665999999999848","720","446","f","true","img/T_ambi40.png","常人","prac_image_first",""
"","","","","","html-keyboard-response","78","441151","0.0-7.1-0.1-1.32","null","<span style='color:GreenYellow; font-size: 70px;'>正确! </span>","null","","","","","","","","","","","","","","","","","","","","","","","feedback_test"
"","","","","","psychophysics","79","442794","0.0-7.1-0.1-0.33","490","","j","","","","","","","","","","","","","key","j","16.67140206185556","720","446","j","true","img/C_ambi40.png","常人","prac_image_first",""
"","","","","","html-keyboard-response","80","443104","0.0-7.1-0.1-1.33","null","<span style='color:GreenYellow; font-size: 70px;'>正确! </span>","null","","","","","","","","","","","","","","","","","","","","","","","feedback_test"
"","","","","","psychophysics","81","445288","0.0-7.1-0.1-0.34","1032","","f","","","","","","","","","","","","","key","f","16.666000000000125","720","446","j","false","img/S_ambi40.png","坏人","prac_image_first",""
"","","","","","html-keyboard-response","82","445591","0.0-7.1-0.1-1.34","null","<span style='color:red; font-size: 70px;'>错误! </span>","null","","","","","","","","","","","","","","","","","","","","","","","feedback_test"
"","","","","","psychophysics","83","447506","0.0-7.1-0.1-0.35","754","","f","","","","","","","","","","","","","key","f","16.665999999999993","720","446","f","true","img/C_ambi40.png","好人","prac_image_first",""
"","","","","","html-keyboard-response","84","447819","0.0-7.1-0.1-1.35","null","<span style='color:GreenYellow; font-size: 70px;'>正确! </span>","null","","","","","","","","","","","","","","","","","","","","","","","feedback_test"
"","","","","","psychophysics","85","449488","0.0-7.1-0.1-0.36","509","","j","","","","","","","","","","","","","key","j","16.666000000000086","720","446","j","true","img/C_ambi40.png","常人","prac_image_first",""
"","","","","","html-keyboard-response","86","449795","0.0-7.1-0.1-1.36","null","<span style='color:GreenYellow; font-size: 70px;'>正确! </span>","null","","","","","","","","","","","","","","","","","","","","","","","feedback_test"
"","","","","","psychophysics","87","451778","0.0-7.1-0.1-0.37","824","","f","","","","","","","","","","","","","key","f","16.665999999999904","720","446","j","false","img/T_ambi40.png","好人","prac_image_first",""
"","","","","","html-keyboard-response","88","452086","0.0-7.1-0.1-1.37","null","<span style='color:red; font-size: 70px;'>错误! </span>","null","","","","","","","","","","","","","","","","","","","","","","","feedback_test"
"","","","","","psychophysics","89","453974","0.0-7.1-0.1-0.38","734","","f","","","","","","","","","","","","","key","f","16.666000000000036","720","446","f","true","img/S_ambi40.png","好人","prac_image_first",""
"","","","","","html-keyboard-response","90","454283","0.0-7.1-0.1-1.38","null","<span style='color:GreenYellow; font-size: 70px;'>正确! </span>","null","","","","","","","","","","","","","","","","","","","","","","","feedback_test"
"","","","","","psychophysics","91","456377","0.0-7.1-0.1-0.39","941","","f","","","","","","","","","","","","","key","f","16.665999999999787","720","446","f","true","img/C_ambi40.png","坏人","prac_image_first",""
"","","","","","html-keyboard-response","92","456683","0.0-7.1-0.1-1.39","null","<span style='color:GreenYellow; font-size: 70px;'>正确! </span>","null","","","","","","","","","","","","","","","","","","","","","","","feedback_test"
"","","","","","psychophysics","93","458927","0.0-7.1-0.1-0.40","1091","","f","","","","","","","","","","","","","key","f","16.666000000000285","720","446","j","false","img/T_ambi40.png","好人","prac_image_first",""
"","","","","","html-keyboard-response","94","459235","0.0-7.1-0.1-1.40","null","<span style='color:red; font-size: 70px;'>错误! </span>","null","","","","","","","","","","","","","","","","","","","","","","","feedback_test"
"","","","","","psychophysics","95","460991","0.0-7.1-0.1-0.41","602","","f","","","","","","","","","","","","","key","f","16.66600000000024","720","446","f","true","img/T_ambi40.png","坏人","prac_image_first",""
"","","","","","html-keyboard-response","96","461299","0.0-7.1-0.1-1.41","null","<span style='color:GreenYellow; font-size: 70px;'>正确! </span>","null","","","","","","","","","","","","","","","","","","","","","","","feedback_test"
"","","","","","psychophysics","97","463553","0.0-7.1-0.1-0.42","1101","","j","","","","","","","","","","","","","key","j","16.669881481481543","720","446","j","true","img/S_ambi40.png","坏人","prac_image_first",""
"","","","","","html-keyboard-response","98","463863","0.0-7.1-0.1-1.42","null","<span style='color:GreenYellow; font-size: 70px;'>正确! </span>","null","","","","","","","","","","","","","","","","","","","","","","","feedback_test"
"","","","","","psychophysics","99","465807","0.0-7.1-0.1-0.43","788","","f","","","","","","","","","","","","","key","f","16.665999999999947","720","446","f","true","img/S_ambi40.png","常人","prac_image_first",""
"","","","","","html-keyboard-response","100","466115","0.0-7.1-0.1-1.43","null","<span style='color:GreenYellow; font-size: 70px;'>正确! </span>","null","","","","","","","","","","","","","","","","","","","","","","","feedback_test"
"","","","","","psychophysics","101","467741","0.0-7.1-0.1-0.44","471","","j","","","","","","","","","","","","","key","j","16.66600000000014","720","446","j","true","img/C_ambi40.png","常人","prac_image_first",""
"","","","","","html-keyboard-response","102","468050","0.0-7.1-0.1-1.44","null","<span style='color:GreenYellow; font-size: 70px;'>正确! </span>","null","","","","","","","","","","","","","","","","","","","","","","","feedback_test"
"","","","","","psychophysics","103","469956","0.0-7.1-0.1-0.45","753","","j","","","","","","","","","","","","","key","j","16.665999999999755","720","446","j","true","img/S_ambi40.png","坏人","prac_image_first",""
"","","","","","html-keyboard-response","104","470265","0.0-7.1-0.1-1.45","null","<span style='color:GreenYellow; font-size: 70px;'>正确! </span>","null","","","","","","","","","","","","","","","","","","","","","","","feedback_test"
"","","","","","psychophysics","105","472171","0.0-7.1-0.1-0.46","752","","f","","","","","","","","","","","","","key","f","16.665999999999993","720","446","f","true","img/T_ambi40.png","常人","prac_image_first",""
"","","","","","html-keyboard-response","106","472478","0.0-7.1-0.1-1.46","null","<span style='color:GreenYellow; font-size: 70px;'>正确! </span>","null","","","","","","","","","","","","","","","","","","","","","","","feedback_test"
"","","","","","psychophysics","107","474507","0.0-7.1-0.1-0.47","872","","f","","","","","","","","","","","","","key","f","16.666000000000086","720","446","f","true","img/C_ambi40.png","好人","prac_image_first",""
"","","","","","html-keyboard-response","108","474819","0.0-7.1-0.1-1.47","null","<span style='color:GreenYellow; font-size: 70px;'>正确! </span>","null","","","","","","","","","","","","","","","","","","","","","","","feedback_test"
"","","","","","html-keyboard-response","109","477309","0.0-8.0","2487","<style>.context{color:white; font-size: 35px; line-height:40px}</style>                              <div><p class='context'>您正确回答了75% 的试次。</p><p class='context'>您的平均反应时为760毫秒。</p><p class='context'>恭喜您完成这一阶段的练习。按任意键进入<span style='color: yellow;'>先文字后图形条件</span>的练习。</p></div>"," ","","","","","","","","","","","","","","","","","","","","","","",""
"","","","","","psychophysics","110","479405","0.0-9.0-0.0-0.0","937","","f","","","","","","","","","","","","","key","f","16.666","720","446","j","false","img/C_ambi40.png","常人","prac_word_first",""
"","","","","","html-keyboard-response","111","479710","0.0-9.0-0.0-1.0","null","<span style='color:red; font-size: 70px;'>错误! </span>","null","","","","","","","","","","","","","","","","","","","","","","","feedback_test"
"","","","","","psychophysics","112","481989","0.0-9.0-0.0-0.1","1123","","f","","","","","","","","","","","","","key","f","16.666000000000007","720","446","f","true","img/C_ambi40.png","好人","prac_word_first",""
"","","","","","html-keyboard-response","113","482298","0.0-9.0-0.0-1.1","null","<span style='color:GreenYellow; font-size: 70px;'>正确! </span>","null","","","","","","","","","","","","","","","","","","","","","","","feedback_test"
"","","","","","psychophysics","114","484187","0.0-9.0-0.0-0.2","733","","j","","","","","","","","","","","","","key","j","16.67063716814165","720","446","f","false","img/T_ambi40.png","坏人","prac_word_first",""
"","","","","","html-keyboard-response","115","484497","0.0-9.0-0.0-1.2","null","<span style='color:red; font-size: 70px;'>错误! </span>","null","","","","","","","","","","","","","","","","","","","","","","","feedback_test"
"","","","","","psychophysics","116","486448","0.0-9.0-0.0-0.3","796","","f","","","","","","","","","","","","","key","f","16.666000000000448","720","446","f","true","img/T_ambi40.png","常人","prac_word_first",""
"","","","","","html-keyboard-response","117","486755","0.0-9.0-0.0-1.3","null","<span style='color:GreenYellow; font-size: 70px;'>正确! </span>","null","","","","","","","","","","","","","","","","","","","","","","","feedback_test"
"","","","","","psychophysics","118","488695","0.0-9.0-0.0-0.4","782","","f","","","","","","","","","","","","","key","f","16.666000000000224","720","446","f","true","img/S_ambi40.png","常人","prac_word_first",""
"","","","","","html-keyboard-response","119","489003","0.0-9.0-0.0-1.4","null","<span style='color:GreenYellow; font-size: 70px;'>正确! </span>","null","","","","","","","","","","","","","","","","","","","","","","","feedback_test"
"","","","","","psychophysics","120","491411","0.0-9.0-0.0-0.5","1255","","j","","","","","","","","","","","","","key","j","16.666000000000086","720","446","j","true","img/S_ambi40.png","坏人","prac_word_first",""
"","","","","","html-keyboard-response","121","491723","0.0-9.0-0.0-1.5","null","<span style='color:GreenYellow; font-size: 70px;'>正确! </span>","null","","","","","","","","","","","","","","","","","","","","","","","feedback_test"
"","","","","","psychophysics","122","493637","0.0-9.0-0.0-0.6","759","","j","","","","","","","","","","","","","key","j","16.665999999999993","720","446","j","true","img/S_ambi40.png","坏人","prac_word_first",""
"","","","","","html-keyboard-response","123","493947","0.0-9.0-0.0-1.6","null","<span style='color:GreenYellow; font-size: 70px;'>正确! </span>","null","","","","","","","","","","","","","","","","","","","","","","","feedback_test"
"","","","","","psychophysics","124","495905","0.0-9.0-0.0-0.7","804","","f","","","","","","","","","","","","","key","f","16.666000000000174","720","446","f","true","img/S_ambi40.png","好人","prac_word_first",""
"","","","","","html-keyboard-response","125","496219","0.0-9.0-0.0-1.7","null","<span style='color:GreenYellow; font-size: 70px;'>正确! </span>","null","","","","","","","","","","","","","","","","","","","","","","","feedback_test"
"","","","","","psychophysics","126","498122","0.0-9.0-0.0-0.8","752","","j","","","","","","","","","","","","","key","j","16.66600000000027","720","446","j","true","img/T_ambi40.png","好人","prac_word_first",""
"","","","","","html-keyboard-response","127","498435","0.0-9.0-0.0-1.8","null","<span style='color:GreenYellow; font-size: 70px;'>正确! </span>","null","","","","","","","","","","","","","","","","","","","","","","","feedback_test"
"","","","","","psychophysics","128","500136","0.0-9.0-0.0-0.9","544","","j","","","","","","","","","","","","","key","j","16.666000000000032","720","446","j","true","img/C_ambi40.png","常人","prac_word_first",""
"","","","","","html-keyboard-response","129","500443","0.0-9.0-0.0-1.9","null","<span style='color:GreenYellow; font-size: 70px;'>正确! </span>","null","","","","","","","","","","","","","","","","","","","","","","","feedback_test"
"","","","","","psychophysics","130","502266","0.0-9.0-0.0-0.10","664","","f","","","","","","","","","","","","","key","f","16.666000000000135","720","446","f","true","img/C_ambi40.png","坏人","prac_word_first",""
"","","","","","html-keyboard-response","131","502574","0.0-9.0-0.0-1.10","null","<span style='color:GreenYellow; font-size: 70px;'>正确! </span>","null","","","","","","","","","","","","","","","","","","","","","","","feedback_test"
"","","","","","psychophysics","132","504655","0.0-9.0-0.0-0.11","928","","f","","","","","","","","","","","","","key","f","16.67021774193516","720","446","j","false","img/T_ambi40.png","好人","prac_word_first",""
"","","","","","html-keyboard-response","133","504961","0.0-9.0-0.0-1.11","null","<span style='color:red; font-size: 70px;'>错误! </span>","null","","","","","","","","","","","","","","","","","","","","","","","feedback_test"
"","","","","","psychophysics","134","506845","0.0-9.0-0.0-0.12","726","","f","","","","","","","","","","","","","key","f","16.666000000000036","720","446","f","true","img/T_ambi40.png","常人","prac_word_first",""
"","","","","","html-keyboard-response","135","507153","0.0-9.0-0.0-1.12","null","<span style='color:GreenYellow; font-size: 70px;'>正确! </span>","null","","","","","","","","","","","","","","","","","","","","","","","feedback_test"
"","","","","","psychophysics","136","509042","0.0-9.0-0.0-0.13","730","","j","","","","","","","","","","","","","key","j","16.665999999999517","720","446","j","true","img/T_ambi40.png","好人","prac_word_first",""
"","","","","","html-keyboard-response","137","509355","0.0-9.0-0.0-1.13","null","<span style='color:GreenYellow; font-size: 70px;'>正确! </span>","null","","","","","","","","","","","","","","","","","","","","","","","feedback_test"
"","","","","","psychophysics","138","511303","0.0-9.0-0.0-0.14","792","","f","","","","","","","","","","","","","key","f","16.665999999999947","720","446","j","false","img/C_ambi40.png","常人","prac_word_first",""
"","","","","","html-keyboard-response","139","511611","0.0-9.0-0.0-1.14","null","<span style='color:red; font-size: 70px;'>错误! </span>","null","","","","","","","","","","","","","","","","","","","","","","","feedback_test"
"","","","","","psychophysics","140","513489","0.0-9.0-0.0-0.15","723","","f","","","","","","","","","","","","","key","f","16.666000000000036","720","446","j","false","img/S_ambi40.png","坏人","prac_word_first",""
"","","","","","html-keyboard-response","141","513795","0.0-9.0-0.0-1.15","null","<span style='color:red; font-size: 70px;'>错误! </span>","null","","","","","","","","","","","","","","","","","","","","","","","feedback_test"
"","","","","","psychophysics","142","515728","0.0-9.0-0.0-0.16","776","","f","","","","","","","","","","","","","key","f","16.666000000000224","720","446","j","false","img/C_ambi40.png","常人","prac_word_first",""
"","","","","","html-keyboard-response","143","516035","0.0-9.0-0.0-1.16","null","<span style='color:red; font-size: 70px;'>错误! </span>","null","","","","","","","","","","","","","","","","","","","","","","","feedback_test"
"","","","","","psychophysics","144","518218","0.0-9.0-0.0-0.17","1031","","f","","","","","","","","","","","","","key","f","16.666000000000373","720","446","f","true","img/S_ambi40.png","好人","prac_word_first",""
"","","","","","html-keyboard-response","145","518519","0.0-9.0-0.0-1.17","null","<span style='color:GreenYellow; font-size: 70px;'>正确! </span>","null","","","","","","","","","","","","","","","","","","","","","","","feedback_test"
"","","","","","psychophysics","146","521036","0.0-9.0-0.0-0.18","1362","","f","","","","","","","","","","","","","key","f","16.665999999999766","720","446","f","true","img/C_ambi40.png","好人","prac_word_first",""
"","","","","","html-keyboard-response","147","521347","0.0-9.0-0.0-1.18","null","<span style='color:GreenYellow; font-size: 70px;'>正确! </span>","null","","","","","","","","","","","","","","","","","","","","","","","feedback_test"
"","","","","","psychophysics","148","523379","0.0-9.0-0.0-0.19","879","","j","","","","","","","","","","","","","key","j","16.67033057851228","720","446","j","true","img/S_ambi40.png","坏人","prac_word_first",""
"","","","","","html-keyboard-response","149","523691","0.0-9.0-0.0-1.19","null","<span style='color:GreenYellow; font-size: 70px;'>正确! </span>","null","","","","","","","","","","","","","","","","","","","","","","","feedback_test"
"","","","","","psychophysics","150","525858","0.0-9.0-0.0-0.20","1011","","f","","","","","","","","","","","","","key","f","16.665999999999922","720","446","f","true","img/S_ambi40.png","常人","prac_word_first",""
"","","","","","html-keyboard-response","151","526168","0.0-9.0-0.0-1.20","null","<span style='color:GreenYellow; font-size: 70px;'>正确! </span>","null","","","","","","","","","","","","","","","","","","","","","","","feedback_test"
"","","","","","psychophysics","152","527994","0.0-9.0-0.0-0.21","675","","j","","","","","","","","","","","","","key","j","16.666000000000672","720","446","j","true","img/T_ambi40.png","好人","prac_word_first",""
"","","","","","html-keyboard-response","153","528307","0.0-9.0-0.0-1.21","null","<span style='color:GreenYellow; font-size: 70px;'>正确! </span>","null","","","","","","","","","","","","","","","","","","","","","","","feedback_test"
"","","","","","psychophysics","154","530380","0.0-9.0-0.0-0.22","913","","f","","","","","","","","","","","","","key","f","16.666000000000516","720","446","f","true","img/T_ambi40.png","坏人","prac_word_first",""
"","","","","","html-keyboard-response","155","530690","0.0-9.0-0.0-1.22","null","<span style='color:GreenYellow; font-size: 70px;'>正确! </span>","null","","","","","","","","","","","","","","","","","","","","","","","feedback_test"
"","","","","","psychophysics","156","533068","0.0-9.0-0.0-0.23","1221","","j","","","","","","","","","","","","","key","j","16.66600000000031","720","446","f","false","img/C_ambi40.png","坏人","prac_word_first",""
"","","","","","html-keyboard-response","157","533379","0.0-9.0-0.0-1.23","null","<span style='color:red; font-size: 70px;'>错误! </span>","null","","","","","","","","","","","","","","","","","","","","","","","feedback_test"
"","","","","","html-keyboard-response","158","536552","0.0-10.0","3169","<style>.context{color:white; font-size: 35px; line-height:40px}</style>                              <div><p class='context'>您正确回答了71% 的试次。</p><p class='context'>您的平均反应时为871毫秒。</p><p class='context'>恭喜您完成练习。按任意键进入<span style='color: yellow;'>图形和文字同时呈现条件</span>的练习。</p></div>"," ","","","","","","","","","","","","","","","","","","","","","","",""
"","","","","","psychophysics","159","538583","0.0-11.0-0.0-0.0","1024","","f","","","","","","","","","","","","","key","f","16.66599999999938","720","446","f","true","img/S_ambi40.png","常人","prac_simultaneous",""
"","","","","","html-keyboard-response","160","538887","0.0-11.0-0.0-1.0","null","<span style='color:GreenYellow; font-size: 70px;'>正确! </span>","null","","","","","","","","","","","","","","","","","","","","","","","feedback_test"
"","","","","","psychophysics","161","540718","0.0-11.0-0.0-0.1","823","","f","","","","","","","","","","","","","key","f","16.666000000000377","720","446","f","true","img/C_ambi40.png","坏人","prac_simultaneous",""
"","","","","","html-keyboard-response","162","541026","0.0-11.0-0.0-1.1","null","<span style='color:GreenYellow; font-size: 70px;'>正确! </span>","null","","","","","","","","","","","","","","","","","","","","","","","feedback_test"
"","","","","","psychophysics","163","542706","0.0-11.0-0.0-0.2","676","","j","","","","","","","","","","","","","key","j","16.671239999999525","720","446","j","true","img/S_ambi40.png","坏人","prac_simultaneous",""
"","","","","","html-keyboard-response","164","543018","0.0-11.0-0.0-1.2","null","<span style='color:GreenYellow; font-size: 70px;'>正确! </span>","null","","","","","","","","","","","","","","","","","","","","","","","feedback_test"
"","","","","","psychophysics","165","544946","0.0-11.0-0.0-0.3","926","","j","","","","","","","","","","","","","key","j","16.665999999999993","720","446","j","true","img/C_ambi40.png","常人","prac_simultaneous",""
"","","","","","html-keyboard-response","166","545247","0.0-11.0-0.0-1.3","null","<span style='color:GreenYellow; font-size: 70px;'>正确! </span>","null","","","","","","","","","","","","","","","","","","","","","","","feedback_test"
"","","","","","psychophysics","167","547115","0.0-11.0-0.0-0.4","863","","f","","","","","","","","","","","","","key","f","16.665999999999798","720","446","f","true","img/T_ambi40.png","常人","prac_simultaneous",""
"","","","","","html-keyboard-response","168","547425","0.0-11.0-0.0-1.4","null","<span style='color:GreenYellow; font-size: 70px;'>正确! </span>","null","","","","","","","","","","","","","","","","","","","","","","","feedback_test"
"","","","","","psychophysics","169","549113","0.0-11.0-0.0-0.5","680","","f","","","","","","","","","","","","","key","f","16.66600000000093","720","446","j","false","img/S_ambi40.png","坏人","prac_simultaneous",""
"","","","","","html-keyboard-response","170","549419","0.0-11.0-0.0-1.5","null","<span style='color:red; font-size: 70px;'>错误! </span>","null","","","","","","","","","","","","","","","","","","","","","","","feedback_test"
"","","","","","psychophysics","171","551094","0.0-11.0-0.0-0.6","671","","j","","","","","","","","","","","","","key","j","16.666000000000086","720","446","j","true","img/T_ambi40.png","好人","prac_simultaneous",""
"","","","","","html-keyboard-response","172","551399","0.0-11.0-0.0-1.6","null","<span style='color:GreenYellow; font-size: 70px;'>正确! </span>","null","","","","","","","","","","","","","","","","","","","","","","","feedback_test"
"","","","","","psychophysics","173","553645","0.0-11.0-0.0-0.7","1243","","j","","","","","","","","","","","","","key","j","16.66600000000072","720","446","f","false","img/T_ambi40.png","坏人","prac_simultaneous",""
"","","","","","html-keyboard-response","174","553953","0.0-11.0-0.0-1.7","null","<span style='color:red; font-size: 70px;'>错误! </span>","null","","","","","","","","","","","","","","","","","","","","","","","feedback_test"
"","","","","","psychophysics","175","556166","0.0-11.0-0.0-0.8","1208","","j","","","","","","","","","","","","","key","j","16.666000000000327","720","446","f","false","img/C_ambi40.png","好人","prac_simultaneous",""
"","","","","","html-keyboard-response","176","556471","0.0-11.0-0.0-1.8","null","<span style='color:red; font-size: 70px;'>错误! </span>","null","","","","","","","","","","","","","","","","","","","","","","","feedback_test"
"","","","","","psychophysics","177","558633","0.0-11.0-0.0-0.9","1150","","j","","","","","","","","","","","","","key","j","16.666000000000167","720","446","j","true","img/T_ambi40.png","好人","prac_simultaneous",""
"","","","","","html-keyboard-response","178","558939","0.0-11.0-0.0-1.9","null","<span style='color:GreenYellow; font-size: 70px;'>正确! </span>","null","","","","","","","","","","","","","","","","","","","","","","","feedback_test"
"","","","","","psychophysics","179","560958","0.0-11.0-0.0-0.10","1014","","f","","","","","","","","","","","","","key","f","16.66600000000035","720","446","f","true","img/S_ambi40.png","好人","prac_simultaneous",""
"","","","","","html-keyboard-response","180","561268","0.0-11.0-0.0-1.10","null","<span style='color:GreenYellow; font-size: 70px;'>正确! </span>","null","","","","","","","","","","","","","","","","","","","","","","","feedback_test"
"","","","","","psychophysics","181","563446","0.0-11.0-0.0-0.11","1177","","j","","","","","","","","","","","","","key","j","16.670062015504513","720","446","j","true","img/C_ambi40.png","常人","prac_simultaneous",""
"","","","","","html-keyboard-response","182","563753","0.0-11.0-0.0-1.11","null","<span style='color:GreenYellow; font-size: 70px;'>正确! </span>","null","","","","","","","","","","","","","","","","","","","","","","","feedback_test"
"","","","","","psychophysics","183","565576","0.0-11.0-0.0-0.12","816","","f","","","","","","","","","","","","","key","f","16.665999999999595","720","446","f","true","img/C_ambi40.png","好人","prac_simultaneous",""
"","","","","","html-keyboard-response","184","565878","0.0-11.0-0.0-1.12","null","<span style='color:GreenYellow; font-size: 70px;'>正确! </span>","null","","","","","","","","","","","","","","","","","","","","","","","feedback_test"
"","","","","","psychophysics","185","568005","0.0-11.0-0.0-0.13","1120","","j","","","","","","","","","","","","","key","j","16.665999999999503","720","446","j","true","img/C_ambi40.png","常人","prac_simultaneous",""
"","","","","","html-keyboard-response","186","568316","0.0-11.0-0.0-1.13","null","<span style='color:GreenYellow; font-size: 70px;'>正确! </span>","null","","","","","","","","","","","","","","","","","","","","","","","feedback_test"
"","","","","","psychophysics","187","570213","0.0-11.0-0.0-0.14","895","","f","","","","","","","","","","","","","key","f","16.665999999999517","720","446","f","true","img/T_ambi40.png","常人","prac_simultaneous",""
"","","","","","html-keyboard-response","188","570518","0.0-11.0-0.0-1.14","null","<span style='color:GreenYellow; font-size: 70px;'>正确! </span>","null","","","","","","","","","","","","","","","","","","","","","","","feedback_test"
"","","","","","psychophysics","189","572741","0.0-11.0-0.0-0.15","1214","","j","","","","","","","","","","","","","key","j","16.6659999999992","720","446","j","true","img/S_ambi40.png","坏人","prac_simultaneous",""
"","","","","","html-keyboard-response","190","573048","0.0-11.0-0.0-1.15","null","<span style='color:GreenYellow; font-size: 70px;'>正确! </span>","null","","","","","","","","","","","","","","","","","","","","","","","feedback_test"
"","","","","","psychophysics","191","575331","0.0-11.0-0.0-0.16","1279","","j","","","","","","","","","","","","","key","j","16.666000000000007","720","446","j","true","img/S_ambi40.png","坏人","prac_simultaneous",""
"","","","","","html-keyboard-response","192","575640","0.0-11.0-0.0-1.16","null","<span style='color:GreenYellow; font-size: 70px;'>正确! </span>","null","","","","","","","","","","","","","","","","","","","","","","","feedback_test"
"","","","","","psychophysics","193","577597","0.0-11.0-0.0-0.17","951","","j","","","","","","","","","","","","","key","j","16.666000000000448","720","446","j","true","img/C_ambi40.png","常人","prac_simultaneous",""
"","","","","","html-keyboard-response","194","577908","0.0-11.0-0.0-1.17","null","<span style='color:GreenYellow; font-size: 70px;'>正确! </span>","null","","","","","","","","","","","","","","","","","","","","","","","feedback_test"
"","","","","","psychophysics","195","579821","0.0-11.0-0.0-0.18","907","","f","","","","","","","","","","","","","key","f","16.665999999999993","720","446","f","true","img/S_ambi40.png","常人","prac_simultaneous",""
"","","","","","html-keyboard-response","196","580132","0.0-11.0-0.0-1.18","null","<span style='color:GreenYellow; font-size: 70px;'>正确! </span>","null","","","","","","","","","","","","","","","","","","","","","","","feedback_test"
"","","","","","psychophysics","197","581850","0.0-11.0-0.0-0.19","715","","j","","","","","","","","","","","","","key","j","16.665999999999983","720","446","f","false","img/T_ambi40.png","坏人","prac_simultaneous",""
"","","","","","html-keyboard-response","198","582161","0.0-11.0-0.0-1.19","null","<span style='color:red; font-size: 70px;'>错误! </span>","null","","","","","","","","","","","","","","","","","","","","","","","feedback_test"
"","","","","","psychophysics","199","584088","0.0-11.0-0.0-0.20","921","","j","","","","","","","","","","","","","key","j","16.670547826087063","720","446","j","true","img/T_ambi40.png","好人","prac_simultaneous",""
"","","","","","html-keyboard-response","200","584392","0.0-11.0-0.0-1.20","null","<span style='color:GreenYellow; font-size: 70px;'>正确! </span>","null","","","","","","","","","","","","","","","","","","","","","","","feedback_test"
"","","","","","psychophysics","201","586183","0.0-11.0-0.0-0.21","783","","f","","","","","","","","","","","","","key","f","16.666000000000185","720","446","f","true","img/S_ambi40.png","好人","prac_simultaneous",""
"","","","","","html-keyboard-response","202","586491","0.0-11.0-0.0-1.21","null","<span style='color:GreenYellow; font-size: 70px;'>正确! </span>","null","","","","","","","","","","","","","","","","","","","","","","","feedback_test"
"","","","","","psychophysics","203","588434","0.0-11.0-0.0-0.22","935","","f","","","","","","","","","","","","","key","f","16.665999999999446","720","446","f","true","img/C_ambi40.png","坏人","prac_simultaneous",""
"","","","","","html-keyboard-response","204","588748","0.0-11.0-0.0-1.22","null","<span style='color:GreenYellow; font-size: 70px;'>正确! </span>","null","","","","","","","","","","","","","","","","","","","","","","","feedback_test"
"","","","","","psychophysics","205","591093","0.0-11.0-0.0-0.23","1342","","f","","","","","","","","","","","","","key","f","16.666000000000764","720","446","j","false","img/T_ambi40.png","好人","prac_simultaneous",""
"","","","","","html-keyboard-response","206","591404","0.0-11.0-0.0-1.23","null","<span style='color:red; font-size: 70px;'>错误! </span>","null","","","","","","","","","","","","","","","","","","","","","","","feedback_test"
"","","","","","html-keyboard-response","207","593567","0.0-12.0","2160","<style>.context{color:white; font-size: 35px; line-height:40px}</style>                              <div><p class='context'>您正确回答了79% 的试次。</p><p class='context'>您的平均反应时为955毫秒。</p><p class='context'>恭喜您完成练习。按任意键进入正式实验。</p><p class='footer' style='font-size: 35px; line-height:40px;'>请在进入正式实验实验之前将您的<span style='color: lightgreen;'>食指</span>放在电脑键盘的相应键位上进行按键。</p>"," ","","","","","","","","","","","","","","","","","","","","","","",""
"","","","","","html-keyboard-response","208","598015","0.0-13.0-1.0-0.0","4445","
      <p>请您将手指放在按键上，准备进入呈现顺序为<span style='color: yellow;'>先文字后图形条件</span>的正式匹配任务</p>
      <p> <div style = ""color: green""><按任意键进入下一阶段的匹配任务></div></p>
      "," ","","","","","","","","","","","","","","","","","","","","","","",""
"","","","","","psychophysics","209","600058","0.0-13.0-1.0-1.0-0.0-0.0","891","","f","","","","","","","","","","","","","key","f","16.666000000000086","720","446","j","false","img/C_ambi40.png","常人","word_first",""
"","","","","","html-keyboard-response","210","600367","0.0-13.0-1.0-1.0-0.0-1.0","null","<span style='color:red; font-size: 70px;'>错误! </span>","null","","","","","","","","","","","","","","","","","","","","","","","feedback_test"
"","","","","","psychophysics","211","602310","0.0-13.0-1.0-1.0-0.0-0.1","791","","f","","","","","","","","","","","","","key","f","16.665999999999716","720","446","f","true","img/T_ambi40.png","常人","word_first",""
"","","","","","html-keyboard-response","212","602618","0.0-13.0-1.0-1.0-0.0-1.1","null","<span style='color:GreenYellow; font-size: 70px;'>正确! </span>","null","","","","","","","","","","","","","","","","","","","","","","","feedback_test"
"","","","","","psychophysics","213","604623","0.0-13.0-1.0-1.0-0.0-0.2","852","","f","","","","","","","","","","","","","key","f","16.66599999999964","720","446","f","true","img/T_ambi40.png","坏人","word_first",""
"","","","","","html-keyboard-response","214","604932","0.0-13.0-1.0-1.0-0.0-1.2","null","<span style='color:GreenYellow; font-size: 70px;'>正确! </span>","null","","","","","","","","","","","","","","","","","","","","","","","feedback_test"
"","","","","","psychophysics","215","607057","0.0-13.0-1.0-1.0-0.0-0.3","972","","j","","","","","","","","","","","","","key","j","16.665999999999748","720","446","j","true","img/T_ambi40.png","好人","word_first",""
"","","","","","html-keyboard-response","216","607364","0.0-13.0-1.0-1.0-0.0-1.3","null","<span style='color:GreenYellow; font-size: 70px;'>正确! </span>","null","","","","","","","","","","","","","","","","","","","","","","","feedback_test"
"","","","","","psychophysics","217","609297","0.0-13.0-1.0-1.0-0.0-0.4","781","","f","","","","","","","","","","","","","key","f","16.665999999999716","720","446","j","false","img/T_ambi40.png","好人","word_first",""
"","","","","","html-keyboard-response","218","609602","0.0-13.0-1.0-1.0-0.0-1.4","null","<span style='color:red; font-size: 70px;'>错误! </span>","null","","","","","","","","","","","","","","","","","","","","","","","feedback_test"
"","","","","","psychophysics","219","611526","0.0-13.0-1.0-1.0-0.0-0.5","766","","j","","","","","","","","","","","","","key","j","16.665999999999993","720","446","j","true","img/S_ambi40.png","坏人","word_first",""
"","","","","","html-keyboard-response","220","611836","0.0-13.0-1.0-1.0-0.0-1.5","null","<span style='color:GreenYellow; font-size: 70px;'>正确! </span>","null","","","","","","","","","","","","","","","","","","","","","","","feedback_test"
"","","","","","psychophysics","221","613976","0.0-13.0-1.0-1.0-0.0-0.6","981","","j","","","","","","","","","","","","","key","j","16.670118110236075","720","446","j","true","img/C_ambi40.png","常人","word_first",""
"","","","","","html-keyboard-response","222","614284","0.0-13.0-1.0-1.0-0.0-1.6","null","<span style='color:GreenYellow; font-size: 70px;'>正确! </span>","null","","","","","","","","","","","","","","","","","","","","","","","feedback_test"
"","","","","","psychophysics","223","616327","0.0-13.0-1.0-1.0-0.0-0.7","892","","f","","","","","","","","","","","","","key","f","16.666000000000086","720","446","f","true","img/C_ambi40.png","好人","word_first",""
"","","","","","html-keyboard-response","224","616635","0.0-13.0-1.0-1.0-0.0-1.7","null","<span style='color:GreenYellow; font-size: 70px;'>正确! </span>","null","","","","","","","","","","","","","","","","","","","","","","","feedback_test"
"","","","","","psychophysics","225","618555","0.0-13.0-1.0-1.0-0.0-0.8","768","","j","","","","","","","","","","","","","key","j","16.665999999999993","720","446","j","true","img/S_ambi40.png","坏人","word_first",""
"","","","","","html-keyboard-response","226","618864","0.0-13.0-1.0-1.0-0.0-1.8","null","<span style='color:GreenYellow; font-size: 70px;'>正确! </span>","null","","","","","","","","","","","","","","","","","","","","","","","feedback_test"
"","","","","","psychophysics","227","621094","0.0-13.0-1.0-1.0-0.0-0.9","1076","","f","","","","","","","","","","","","","key","f","16.665999999999848","720","446","f","true","img/S_ambi40.png","常人","word_first",""
"","","","","","html-keyboard-response","228","621402","0.0-13.0-1.0-1.0-0.0-1.9","null","<span style='color:GreenYellow; font-size: 70px;'>正确! </span>","null","","","","","","","","","","","","","","","","","","","","","","","feedback_test"
"","","","","","psychophysics","229","623244","0.0-13.0-1.0-1.0-0.0-0.10","680","","f","","","","","","","","","","","","","key","f","16.666000000000377","720","446","f","true","img/S_ambi40.png","好人","word_first",""
"","","","","","html-keyboard-response","230","623554","0.0-13.0-1.0-1.0-0.0-1.10","null","<span style='color:GreenYellow; font-size: 70px;'>正确! </span>","null","","","","","","","","","","","","","","","","","","","","","","","feedback_test"
"","","","","","psychophysics","231","625374","0.0-13.0-1.0-1.0-0.0-0.11","662","","f","","","","","","","","","","","","","key","f","16.665999999999595","720","446","f","true","img/C_ambi40.png","坏人","word_first",""
"","","","","","html-keyboard-response","232","625681","0.0-13.0-1.0-1.0-0.0-1.11","null","<span style='color:GreenYellow; font-size: 70px;'>正确! </span>","null","","","","","","","","","","","","","","","","","","","","","","","feedback_test"
"","","","","","psychophysics","233","627308","0.0-13.0-1.0-1.0-0.0-0.12","474","","j","","","","","","","","","","","","","key","j","16.66599999999954","720","446","f","false","img/T_ambi40.png","常人","word_first",""
"","","","","","html-keyboard-response","234","627617","0.0-13.0-1.0-1.0-0.0-1.12","null","<span style='color:red; font-size: 70px;'>错误! </span>","null","","","","","","","","","","","","","","","","","","","","","","","feedback_test"
"","","","","","psychophysics","235","629665","0.0-13.0-1.0-1.0-0.0-0.13","895","","j","","","","","","","","","","","","","key","j","16.666000000000086","720","446","j","true","img/C_ambi40.png","常人","word_first",""
"","","","","","html-keyboard-response","236","629972","0.0-13.0-1.0-1.0-0.0-1.13","null","<span style='color:GreenYellow; font-size: 70px;'>正确! </span>","null","","","","","","","","","","","","","","","","","","","","","","","feedback_test"
"","","","","","psychophysics","237","631802","0.0-13.0-1.0-1.0-0.0-0.14","674","","f","","","","","","","","","","","","","key","f","16.665999999999308","720","446","f","true","img/S_ambi40.png","好人","word_first",""
"","","","","","html-keyboard-response","238","632116","0.0-13.0-1.0-1.0-0.0-1.14","null","<span style='color:GreenYellow; font-size: 70px;'>正确! </span>","null","","","","","","","","","","","","","","","","","","","","","","","feedback_test"
"","","","","","psychophysics","239","634092","0.0-13.0-1.0-1.0-0.0-0.15","825","","f","","","","","","","","","","","","","key","f","16.670478632478602","720","446","j","false","img/S_ambi40.png","坏人","word_first",""
"","","","","","html-keyboard-response","240","634402","0.0-13.0-1.0-1.0-0.0-1.15","null","<span style='color:red; font-size: 70px;'>错误! </span>","null","","","","","","","","","","","","","","","","","","","","","","","feedback_test"
"","","","","","psychophysics","241","636325","0.0-13.0-1.0-1.0-0.0-0.16","764","","j","","","","","","","","","","","","","key","j","16.665999999999993","720","446","j","true","img/C_ambi40.png","常人","word_first",""
"","","","","","html-keyboard-response","242","636636","0.0-13.0-1.0-1.0-0.0-1.16","null","<span style='color:GreenYellow; font-size: 70px;'>正确! </span>","null","","","","","","","","","","","","","","","","","","","","","","","feedback_test"
"","","","","","psychophysics","243","638694","0.0-13.0-1.0-1.0-0.0-0.17","907","","j","","","","","","","","","","","","","key","j","16.665999999999823","720","446","j","true","img/T_ambi40.png","好人","word_first",""
"","","","","","html-keyboard-response","244","639004","0.0-13.0-1.0-1.0-0.0-1.17","null","<span style='color:GreenYellow; font-size: 70px;'>正确! </span>","null","","","","","","","","","","","","","","","","","","","","","","","feedback_test"
"","","","","","psychophysics","245","640957","0.0-13.0-1.0-1.0-0.0-0.18","795","","f","","","","","","","","","","","","","key","f","16.666000000000448","720","446","f","true","img/S_ambi40.png","常人","word_first",""
"","","","","","html-keyboard-response","246","641264","0.0-13.0-1.0-1.0-0.0-1.18","null","<span style='color:GreenYellow; font-size: 70px;'>正确! </span>","null","","","","","","","","","","","","","","","","","","","","","","","feedback_test"
"","","","","","psychophysics","247","643073","0.0-13.0-1.0-1.0-0.0-0.19","656","","f","","","","","","","","","","","","","key","f","16.665999999999595","720","446","f","true","img/C_ambi40.png","坏人","word_first",""
"","","","","","html-keyboard-response","248","643375","0.0-13.0-1.0-1.0-0.0-1.19","null","<span style='color:GreenYellow; font-size: 70px;'>正确! </span>","null","","","","","","","","","","","","","","","","","","","","","","","feedback_test"
"","","","","","psychophysics","249","645366","0.0-13.0-1.0-1.0-0.0-0.20","839","","j","","","","","","","","","","","","","key","j","16.66599999999964","720","446","j","true","img/T_ambi40.png","好人","word_first",""
"","","","","","html-keyboard-response","250","645676","0.0-13.0-1.0-1.0-0.0-1.20","null","<span style='color:GreenYellow; font-size: 70px;'>正确! </span>","null","","","","","","","","","","","","","","","","","","","","","","","feedback_test"
"","","","","","psychophysics","251","647741","0.0-13.0-1.0-1.0-0.0-0.21","908","","f","","","","","","","","","","","","","key","f","16.666000000000516","720","446","f","true","img/T_ambi40.png","坏人","word_first",""
"","","","","","html-keyboard-response","252","648049","0.0-13.0-1.0-1.0-0.0-1.21","null","<span style='color:GreenYellow; font-size: 70px;'>正确! </span>","null","","","","","","","","","","","","","","","","","","","","","","","feedback_test"
"","","","","","psychophysics","253","650126","0.0-13.0-1.0-1.0-0.0-0.22","925","","j","","","","","","","","","","","","","key","j","16.665999999999567","720","446","j","true","img/S_ambi40.png","坏人","word_first",""
"","","","","","html-keyboard-response","254","650436","0.0-13.0-1.0-1.0-0.0-1.22","null","<span style='color:GreenYellow; font-size: 70px;'>正确! </span>","null","","","","","","","","","","","","","","","","","","","","","","","feedback_test"
"","","","","","psychophysics","255","652352","0.0-13.0-1.0-1.0-0.0-0.23","761","","j","","","","","","","","","","","","","key","j","16.665999999999993","720","446","f","false","img/C_ambi40.png","好人","word_first",""
"","","","","","html-keyboard-response","256","652659","0.0-13.0-1.0-1.0-0.0-1.23","null","<span style='color:red; font-size: 70px;'>错误! </span>","null","","","","","","","","","","","","","","","","","","","","","","","feedback_test"
"","","","","","psychophysics","257","654478","0.0-13.0-1.0-1.0-0.0-0.24","661","","f","","","","","","","","","","","","","key","f","16.6708518518523","720","446","f","true","img/T_ambi40.png","常人","word_first",""
"","","","","","html-keyboard-response","258","654786","0.0-13.0-1.0-1.0-0.0-1.24","null","<span style='color:GreenYellow; font-size: 70px;'>正确! </span>","null","","","","","","","","","","","","","","","","","","","","","","","feedback_test"
"","","","","","psychophysics","259","657019","0.0-13.0-1.0-1.0-0.0-0.25","1073","","j","","","","","","","","","","","","","key","j","16.665999999999848","720","446","j","true","img/T_ambi40.png","好人","word_first",""
"","","","","","html-keyboard-response","260","657330","0.0-13.0-1.0-1.0-0.0-1.25","null","<span style='color:GreenYellow; font-size: 70px;'>正确! </span>","null","","","","","","","","","","","","","","","","","","","","","","","feedback_test"
"","","","","","psychophysics","261","659228","0.0-13.0-1.0-1.0-0.0-0.26","728","","j","","","","","","","","","","","","","key","j","16.66600000000027","720","446","j","true","img/C_ambi40.png","常人","word_first",""
"","","","","","html-keyboard-response","262","659536","0.0-13.0-1.0-1.0-0.0-1.26","null","<span style='color:GreenYellow; font-size: 70px;'>正确! </span>","null","","","","","","","","","","","","","","","","","","","","","","","feedback_test"
"","","","","","psychophysics","263","661780","0.0-13.0-1.0-1.0-0.0-0.27","1093","","f","","","","","","","","","","","","","key","f","16.665999999999848","720","446","f","true","img/T_ambi40.png","坏人","word_first",""
"","","","","","html-keyboard-response","264","662092","0.0-13.0-1.0-1.0-0.0-1.27","null","<span style='color:GreenYellow; font-size: 70px;'>正确! </span>","null","","","","","","","","","","","","","","","","","","","","","","","feedback_test"
"","","","","","psychophysics","265","664455","0.0-13.0-1.0-1.0-0.0-0.28","1206","","f","","","","","","","","","","","","","key","f","16.666000000000533","720","446","f","true","img/C_ambi40.png","坏人","word_first",""
"","","","","","html-keyboard-response","266","664760","0.0-13.0-1.0-1.0-0.0-1.28","null","<span style='color:GreenYellow; font-size: 70px;'>正确! </span>","null","","","","","","","","","","","","","","","","","","","","","","","feedback_test"
"","","","","","psychophysics","267","666653","0.0-13.0-1.0-1.0-0.0-0.29","736","","f","","","","","","","","","","","","","key","f","16.66600000000027","720","446","j","false","img/T_ambi40.png","好人","word_first",""
"","","","","","html-keyboard-response","268","666960","0.0-13.0-1.0-1.0-0.0-1.29","null","<span style='color:red; font-size: 70px;'>错误! </span>","null","","","","","","","","","","","","","","","","","","","","","","","feedback_test"
"","","","","","psychophysics","269","669034","0.0-13.0-1.0-1.0-0.0-0.30","918","","f","","","","","","","","","","","","","key","f","16.66599999999932","720","446","f","true","img/C_ambi40.png","好人","word_first",""
"","","","","","html-keyboard-response","270","669340","0.0-13.0-1.0-1.0-0.0-1.30","null","<span style='color:GreenYellow; font-size: 70px;'>正确! </span>","null","","","","","","","","","","","","","","","","","","","","","","","feedback_test"
"","","","","","psychophysics","271","671330","0.0-13.0-1.0-1.0-0.0-0.31","834","","j","","","","","","","","","","","","","key","j","16.665999999999904","720","446","f","false","img/S_ambi40.png","好人","word_first",""
"","","","","","html-keyboard-response","272","671636","0.0-13.0-1.0-1.0-0.0-1.31","null","<span style='color:red; font-size: 70px;'>错误! </span>","null","","","","","","","","","","","","","","","","","","","","","","","feedback_test"
"","","","","","psychophysics","273","673544","0.0-13.0-1.0-1.0-0.0-0.32","753","","j","","","","","","","","","","","","","key","j","16.66600000000027","720","446","j","true","img/S_ambi40.png","坏人","word_first",""
"","","","","","html-keyboard-response","274","673852","0.0-13.0-1.0-1.0-0.0-1.32","null","<span style='color:GreenYellow; font-size: 70px;'>正确! </span>","null","","","","","","","","","","","","","","","","","","","","","","","feedback_test"
"","","","","","psychophysics","275","676005","0.0-13.0-1.0-1.0-0.0-0.33","997","","j","","","","","","","","","","","","","key","j","16.670132812500015","720","446","j","true","img/C_ambi40.png","常人","word_first",""
"","","","","","html-keyboard-response","276","676313","0.0-13.0-1.0-1.0-0.0-1.33","null","<span style='color:GreenYellow; font-size: 70px;'>正确! </span>","null","","","","","","","","","","","","","","","","","","","","","","","feedback_test"
"","","","","","psychophysics","277","678387","0.0-13.0-1.0-1.0-0.0-0.34","921","","f","","","","","","","","","","","","","key","f","16.666000000000256","720","446","f","true","img/S_ambi40.png","常人","word_first",""
"","","","","","html-keyboard-response","278","678700","0.0-13.0-1.0-1.0-0.0-1.34","null","<span style='color:GreenYellow; font-size: 70px;'>正确! </span>","null","","","","","","","","","","","","","","","","","","","","","","","feedback_test"
"","","","","","psychophysics","279","680655","0.0-13.0-1.0-1.0-0.0-0.35","803","","f","","","","","","","","","","","","","key","f","16.665999999999446","720","446","j","false","img/S_ambi40.png","坏人","word_first",""
"","","","","","html-keyboard-response","280","680964","0.0-13.0-1.0-1.0-0.0-1.35","null","<span style='color:red; font-size: 70px;'>错误! </span>","null","","","","","","","","","","","","","","","","","","","","","","","feedback_test"
"","","","","","psychophysics","281","682983","0.0-13.0-1.0-1.0-0.0-0.36","866","","j","","","","","","","","","","","","","key","j","16.666000000000086","720","446","j","true","img/C_ambi40.png","常人","word_first",""
"","","","","","html-keyboard-response","282","683290","0.0-13.0-1.0-1.0-0.0-1.36","null","<span style='color:GreenYellow; font-size: 70px;'>正确! </span>","null","","","","","","","","","","","","","","","","","","","","","","","feedback_test"
"","","","","","psychophysics","283","685175","0.0-13.0-1.0-1.0-0.0-0.37","725","","j","","","","","","","","","","","","","key","j","16.666000000000558","720","446","f","false","img/S_ambi40.png","常人","word_first",""
"","","","","","html-keyboard-response","284","685480","0.0-13.0-1.0-1.0-0.0-1.37","null","<span style='color:red; font-size: 70px;'>错误! </span>","null","","","","","","","","","","","","","","","","","","","","","","","feedback_test"
"","","","","","psychophysics","285","687451","0.0-13.0-1.0-1.0-0.0-0.38","818","","j","","","","","","","","","","","","","key","j","16.665999999999904","720","446","f","false","img/T_ambi40.png","坏人","word_first",""
"","","","","","html-keyboard-response","286","687759","0.0-13.0-1.0-1.0-0.0-1.38","null","<span style='color:red; font-size: 70px;'>错误! </span>","null","","","","","","","","","","","","","","","","","","","","","","","feedback_test"
"","","","","","psychophysics","287","689684","0.0-13.0-1.0-1.0-0.0-0.39","771","","j","","","","","","","","","","","","","key","j","16.66600000000073","720","446","j","true","img/S_ambi40.png","坏人","word_first",""
"","","","","","html-keyboard-response","288","689996","0.0-13.0-1.0-1.0-0.0-1.39","null","<span style='color:GreenYellow; font-size: 70px;'>正确! </span>","null","","","","","","","","","","","","","","","","","","","","","","","feedback_test"
"","","","","","psychophysics","289","692005","0.0-13.0-1.0-1.0-0.0-0.40","856","","j","","","","","","","","","","","","","key","j","16.66599999999938","720","446","j","true","img/T_ambi40.png","好人","word_first",""
"","","","","","html-keyboard-response","290","692316","0.0-13.0-1.0-1.0-0.0-1.40","null","<span style='color:GreenYellow; font-size: 70px;'>正确! </span>","null","","","","","","","","","","","","","","","","","","","","","","","feedback_test"
"","","","","","psychophysics","291","694193","0.0-13.0-1.0-1.0-0.0-0.41","725","","f","","","","","","","","","","","","","key","f","16.670711711711913","720","446","f","true","img/S_ambi40.png","好人","word_first",""
"","","","","","html-keyboard-response","292","694500","0.0-13.0-1.0-1.0-0.0-1.41","null","<span style='color:GreenYellow; font-size: 70px;'>正确! </span>","null","","","","","","","","","","","","","","","","","","","","","","","feedback_test"
"","","","","","psychophysics","293","696575","0.0-13.0-1.0-1.0-0.0-0.42","924","","f","","","","","","","","","","","","","key","f","16.666000000000516","720","446","f","true","img/C_ambi40.png","坏人","word_first",""
"","","","","","html-keyboard-response","294","696881","0.0-13.0-1.0-1.0-0.0-1.42","null","<span style='color:GreenYellow; font-size: 70px;'>正确! </span>","null","","","","","","","","","","","","","","","","","","","","","","","feedback_test"
"","","","","","psychophysics","295","698762","0.0-13.0-1.0-1.0-0.0-0.43","729","","j","","","","","","","","","","","","","key","j","16.665999999999798","720","446","j","true","img/S_ambi40.png","坏人","word_first",""
"","","","","","html-keyboard-response","296","699064","0.0-13.0-1.0-1.0-0.0-1.43","null","<span style='color:GreenYellow; font-size: 70px;'>正确! </span>","null","","","","","","","","","","","","","","","","","","","","","","","feedback_test"
"","","","","","psychophysics","297","701090","0.0-13.0-1.0-1.0-0.0-0.44","874","","j","","","","","","","","","","","","","key","j","16.666000000000086","720","446","j","true","img/T_ambi40.png","好人","word_first",""
"","","","","","html-keyboard-response","298","701395","0.0-13.0-1.0-1.0-0.0-1.44","null","<span style='color:GreenYellow; font-size: 70px;'>正确! </span>","null","","","","","","","","","","","","","","","","","","","","","","","feedback_test"
"","","","","","psychophysics","299","703620","0.0-13.0-1.0-1.0-0.0-0.45","1071","","f","","","","","","","","","","","","","key","f","16.66600000000072","720","446","f","true","img/C_ambi40.png","好人","word_first",""
"","","","","","html-keyboard-response","300","703932","0.0-13.0-1.0-1.0-0.0-1.45","null","<span style='color:GreenYellow; font-size: 70px;'>正确! </span>","null","","","","","","","","","","","","","","","","","","","","","","","feedback_test"
"","","","","","psychophysics","301","705837","0.0-13.0-1.0-1.0-0.0-0.46","753","","f","","","","","","","","","","","","","key","f","16.668336283185816","720","446","j","false","img/C_ambi40.png","常人","word_first",""
"","","","","","html-keyboard-response","302","706147","0.0-13.0-1.0-1.0-0.0-1.46","null","<span style='color:red; font-size: 70px;'>错误! </span>","null","","","","","","","","","","","","","","","","","","","","","","","feedback_test"
"","","","","","psychophysics","303","708374","0.0-13.0-1.0-1.0-0.0-0.47","1074","","j","","","","","","","","","","","","","key","j","16.665999999999848","720","446","f","false","img/T_ambi40.png","常人","word_first",""
"","","","","","html-keyboard-response","304","708684","0.0-13.0-1.0-1.0-0.0-1.47","null","<span style='color:red; font-size: 70px;'>错误! </span>","null","","","","","","","","","","","","","","","","","","","","","","","feedback_test"
"","","","","","psychophysics","305","710710","0.0-13.0-1.0-1.0-0.0-0.48","866","","j","","","","","","","","","","","","","key","j","16.66599999999938","720","446","j","true","img/T_ambi40.png","好人","word_first",""
"","","","","","html-keyboard-response","306","711017","0.0-13.0-1.0-1.0-0.0-1.48","null","<span style='color:GreenYellow; font-size: 70px;'>正确! </span>","null","","","","","","","","","","","","","","","","","","","","","","","feedback_test"
"","","","","","psychophysics","307","713292","0.0-13.0-1.0-1.0-0.0-0.49","1116","","j","","","","","","","","","","","","","key","j","16.666000000000242","720","446","j","true","img/C_ambi40.png","常人","word_first",""
"","","","","","html-keyboard-response","308","713604","0.0-13.0-1.0-1.0-0.0-1.49","null","<span style='color:GreenYellow; font-size: 70px;'>正确! </span>","null","","","","","","","","","","","","","","","","","","","","","","","feedback_test"
"","","","","","psychophysics","309","715384","0.0-13.0-1.0-1.0-0.0-0.50","623","","f","","","","","","","","","","","","","key","f","16.666000000000185","720","446","f","true","img/S_ambi40.png","常人","word_first",""
"","","","","","html-keyboard-response","310","715692","0.0-13.0-1.0-1.0-0.0-1.50","null","<span style='color:GreenYellow; font-size: 70px;'>正确! </span>","null","","","","","","","","","","","","","","","","","","","","","","","feedback_test"
"","","","","","psychophysics","311","717784","0.0-13.0-1.0-1.0-0.0-0.51","936","","f","","","","","","","","","","","","","key","f","16.666","720","446","f","true","img/C_ambi40.png","坏人","word_first",""
"","","","","","html-keyboard-response","312","718091","0.0-13.0-1.0-1.0-0.0-1.51","null","<span style='color:GreenYellow; font-size: 70px;'>正确! </span>","null","","","","","","","","","","","","","","","","","","","","","","","feedback_test"
"","","","","","psychophysics","313","720390","0.0-13.0-1.0-1.0-0.0-0.52","1142","","f","","","","","","","","","","","","","key","f","16.666000000000626","720","446","f","true","img/T_ambi40.png","常人","word_first",""
"","","","","","html-keyboard-response","314","720700","0.0-13.0-1.0-1.0-0.0-1.52","null","<span style='color:GreenYellow; font-size: 70px;'>正确! </span>","null","","","","","","","","","","","","","","","","","","","","","","","feedback_test"
"","","","","","psychophysics","315","722627","0.0-13.0-1.0-1.0-0.0-0.53","774","","j","","","","","","","","","","","","","key","j","16.665999999999993","720","446","j","true","img/T_ambi40.png","好人","word_first",""
"","","","","","html-keyboard-response","316","722928","0.0-13.0-1.0-1.0-0.0-1.53","null","<span style='color:GreenYellow; font-size: 70px;'>正确! </span>","null","","","","","","","","","","","","","","","","","","","","","","","feedback_test"
"","","","","","psychophysics","317","725177","0.0-13.0-1.0-1.0-0.0-0.54","1096","","j","","","","","","","","","","","","","key","j","16.66991044776149","720","446","f","false","img/S_ambi40.png","好人","word_first",""
"","","","","","html-keyboard-response","318","725480","0.0-13.0-1.0-1.0-0.0-1.54","null","<span style='color:red; font-size: 70px;'>错误! </span>","null","","","","","","","","","","","","","","","","","","","","","","","feedback_test"
"","","","","","psychophysics","319","727408","0.0-13.0-1.0-1.0-0.0-0.55","774","","j","","","","","","","","","","","","","key","j","16.665999999999716","720","446","j","true","img/S_ambi40.png","坏人","word_first",""
"","","","","","html-keyboard-response","320","727716","0.0-13.0-1.0-1.0-0.0-1.55","null","<span style='color:GreenYellow; font-size: 70px;'>正确! </span>","null","","","","","","","","","","","","","","","","","","","","","","","feedback_test"
"","","","","","psychophysics","321","729758","0.0-13.0-1.0-1.0-0.0-0.56","890","","j","","","","","","","","","","","","","key","j","16.666000000000086","720","446","j","true","img/C_ambi40.png","常人","word_first",""
"","","","","","html-keyboard-response","322","730068","0.0-13.0-1.0-1.0-0.0-1.56","null","<span style='color:GreenYellow; font-size: 70px;'>正确! </span>","null","","","","","","","","","","","","","","","","","","","","","","","feedback_test"
"","","","","","psychophysics","323","732274","0.0-13.0-1.0-1.0-0.0-0.57","1050","","f","","","","","","","","","","","","","key","f","16.666000000000327","720","446","f","true","img/C_ambi40.png","好人","word_first",""
"","","","","","html-keyboard-response","324","732576","0.0-13.0-1.0-1.0-0.0-1.57","null","<span style='color:GreenYellow; font-size: 70px;'>正确! </span>","null","","","","","","","","","","","","","","","","","","","","","","","feedback_test"
"","","","","","psychophysics","325","734442","0.0-13.0-1.0-1.0-0.0-0.58","710","","j","","","","","","","","","","","","","key","j","16.665999999999798","720","446","f","false","img/T_ambi40.png","坏人","word_first",""
"","","","","","html-keyboard-response","326","734745","0.0-13.0-1.0-1.0-0.0-1.58","null","<span style='color:red; font-size: 70px;'>错误! </span>","null","","","","","","","","","","","","","","","","","","","","","","","feedback_test"
"","","","","","psychophysics","327","736655","0.0-13.0-1.0-1.0-0.0-0.59","755","","j","","","","","","","","","","","","","key","j","16.665999999999993","720","446","j","true","img/S_ambi40.png","坏人","word_first",""
"","","","","","html-keyboard-response","328","736960","0.0-13.0-1.0-1.0-0.0-1.59","null","<span style='color:GreenYellow; font-size: 70px;'>正确! </span>","null","","","","","","","","","","","","","","","","","","","","","","","feedback_test"
"","","","","","html-keyboard-response","329","738337","0.0-13.0-1.0-1.0-1.0","1373","<style>.context{color:white; font-size: 35px; line-height:40px}</style>                              <div><p class='context'>您正确回答了77% 的试次。</p><p class='context'>您的平均反应时为867毫秒。</p><p class='context'>请按任意键进入休息</p></div>"," ","","","","","","","","","","","","","","","","","","","","","","",""
"","","","","","html-button-response","330","740272","0.0-13.0-1.0-1.0-2.0","1932","
                      <p>您当前还剩余3组实验</p>
                      <p>现在是休息时间，当您结束休息后，您可以点击 结束休息 按钮 继续</p>
                      <p>建议休息时间还剩余<span id=""iii"">60</span>秒</p>","0","","","","","","","","","","","","","","","","","","","","","","",""
"","","","","","psychophysics","331","742107","0.0-13.0-1.0-1.0-0.1-0.60","674","","j","","","","","","","","","","","","","key","j","16.666000000000377","720","446","j","true","img/C_ambi40.png","常人","word_first",""
"","","","","","html-keyboard-response","332","742412","0.0-13.0-1.0-1.0-0.1-1.60","null","<span style='color:GreenYellow; font-size: 70px;'>正确! </span>","null","","","","","","","","","","","","","","","","","","","","","","","feedback_test"
"","","","","","psychophysics","333","744379","0.0-13.0-1.0-1.0-0.1-0.61","813","","j","","","","","","","","","","","","","key","j","16.670478632478602","720","446","j","true","img/T_ambi40.png","好人","word_first",""
"","","","","","html-keyboard-response","334","744692","0.0-13.0-1.0-1.0-0.1-1.61","null","<span style='color:GreenYellow; font-size: 70px;'>正确! </span>","null","","","","","","","","","","","","","","","","","","","","","","","feedback_test"
"","","","","","psychophysics","335","746801","0.0-13.0-1.0-1.0-0.1-0.62","953","","f","","","","","","","","","","","","","key","f","16.665999999999748","720","446","f","true","img/S_ambi40.png","常人","word_first",""
"","","","","","html-keyboard-response","336","747105","0.0-13.0-1.0-1.0-0.1-1.62","null","<span style='color:GreenYellow; font-size: 70px;'>正确! </span>","null","","","","","","","","","","","","","","","","","","","","","","","feedback_test"
"","","","","","psychophysics","337","749424","0.0-13.0-1.0-1.0-0.1-0.63","1165","","f","","","","","","","","","","","","","key","f","16.66600000000039","720","446","f","true","img/S_ambi40.png","好人","word_first",""
"","","","","","html-keyboard-response","338","749729","0.0-13.0-1.0-1.0-0.1-1.63","null","<span style='color:GreenYellow; font-size: 70px;'>正确! </span>","null","","","","","","","","","","","","","","","","","","","","","","","feedback_test"
"","","","","","psychophysics","339","751590","0.0-13.0-1.0-1.0-0.1-0.64","706","","j","","","","","","","","","","","","","key","j","16.665999999999798","720","446","f","false","img/C_ambi40.png","好人","word_first",""
"","","","","","html-keyboard-response","340","751901","0.0-13.0-1.0-1.0-0.1-1.64","null","<span style='color:red; font-size: 70px;'>错误! </span>","null","","","","","","","","","","","","","","","","","","","","","","","feedback_test"
"","","","","","psychophysics","341","753873","0.0-13.0-1.0-1.0-0.1-0.65","821","","f","","","","","","","","","","","","","key","f","16.66599999999918","720","446","f","true","img/T_ambi40.png","坏人","word_first",""
"","","","","","html-keyboard-response","342","754181","0.0-13.0-1.0-1.0-0.1-1.65","null","<span style='color:GreenYellow; font-size: 70px;'>正确! </span>","null","","","","","","","","","","","","","","","","","","","","","","","feedback_test"
"","","","","","psychophysics","343","756241","0.0-13.0-1.0-1.0-0.1-0.66","907","","f","","","","","","","","","","","","","key","f","16.668180327868228","720","446","f","true","img/T_ambi40.png","常人","word_first",""
"","","","","","html-keyboard-response","344","756548","0.0-13.0-1.0-1.0-0.1-1.66","null","<span style='color:GreenYellow; font-size: 70px;'>正确! </span>","null","","","","","","","","","","","","","","","","","","","","","","","feedback_test"
"","","","","","psychophysics","345","758764","0.0-13.0-1.0-1.0-0.1-0.67","1064","","j","","","","","","","","","","","","","key","j","16.666000000000327","720","446","f","false","img/C_ambi40.png","坏人","word_first",""
"","","","","","html-keyboard-response","346","759077","0.0-13.0-1.0-1.0-0.1-1.67","null","<span style='color:red; font-size: 70px;'>错误! </span>","null","","","","","","","","","","","","","","","","","","","","","","","feedback_test"
"","","","","","psychophysics","347","760975","0.0-13.0-1.0-1.0-0.1-0.68","743","","f","","","","","","","","","","","","","key","f","16.66600000000027","720","446","j","false","img/T_ambi40.png","好人","word_first",""
"","","","","","html-keyboard-response","348","761285","0.0-13.0-1.0-1.0-0.1-1.68","null","<span style='color:red; font-size: 70px;'>错误! </span>","null","","","","","","","","","","","","","","","","","","","","","","","feedback_test"
"","","","","","psychophysics","349","763225","0.0-13.0-1.0-1.0-0.1-0.69","788","","j","","","","","","","","","","","","","key","j","16.665999999999716","720","446","j","true","img/S_ambi40.png","坏人","word_first",""
"","","","","","html-keyboard-response","350","763532","0.0-13.0-1.0-1.0-0.1-1.69","null","<span style='color:GreenYellow; font-size: 70px;'>正确! </span>","null","","","","","","","","","","","","","","","","","","","","","","","feedback_test"
"","","","","","psychophysics","351","765439","0.0-13.0-1.0-1.0-0.1-0.70","756","","j","","","","","","","","","","","","","key","j","16.66600000000027","720","446","j","true","img/S_ambi40.png","坏人","word_first",""
"","","","","","html-keyboard-response","352","765749","0.0-13.0-1.0-1.0-0.1-1.70","null","<span style='color:GreenYellow; font-size: 70px;'>正确! </span>","null","","","","","","","","","","","","","","","","","","","","","","","feedback_test"
"","","","","","psychophysics","353","767663","0.0-13.0-1.0-1.0-0.1-0.71","763","","j","","","","","","","","","","","","","key","j","16.66600000000027","720","446","j","true","img/C_ambi40.png","常人","word_first",""
"","","","","","html-keyboard-response","354","767968","0.0-13.0-1.0-1.0-0.1-1.71","null","<span style='color:GreenYellow; font-size: 70px;'>正确! </span>","null","","","","","","","","","","","","","","","","","","","","","","","feedback_test"
"","","","","","psychophysics","355","769942","0.0-13.0-1.0-1.0-0.1-0.72","809","","f","","","","","","","","","","","","","key","f","16.666000000000174","720","446","f","true","img/C_ambi40.png","坏人","word_first",""
"","","","","","html-keyboard-response","356","770253","0.0-13.0-1.0-1.0-0.1-1.72","null","<span style='color:GreenYellow; font-size: 70px;'>正确! </span>","null","","","","","","","","","","","","","","","","","","","","","","","feedback_test"
"","","","","","psychophysics","357","772356","0.0-13.0-1.0-1.0-0.1-0.73","946","","j","","","","","","","","","","","","","key","j","16.666","720","446","j","true","img/C_ambi40.png","常人","word_first",""
"","","","","","html-keyboard-response","358","772669","0.0-13.0-1.0-1.0-0.1-1.73","null","<span style='color:GreenYellow; font-size: 70px;'>正确! </span>","null","","","","","","","","","","","","","","","","","","","","","","","feedback_test"
"","","","","","psychophysics","359","774776","0.0-13.0-1.0-1.0-0.1-0.74","955","","j","","","","","","","","","","","","","key","j","16.670191999999805","720","446","j","true","img/S_ambi40.png","坏人","word_first",""
"","","","","","html-keyboard-response","360","775085","0.0-13.0-1.0-1.0-0.1-1.74","null","<span style='color:GreenYellow; font-size: 70px;'>正确! </span>","null","","","","","","","","","","","","","","","","","","","","","","","feedback_test"
"","","","","","psychophysics","361","776957","0.0-13.0-1.0-1.0-0.1-0.75","721","","f","","","","","","","","","","","","","key","f","16.665999999999798","720","446","f","true","img/S_ambi40.png","好人","word_first",""
"","","","","","html-keyboard-response","362","777269","0.0-13.0-1.0-1.0-0.1-1.75","null","<span style='color:GreenYellow; font-size: 70px;'>正确! </span>","null","","","","","","","","","","","","","","","","","","","","","","","feedback_test"
"","","","","","psychophysics","363","779241","0.0-13.0-1.0-1.0-0.1-0.76","813","","j","","","","","","","","","","","","","key","j","16.666000000000174","720","446","j","true","img/C_ambi40.png","常人","word_first",""
"","","","","","html-keyboard-response","364","779546","0.0-13.0-1.0-1.0-0.1-1.76","null","<span style='color:GreenYellow; font-size: 70px;'>正确! </span>","null","","","","","","","","","","","","","","","","","","","","","","","feedback_test"
"","","","","","psychophysics","365","781285","0.0-13.0-1.0-1.0-0.1-0.77","585","","j","","","","","","","","","","","","","key","j","16.666000000000796","720","446","f","false","img/T_ambi40.png","坏人","word_first",""
"","","","","","html-keyboard-response","366","781593","0.0-13.0-1.0-1.0-0.1-1.77","null","<span style='color:red; font-size: 70px;'>错误! </span>","null","","","","","","","","","","","","","","","","","","","","","","","feedback_test"
"","","","","","psychophysics","367","783492","0.0-13.0-1.0-1.0-0.1-0.78","742","","f","","","","","","","","","","","","","key","f","16.66599999999924","720","446","f","true","img/T_ambi40.png","常人","word_first",""
"","","","","","html-keyboard-response","368","783804","0.0-13.0-1.0-1.0-0.1-1.78","null","<span style='color:GreenYellow; font-size: 70px;'>正确! </span>","null","","","","","","","","","","","","","","","","","","","","","","","feedback_test"
"","","","","","psychophysics","369","785774","0.0-13.0-1.0-1.0-0.1-0.79","810","","f","","","","","","","","","","","","","key","f","16.666000000000174","720","446","f","true","img/S_ambi40.png","常人","word_first",""
"","","","","","html-keyboard-response","370","786085","0.0-13.0-1.0-1.0-0.1-1.79","null","<span style='color:GreenYellow; font-size: 70px;'>正确! </span>","null","","","","","","","","","","","","","","","","","","","","","","","feedback_test"
"","","","","","psychophysics","371","787949","0.0-13.0-1.0-1.0-0.1-0.80","713","","j","","","","","","","","","","","","","key","j","16.665999999999798","720","446","j","true","img/S_ambi40.png","坏人","word_first",""
"","","","","","html-keyboard-response","372","788260","0.0-13.0-1.0-1.0-0.1-1.80","null","<span style='color:GreenYellow; font-size: 70px;'>正确! </span>","null","","","","","","","","","","","","","","","","","","","","","","","feedback_test"
"","","","","","psychophysics","373","790623","0.0-13.0-1.0-1.0-0.1-0.81","1206","","f","","","","","","","","","","","","","key","f","16.666000000000533","720","446","f","true","img/C_ambi40.png","好人","word_first",""
"","","","","","html-keyboard-response","374","790933","0.0-13.0-1.0-1.0-0.1-1.81","null","<span style='color:GreenYellow; font-size: 70px;'>正确! </span>","null","","","","","","","","","","","","","","","","","","","","","","","feedback_test"
"","","","","","psychophysics","375","792839","0.0-13.0-1.0-1.0-0.1-0.82","753","","j","","","","","","","","","","","","","key","j","16.66600000000027","720","446","j","true","img/T_ambi40.png","好人","word_first",""
"","","","","","html-keyboard-response","376","793144","0.0-13.0-1.0-1.0-0.1-1.82","null","<span style='color:GreenYellow; font-size: 70px;'>正确! </span>","null","","","","","","","","","","","","","","","","","","","","","","","feedback_test"
"","","","","","psychophysics","377","794910","0.0-13.0-1.0-1.0-0.1-0.83","611","","j","","","","","","","","","","","","","key","j","16.670990476190735","720","446","j","true","img/T_ambi40.png","好人","word_first",""
"","","","","","html-keyboard-response","378","795216","0.0-13.0-1.0-1.0-0.1-1.83","null","<span style='color:GreenYellow; font-size: 70px;'>正确! </span>","null","","","","","","","","","","","","","","","","","","","","","","","feedback_test"
"","","","","","psychophysics","379","797051","0.0-13.0-1.0-1.0-0.1-0.84","683","","f","","","","","","","","","","","","","key","f","16.666000000000377","720","446","f","true","img/S_ambi40.png","好人","word_first",""
"","","","","","html-keyboard-response","380","797365","0.0-13.0-1.0-1.0-0.1-1.84","null","<span style='color:GreenYellow; font-size: 70px;'>正确! </span>","null","","","","","","","","","","","","","","","","","","","","","","","feedback_test"
"","","","","","psychophysics","381","799323","0.0-13.0-1.0-1.0-0.1-0.85","807","","f","","","","","","","","","","","","","key","f","16.666000000000448","720","446","f","true","img/T_ambi40.png","常人","word_first",""
"","","","","","html-keyboard-response","382","799624","0.0-13.0-1.0-1.0-0.1-1.85","null","<span style='color:GreenYellow; font-size: 70px;'>正确! </span>","null","","","","","","","","","","","","","","","","","","","","","","","feedback_test"
"","","","","","psychophysics","383","801511","0.0-13.0-1.0-1.0-0.1-0.86","734","","j","","","","","","","","","","","","","key","j","16.666000000000558","720","446","f","false","img/T_ambi40.png","坏人","word_first",""
"","","","","","html-keyboard-response","384","801812","0.0-13.0-1.0-1.0-0.1-1.86","null","<span style='color:red; font-size: 70px;'>错误! </span>","null","","","","","","","","","","","","","","","","","","","","","","","feedback_test"
"","","","","","psychophysics","385","803721","0.0-13.0-1.0-1.0-0.1-0.87","755","","j","","","","","","","","","","","","","key","j","16.665999999999993","720","446","j","true","img/C_ambi40.png","常人","word_first",""
"","","","","","html-keyboard-response","386","804027","0.0-13.0-1.0-1.0-0.1-1.87","null","<span style='color:GreenYellow; font-size: 70px;'>正确! </span>","null","","","","","","","","","","","","","","","","","","","","","","","feedback_test"
"","","","","","psychophysics","387","805870","0.0-13.0-1.0-1.0-0.1-0.88","687","","f","","","","","","","","","","","","","key","f","16.666000000000086","720","446","f","true","img/C_ambi40.png","坏人","word_first",""
"","","","","","html-keyboard-response","388","806181","0.0-13.0-1.0-1.0-0.1-1.88","null","<span style='color:GreenYellow; font-size: 70px;'>正确! </span>","null","","","","","","","","","","","","","","","","","","","","","","","feedback_test"
"","","","","","psychophysics","389","808259","0.0-13.0-1.0-1.0-0.1-0.89","926","","j","","","","","","","","","","","","","key","j","16.666000000000516","720","446","j","true","img/S_ambi40.png","坏人","word_first",""
"","","","","","html-keyboard-response","390","808569","0.0-13.0-1.0-1.0-0.1-1.89","null","<span style='color:GreenYellow; font-size: 70px;'>正确! </span>","null","","","","","","","","","","","","","","","","","","","","","","","feedback_test"
"","","","","","psychophysics","391","810643","0.0-13.0-1.0-1.0-0.1-0.90","922","","f","","","","","","","","","","","","","key","f","16.666000000000516","720","446","f","true","img/C_ambi40.png","好人","word_first",""
"","","","","","html-keyboard-response","392","810948","0.0-13.0-1.0-1.0-0.1-1.90","null","<span style='color:GreenYellow; font-size: 70px;'>正确! </span>","null","","","","","","","","","","","","","","","","","","","","","","","feedback_test"
"","","","","","psychophysics","393","812967","0.0-13.0-1.0-1.0-0.1-0.91","868","","f","","","","","","","","","","","","","key","f","16.66600000000035","720","446","f","true","img/S_ambi40.png","常人","word_first",""
"","","","","","html-keyboard-response","394","813272","0.0-13.0-1.0-1.0-0.1-1.91","null","<span style='color:GreenYellow; font-size: 70px;'>正确! </span>","null","","","","","","","","","","","","","","","","","","","","","","","feedback_test"
"","","","","","psychophysics","395","815071","0.0-13.0-1.0-1.0-0.1-0.92","646","","f","","","","","","","","","","","","","key","f","16.670887850467594","720","446","j","false","img/C_ambi40.png","常人","word_first",""
"","","","","","html-keyboard-response","396","815381","0.0-13.0-1.0-1.0-0.1-1.92","null","<span style='color:red; font-size: 70px;'>错误! </span>","null","","","","","","","","","","","","","","","","","","","","","","","feedback_test"
"","","","","","psychophysics","397","817174","0.0-13.0-1.0-1.0-0.1-0.93","642","","j","","","","","","","","","","","","","key","j","16.666000000000185","720","446","j","true","img/S_ambi40.png","坏人","word_first",""
"","","","","","html-keyboard-response","398","817483","0.0-13.0-1.0-1.0-0.1-1.93","null","<span style='color:GreenYellow; font-size: 70px;'>正确! </span>","null","","","","","","","","","","","","","","","","","","","","","","","feedback_test"
"","","","","","psychophysics","399","819650","0.0-13.0-1.0-1.0-0.1-0.94","1003","","f","","","","","","","","","","","","","key","f","16.666000000000167","720","446","j","false","img/T_ambi40.png","好人","word_first",""
"","","","","","html-keyboard-response","400","819955","0.0-13.0-1.0-1.0-0.1-1.94","null","<span style='color:red; font-size: 70px;'>错误! </span>","null","","","","","","","","","","","","","","","","","","","","","","","feedback_test"
"","","","","","psychophysics","401","821999","0.0-13.0-1.0-1.0-0.1-0.95","886","","j","","","","","","","","","","","","","key","j","16.665999999999823","720","446","j","true","img/T_ambi40.png","好人","word_first",""
"","","","","","html-keyboard-response","402","822309","0.0-13.0-1.0-1.0-0.1-1.95","null","<span style='color:GreenYellow; font-size: 70px;'>正确! </span>","null","","","","","","","","","","","","","","","","","","","","","","","feedback_test"
"","","","","","psychophysics","403","824189","0.0-13.0-1.0-1.0-0.1-0.96","723","","j","","","","","","","","","","","","","key","j","16.665999999999517","720","446","j","true","img/C_ambi40.png","常人","word_first",""
"","","","","","html-keyboard-response","404","824500","0.0-13.0-1.0-1.0-0.1-1.96","null","<span style='color:GreenYellow; font-size: 70px;'>正确! </span>","null","","","","","","","","","","","","","","","","","","","","","","","feedback_test"
"","","","","","psychophysics","405","826397","0.0-13.0-1.0-1.0-0.1-0.97","745","","f","","","","","","","","","","","","","key","f","16.668401785714586","720","446","f","true","img/C_ambi40.png","好人","word_first",""
"","","","","","html-keyboard-response","406","826709","0.0-13.0-1.0-1.0-0.1-1.97","null","<span style='color:GreenYellow; font-size: 70px;'>正确! </span>","null","","","","","","","","","","","","","","","","","","","","","","","feedback_test"
"","","","","","psychophysics","407","828623","0.0-13.0-1.0-1.0-0.1-0.98","755","","f","","","","","","","","","","","","","key","f","16.665999999999993","720","446","f","true","img/S_ambi40.png","常人","word_first",""
"","","","","","html-keyboard-response","408","828933","0.0-13.0-1.0-1.0-0.1-1.98","null","<span style='color:GreenYellow; font-size: 70px;'>正确! </span>","null","","","","","","","","","","","","","","","","","","","","","","","feedback_test"
"","","","","","psychophysics","409","830824","0.0-13.0-1.0-1.0-0.1-0.99","733","","j","","","","","","","","","","","","","key","j","16.666000000000558","720","446","j","true","img/T_ambi40.png","好人","word_first",""
"","","","","","html-keyboard-response","410","831133","0.0-13.0-1.0-1.0-0.1-1.99","null","<span style='color:GreenYellow; font-size: 70px;'>正确! </span>","null","","","","","","","","","","","","","","","","","","","","","","","feedback_test"
"","","","","","psychophysics","411","833182","0.0-13.0-1.0-1.0-0.1-0.100","896","","f","","","","","","","","","","","","","key","f","16.66600000000078","720","446","f","true","img/C_ambi40.png","坏人","word_first",""
"","","","","","html-keyboard-response","412","833489","0.0-13.0-1.0-1.0-0.1-1.100","null","<span style='color:GreenYellow; font-size: 70px;'>正确! </span>","null","","","","","","","","","","","","","","","","","","","","","","","feedback_test"
"","","","","","psychophysics","413","835535","0.0-13.0-1.0-1.0-0.1-0.101","893","","j","","","","","","","","","","","","","key","j","16.665999999999823","720","446","j","true","img/T_ambi40.png","好人","word_first",""
"","","","","","html-keyboard-response","414","835841","0.0-13.0-1.0-1.0-0.1-1.101","null","<span style='color:GreenYellow; font-size: 70px;'>正确! </span>","null","","","","","","","","","","","","","","","","","","","","","","","feedback_test"
"","","","","","psychophysics","415","837702","0.0-13.0-1.0-1.0-0.1-0.102","706","","f","","","","","","","","","","","","","key","f","16.665999999999798","720","446","f","true","img/S_ambi40.png","好人","word_first",""
"","","","","","html-keyboard-response","416","838013","0.0-13.0-1.0-1.0-0.1-1.102","null","<span style='color:GreenYellow; font-size: 70px;'>正确! </span>","null","","","","","","","","","","","","","","","","","","","","","","","feedback_test"
"","","","","","psychophysics","417","840173","0.0-13.0-1.0-1.0-0.1-0.103","1006","","f","","","","","","","","","","","","","key","f","16.666000000000167","720","446","f","true","img/T_ambi40.png","常人","word_first",""
"","","","","","html-keyboard-response","418","840480","0.0-13.0-1.0-1.0-0.1-1.103","null","<span style='color:GreenYellow; font-size: 70px;'>正确! </span>","null","","","","","","","","","","","","","","","","","","","","","","","feedback_test"
"","","","","","psychophysics","419","842354","0.0-13.0-1.0-1.0-0.1-0.104","721","","f","","","","","","","","","","","","","key","f","16.665999999999798","720","446","j","false","img/S_ambi40.png","坏人","word_first",""
"","","","","","html-keyboard-response","420","842657","0.0-13.0-1.0-1.0-0.1-1.104","null","<span style='color:red; font-size: 70px;'>错误! </span>","null","","","","","","","","","","","","","","","","","","","","","","","feedback_test"
"","","","","","psychophysics","421","844508","0.0-13.0-1.0-1.0-0.1-0.105","693","","j","","","","","","","","","","","","","key","j","16.666000000000086","720","446","j","true","img/S_ambi40.png","坏人","word_first",""
"","","","","","html-keyboard-response","422","844817","0.0-13.0-1.0-1.0-0.1-1.105","null","<span style='color:GreenYellow; font-size: 70px;'>正确! </span>","null","","","","","","","","","","","","","","","","","","","","","","","feedback_test"
"","","","","","psychophysics","423","846616","0.0-13.0-1.0-1.0-0.1-0.106","635","","f","","","","","","","","","","","","","key","f","16.665999999999887","720","446","f","true","img/T_ambi40.png","坏人","word_first",""
"","","","","","html-keyboard-response","424","846921","0.0-13.0-1.0-1.0-0.1-1.106","null","<span style='color:GreenYellow; font-size: 70px;'>正确! </span>","null","","","","","","","","","","","","","","","","","","","","","","","feedback_test"
"","","","","","psychophysics","425","848872","0.0-13.0-1.0-1.0-0.1-0.107","790","","j","","","","","","","","","","","","","key","j","16.666000000000448","720","446","j","true","img/C_ambi40.png","常人","word_first",""
"","","","","","html-keyboard-response","426","849181","0.0-13.0-1.0-1.0-0.1-1.107","null","<span style='color:GreenYellow; font-size: 70px;'>正确! </span>","null","","","","","","","","","","","","","","","","","","","","","","","feedback_test"
"","","","","","psychophysics","427","851114","0.0-13.0-1.0-1.0-0.1-0.108","778","","f","","","","","","","","","","","","","key","f","16.665999999999993","720","446","f","true","img/S_ambi40.png","常人","word_first",""
"","","","","","html-keyboard-response","428","851421","0.0-13.0-1.0-1.0-0.1-1.108","null","<span style='color:GreenYellow; font-size: 70px;'>正确! </span>","null","","","","","","","","","","","","","","","","","","","","","","","feedback_test"
"","","","","","psychophysics","429","853307","0.0-13.0-1.0-1.0-0.1-0.109","730","","f","","","","","","","","","","","","","key","f","16.665999999999517","720","446","f","true","img/T_ambi40.png","常人","word_first",""
"","","","","","html-keyboard-response","430","853613","0.0-13.0-1.0-1.0-0.1-1.109","null","<span style='color:GreenYellow; font-size: 70px;'>正确! </span>","null","","","","","","","","","","","","","","","","","","","","","","","feedback_test"
"","","","","","psychophysics","431","855780","0.0-13.0-1.0-1.0-0.1-0.110","1014","","f","","","","","","","","","","","","","key","f","16.665999999999258","720","446","j","false","img/C_ambi40.png","常人","word_first",""
"","","","","","html-keyboard-response","432","856093","0.0-13.0-1.0-1.0-0.1-1.110","null","<span style='color:red; font-size: 70px;'>错误! </span>","null","","","","","","","","","","","","","","","","","","","","","","","feedback_test"
"","","","","","psychophysics","433","858087","0.0-13.0-1.0-1.0-0.1-0.111","839","","j","","","","","","","","","","","","","key","j","16.66599999999964","720","446","j","true","img/T_ambi40.png","好人","word_first",""
"","","","","","html-keyboard-response","434","858397","0.0-13.0-1.0-1.0-0.1-1.111","null","<span style='color:GreenYellow; font-size: 70px;'>正确! </span>","null","","","","","","","","","","","","","","","","","","","","","","","feedback_test"
"","","","","","psychophysics","435","860243","0.0-13.0-1.0-1.0-0.1-0.112","694","","f","","","","","","","","","","","","","key","f","16.665999999999308","720","446","f","true","img/C_ambi40.png","坏人","word_first",""
