"success","timeout","failed_images","failed_audio","failed_video","trial_type","trial_index","time_elapsed","internal_node_id","rt","stimulus","response","value","item_width_mm","item_height_mm","item_width_px","px2mm","view_dist_mm","item_width_deg","px2deg","scale_factor","win_width_deg","win_height_deg","view_history","response_type","key_press","avg_frame_time","center_x","center_y","correct_response","correct","Image","word","condition","screen_id"
"true","false","[]","[]","[]","preload","0","2863","0.0-0.0","","","","","","","","","","","","","","","","","","","","","","","","","",""
"","","","","","html-keyboard-response","1","27822","0.0-1.0","24958","
     <p>您好，欢迎参加本次实验。</p>
     <p>为充分保障您的权利，请确保您已经知晓并同意《参与实验同意书》以及《数据公开知情同意书》。</p>
     <p>如果您未见过上述内容，请咨询实验员。</p>
     <p>如果您选择继续实验，则表示您已经清楚两份知情同意书的内容并同意。</p>
     <p> <div style = ""color: green""><按任意键至下页></div> </p>
     ","arrowdown","","","","","","","","","","","","","","","","","","","","","","",""
"","","","","","html-keyboard-response","2","29042","0.0-2.0","1221","
     <p>本实验首先需要您填写一些基本个人信息。</p>
     <p> <div style = ""color: green""><按任意键至下页></div></p>
     ","arrowdown","","","","","","","","","","","","","","","","","","","","","","",""
"","","","","","call-function","3","29043","0.0-3.0-0.0","","","","","","","","","","","","","","","","","","","","","","","","","",""
"","","","","","survey-html-form","4","40474","0.0-3.0-1.0","11429","","{""Q0"":""16""}","","","","","","","","","","","","","","","","","","","","","","",""
"","","","","","html-button-response","5","41378","0.0-3.0-2.0","903","<p style = 'color : white'>您的性别</p>","1","","","","","","","","","","","","","","","","","","","","","","",""
"","","","","","survey-html-form","6","46346","0.0-3.0-3.0","4967","","{""Q0"":""2001""}","","","","","","","","","","","","","","","","","","","","","","",""
"","","","","","survey-html-form","7","48906","0.0-3.0-4.0","2559","","{""Q0"":""5""}","","","","","","","","","","","","","","","","","","","","","","",""
"","","","","","virtual-chinrest","8","110756","0.0-4.0","61848","","","","85.6","53.98","548.6321976950583","6.410334099384365","445.61","10.972643953901164","50","0.6926316056485119","28.84","14.44","","","","","","","","","","","",""
"true","","","","","fullscreen","9","128273","0.0-5.0","","","","","","","","","","","","","","","","","","","","","","","","","",""
"","","","","","instructions","10","195002","0.0-6.0","66729","","","","","","","","","","","","","","[{""page_index"":0,""viewing_time"":6849},{""page_index"":1,""viewing_time"":48888},{""page_index"":2,""viewing_time"":7512},{""page_index"":3,""viewing_time"":3481}]","","","","","","","","","","",""
"","","","","","psychophysics","11","197670","0.0-7.0-0.0-0.0","null","","null","","","","","","","","","","","","","key","null","16.653018867924448","768","428","f","false","img/C_ambi40.png","坏人","prac_image_first",""
"","","","","","html-keyboard-response","12","197981","0.0-7.0-0.0-1.0","null","<span class='add_' style='color:yellow; font-size: 70px;'> 太慢! </span>","null","","","","","","","","","","","","","","","","","","","","","","","feedback_test"
"","","","","","psychophysics","13","199747","0.0-7.0-0.0-0.1","612","","j","","","","","","","","","","","","","key","j","16.654198113207283","768","428","j","true","img/C_ambi40.png","好人","prac_image_first",""
"","","","","","html-keyboard-response","14","200060","0.0-7.0-0.0-1.1","null","<span style='color:GreenYellow; font-size: 70px;'>正确! </span>","null","","","","","","","","","","","","","","","","","","","","","","","feedback_test"
"","","","","","psychophysics","15","202116","0.0-7.0-0.0-0.2","900","","f","","","","","","","","","","","","","key","f","16.651536585365818","768","428","j","false","img/S_ambi40.png","坏人","prac_image_first",""
"","","","","","html-keyboard-response","16","202432","0.0-7.0-0.0-1.2","null","<span style='color:red; font-size: 70px;'>错误! </span>","null","","","","","","","","","","","","","","","","","","","","","","","feedback_test"
"","","","","","psychophysics","17","204376","0.0-7.0-0.0-0.3","785","","j","","","","","","","","","","","","","key","j","16.651043103448345","768","428","j","true","img/C_ambi40.png","常人","prac_image_first",""
"","","","","","html-keyboard-response","18","204684","0.0-7.0-0.0-1.3","null","<span style='color:GreenYellow; font-size: 70px;'>正确! </span>","null","","","","","","","","","","","","","","","","","","","","","","","feedback_test"
"","","","","","psychophysics","19","206345","0.0-7.0-0.0-0.4","506","","j","","","","","","","","","","","","","key","j","16.652181818181734","768","428","f","false","img/C_ambi40.png","坏人","prac_image_first",""
"","","","","","html-keyboard-response","20","206657","0.0-7.0-0.0-1.4","null","<span style='color:red; font-size: 70px;'>错误! </span>","null","","","","","","","","","","","","","","","","","","","","","","","feedback_test"
"","","","","","psychophysics","21","208823","0.0-7.0-0.0-0.5","1013","","j","","","","","","","","","","","","","key","j","16.65149612403105","768","428","j","true","img/T_ambi40.png","好人","prac_image_first",""
"","","","","","html-keyboard-response","22","209138","0.0-7.0-0.0-1.5","null","<span style='color:GreenYellow; font-size: 70px;'>正确! </span>","null","","","","","","","","","","","","","","","","","","","","","","","feedback_test"
"","","","","","psychophysics","23","210993","0.0-7.0-0.0-0.6","702","","f","","","","","","","","","","","","","key","f","16.65121428571417","768","428","f","true","img/T_ambi40.png","常人","prac_image_first",""
"","","","","","html-keyboard-response","24","211300","0.0-7.0-0.0-1.6","null","<span style='color:GreenYellow; font-size: 70px;'>正确! </span>","null","","","","","","","","","","","","","","","","","","","","","","","feedback_test"
"","","","","","psychophysics","25","213003","0.0-7.0-0.0-0.7","548","","j","","","","","","","","","","","","","key","j","16.651333333333206","768","428","j","true","img/T_ambi40.png","坏人","prac_image_first",""
"","","","","","html-keyboard-response","26","213316","0.0-7.0-0.0-1.7","null","<span style='color:GreenYellow; font-size: 70px;'>正确! </span>","null","","","","","","","","","","","","","","","","","","","","","","","feedback_test"
"","","","","","psychophysics","27","215141","0.0-7.0-0.0-0.8","670","","j","","","","","","","","","","","","","key","j","16.650247706421823","768","428","f","false","img/S_ambi40.png","好人","prac_image_first",""
"","","","","","html-keyboard-response","28","215454","0.0-7.0-0.0-1.8","null","<span style='color:red; font-size: 70px;'>错误! </span>","null","","","","","","","","","","","","","","","","","","","","","","","feedback_test"
"","","","","","psychophysics","29","217328","0.0-7.0-0.0-0.9","723","","f","","","","","","","","","","","","","key","f","16.65156250000005","768","428","f","true","img/T_ambi40.png","常人","prac_image_first",""
"","","","","","html-keyboard-response","30","217645","0.0-7.0-0.0-1.9","null","<span style='color:GreenYellow; font-size: 70px;'>正确! </span>","null","","","","","","","","","","","","","","","","","","","","","","","feedback_test"
"","","","","","psychophysics","31","219911","0.0-7.0-0.0-0.10","1111","","j","","","","","","","","","","","","","key","j","16.65099264705885","768","428","f","false","img/S_ambi40.png","好人","prac_image_first",""
"","","","","","html-keyboard-response","32","220220","0.0-7.0-0.0-1.10","null","<span style='color:red; font-size: 70px;'>错误! </span>","null","","","","","","","","","","","","","","","","","","","","","","","feedback_test"
"","","","","","psychophysics","33","222087","0.0-7.0-0.0-0.11","712","","j","","","","","","","","","","","","","key","j","16.651162162161985","768","428","j","true","img/S_ambi40.png","常人","prac_image_first",""
"","","","","","html-keyboard-response","34","222406","0.0-7.0-0.0-1.11","null","<span style='color:GreenYellow; font-size: 70px;'>正确! </span>","null","","","","","","","","","","","","","","","","","","","","","","","feedback_test"
"","","","","","psychophysics","35","224273","0.0-7.0-0.0-0.12","715","","j","","","","","","","","","","","","","key","j","16.651026785714357","768","428","j","true","img/T_ambi40.png","坏人","prac_image_first",""
"","","","","","html-keyboard-response","36","224580","0.0-7.0-0.0-1.12","null","<span style='color:GreenYellow; font-size: 70px;'>正确! </span>","null","","","","","","","","","","","","","","","","","","","","","","","feedback_test"
"","","","","","psychophysics","37","226282","0.0-7.0-0.0-0.13","547","","j","","","","","","","","","","","","","key","j","16.64994117647082","768","428","j","true","img/S_ambi40.png","常人","prac_image_first",""
"","","","","","html-keyboard-response","38","226600","0.0-7.0-0.0-1.13","null","<span style='color:GreenYellow; font-size: 70px;'>正确! </span>","null","","","","","","","","","","","","","","","","","","","","","","","feedback_test"
"","","","","","psychophysics","39","228345","0.0-7.0-0.0-0.14","587","","j","","","","","","","","","","","","","key","j","16.65071153846153","768","428","j","true","img/S_ambi40.png","坏人","prac_image_first",""
"","","","","","html-keyboard-response","40","228651","0.0-7.0-0.0-1.14","null","<span style='color:GreenYellow; font-size: 70px;'>正确! </span>","null","","","","","","","","","","","","","","","","","","","","","","","feedback_test"
"","","","","","psychophysics","41","230452","0.0-7.0-0.0-0.15","646","","j","","","","","","","","","","","","","key","j","16.650046728971898","768","428","j","true","img/T_ambi40.png","好人","prac_image_first",""
"","","","","","html-keyboard-response","42","230773","0.0-7.0-0.0-1.15","null","<span style='color:GreenYellow; font-size: 70px;'>正确! </span>","null","","","","","","","","","","","","","","","","","","","","","","","feedback_test"
"","","","","","psychophysics","43","232856","0.0-7.0-0.0-0.16","929","","j","","","","","","","","","","","","","key","j","16.65071200000006","768","428","j","true","img/C_ambi40.png","好人","prac_image_first",""
"","","","","","html-keyboard-response","44","233160","0.0-7.0-0.0-1.16","null","<span style='color:GreenYellow; font-size: 70px;'>正确! </span>","null","","","","","","","","","","","","","","","","","","","","","","","feedback_test"
"","","","","","psychophysics","45","234906","0.0-7.0-0.0-0.17","587","","f","","","","","","","","","","","","","key","f","16.65264423076923","768","428","f","true","img/S_ambi40.png","好人","prac_image_first",""
"","","","","","html-keyboard-response","46","235214","0.0-7.0-0.0-1.17","null","<span style='color:GreenYellow; font-size: 70px;'>正确! </span>","null","","","","","","","","","","","","","","","","","","","","","","","feedback_test"
"","","","","","psychophysics","47","237071","0.0-7.0-0.0-0.18","704","","j","","","","","","","","","","","","","key","j","16.651459459459506","768","428","j","true","img/C_ambi40.png","常人","prac_image_first",""
"","","","","","html-keyboard-response","48","237377","0.0-7.0-0.0-1.18","null","<span style='color:GreenYellow; font-size: 70px;'>正确! </span>","null","","","","","","","","","","","","","","","","","","","","","","","feedback_test"
"","","","","","psychophysics","49","239023","0.0-7.0-0.0-0.19","492","","f","","","","","","","","","","","","","key","f","16.650626262626375","768","428","f","true","img/T_ambi40.png","常人","prac_image_first",""
"","","","","","html-keyboard-response","50","239332","0.0-7.0-0.0-1.19","null","<span style='color:GreenYellow; font-size: 70px;'>正确! </span>","null","","","","","","","","","","","","","","","","","","","","","","","feedback_test"
"","","","","","psychophysics","51","241382","0.0-7.0-0.0-0.20","896","","j","","","","","","","","","","","","","key","j","16.651147540983626","768","428","f","false","img/C_ambi40.png","坏人","prac_image_first",""
"","","","","","html-keyboard-response","52","241688","0.0-7.0-0.0-1.20","null","<span style='color:red; font-size: 70px;'>错误! </span>","null","","","","","","","","","","","","","","","","","","","","","","","feedback_test"
"","","","","","psychophysics","53","243359","0.0-7.0-0.0-0.21","515","","f","","","","","","","","","","","","","key","f","16.651900000000023","768","428","f","true","img/T_ambi40.png","常人","prac_image_first",""
"","","","","","html-keyboard-response","54","243664","0.0-7.0-0.0-1.21","null","<span style='color:GreenYellow; font-size: 70px;'>正确! </span>","null","","","","","","","","","","","","","","","","","","","","","","","feedback_test"
"","","","","","psychophysics","55","245415","0.0-7.0-0.0-0.22","592","","f","","","","","","","","","","","","","key","f","16.65059047619025","768","428","f","true","img/S_ambi40.png","好人","prac_image_first",""
"","","","","","html-keyboard-response","56","245725","0.0-7.0-0.0-1.22","null","<span style='color:GreenYellow; font-size: 70px;'>正确! </span>","null","","","","","","","","","","","","","","","","","","","","","","","feedback_test"
"","","","","","psychophysics","57","247564","0.0-7.0-0.0-0.23","686","","f","","","","","","","","","","","","","key","f","16.65060909090892","768","428","f","true","img/C_ambi40.png","坏人","prac_image_first",""
"","","","","","html-keyboard-response","58","247883","0.0-7.0-0.0-1.23","null","<span style='color:GreenYellow; font-size: 70px;'>正确! </span>","null","","","","","","","","","","","","","","","","","","","","","","","feedback_test"
"","","","","","html-keyboard-response","59","265635","0.0-8.0","17750","<style>.context{color:white; font-size: 35px; line-height:40px}</style>                              <div><p class='context'>您正确回答了75% 的试次。</p><p class='context'>您的平均反应时为672毫秒。</p><p class='context'>恭喜您完成这一阶段的练习。按任意键进入<span style='color: yellow;'>先文字后图形条件</span>的练习。</p></div>","arrowdown","","","","","","","","","","","","","","","","","","","","","","",""
"","","","","","psychophysics","60","267585","0.0-9.0-0.0-0.0","797","","f","","","","","","","","","","","","","key","f","16.6501637931034","768","428","f","true","img/S_ambi40.png","好人","prac_word_first",""
"","","","","","html-keyboard-response","61","267899","0.0-9.0-0.0-1.0","null","<span style='color:GreenYellow; font-size: 70px;'>正确! </span>","null","","","","","","","","","","","","","","","","","","","","","","","feedback_test"
"","","","","","psychophysics","62","269656","0.0-9.0-0.0-0.1","602","","j","","","","","","","","","","","","","key","j","16.651552380952385","768","428","j","true","img/T_ambi40.png","好人","prac_word_first",""
"","","","","","html-keyboard-response","63","269965","0.0-9.0-0.0-1.1","null","<span style='color:GreenYellow; font-size: 70px;'>正确! </span>","null","","","","","","","","","","","","","","","","","","","","","","","feedback_test"
"","","","","","psychophysics","64","271841","0.0-9.0-0.0-0.2","723","","f","","","","","","","","","","","","","key","f","16.65170796460161","768","428","f","true","img/T_ambi40.png","常人","prac_word_first",""
"","","","","","html-keyboard-response","65","272152","0.0-9.0-0.0-1.2","null","<span style='color:GreenYellow; font-size: 70px;'>正确! </span>","null","","","","","","","","","","","","","","","","","","","","","","","feedback_test"
"","","","","","psychophysics","66","274037","0.0-9.0-0.0-0.3","725","","f","","","","","","","","","","","","","key","f","16.651437500000092","768","428","f","true","img/C_ambi40.png","坏人","prac_word_first",""
"","","","","","html-keyboard-response","67","274350","0.0-9.0-0.0-1.3","null","<span style='color:GreenYellow; font-size: 70px;'>正确! </span>","null","","","","","","","","","","","","","","","","","","","","","","","feedback_test"
"","","","","","psychophysics","68","276100","0.0-9.0-0.0-0.4","597","","j","","","","","","","","","","","","","key","j","16.650561904761986","768","428","j","true","img/T_ambi40.png","坏人","prac_word_first",""
"","","","","","html-keyboard-response","69","276406","0.0-9.0-0.0-1.4","null","<span style='color:GreenYellow; font-size: 70px;'>正确! </span>","null","","","","","","","","","","","","","","","","","","","","","","","feedback_test"
"","","","","","psychophysics","70","278137","0.0-9.0-0.0-0.5","579","","j","","","","","","","","","","","","","key","j","16.651432692307797","768","428","j","true","img/S_ambi40.png","坏人","prac_word_first",""
"","","","","","html-keyboard-response","71","278446","0.0-9.0-0.0-1.5","null","<span style='color:GreenYellow; font-size: 70px;'>正确! </span>","null","","","","","","","","","","","","","","","","","","","","","","","feedback_test"
"","","","","","psychophysics","72","280298","0.0-9.0-0.0-0.6","699","","f","","","","","","","","","","","","","key","f","16.65123636363635","768","428","f","true","img/T_ambi40.png","常人","prac_word_first",""
"","","","","","html-keyboard-response","73","280622","0.0-9.0-0.0-1.6","null","<span style='color:GreenYellow; font-size: 70px;'>正确! </span>","null","","","","","","","","","","","","","","","","","","","","","","","feedback_test"
"","","","","","psychophysics","74","282325","0.0-9.0-0.0-0.7","551","","j","","","","","","","","","","","","","key","j","16.650784313725534","768","428","j","true","img/C_ambi40.png","常人","prac_word_first",""
"","","","","","html-keyboard-response","75","282642","0.0-9.0-0.0-1.7","null","<span style='color:GreenYellow; font-size: 70px;'>正确! </span>","null","","","","","","","","","","","","","","","","","","","","","","","feedback_test"
"","","","","","psychophysics","76","284824","0.0-9.0-0.0-0.8","1025","","j","","","","","","","","","","","","","key","j","16.652876923077006","768","428","j","true","img/C_ambi40.png","好人","prac_word_first",""
"","","","","","html-keyboard-response","77","285131","0.0-9.0-0.0-1.8","null","<span style='color:GreenYellow; font-size: 70px;'>正确! </span>","null","","","","","","","","","","","","","","","","","","","","","","","feedback_test"
"","","","","","psychophysics","78","286922","0.0-9.0-0.0-0.9","635","","f","","","","","","","","","","","","","key","f","16.64980373831812","768","428","f","true","img/S_ambi40.png","好人","prac_word_first",""
"","","","","","html-keyboard-response","79","287237","0.0-9.0-0.0-1.9","null","<span style='color:GreenYellow; font-size: 70px;'>正确! </span>","null","","","","","","","","","","","","","","","","","","","","","","","feedback_test"
"","","","","","psychophysics","80","289071","0.0-9.0-0.0-0.10","679","","f","","","","","","","","","","","","","key","f","16.650399999999948","768","428","f","true","img/C_ambi40.png","坏人","prac_word_first",""
"","","","","","html-keyboard-response","81","289382","0.0-9.0-0.0-1.10","null","<span style='color:GreenYellow; font-size: 70px;'>正确! </span>","null","","","","","","","","","","","","","","","","","","","","","","","feedback_test"
"","","","","","psychophysics","82","291112","0.0-9.0-0.0-0.11","580","","j","","","","","","","","","","","","","key","j","16.648902912621356","768","428","j","true","img/S_ambi40.png","常人","prac_word_first",""
"","","","","","html-keyboard-response","83","291420","0.0-9.0-0.0-1.11","null","<span style='color:GreenYellow; font-size: 70px;'>正确! </span>","null","","","","","","","","","","","","","","","","","","","","","","","feedback_test"
"","","","","","psychophysics","84","293383","0.0-9.0-0.0-0.12","808","","j","","","","","","","","","","","","","key","j","16.653709401709374","768","428","j","true","img/T_ambi40.png","坏人","prac_word_first",""
"","","","","","html-keyboard-response","85","293689","0.0-9.0-0.0-1.12","null","<span style='color:GreenYellow; font-size: 70px;'>正确! </span>","null","","","","","","","","","","","","","","","","","","","","","","","feedback_test"
"","","","","","psychophysics","86","295338","0.0-9.0-0.0-0.13","493","","f","","","","","","","","","","","","","key","f","16.650673469387787","768","428","f","true","img/S_ambi40.png","好人","prac_word_first",""
"","","","","","html-keyboard-response","87","295648","0.0-9.0-0.0-1.13","null","<span style='color:GreenYellow; font-size: 70px;'>正确! </span>","null","","","","","","","","","","","","","","","","","","","","","","","feedback_test"
"","","","","","psychophysics","88","297302","0.0-9.0-0.0-0.14","496","","j","","","","","","","","","","","","","key","j","16.651000000000227","768","428","j","true","img/S_ambi40.png","常人","prac_word_first",""
"","","","","","html-keyboard-response","89","297618","0.0-9.0-0.0-1.14","null","<span style='color:GreenYellow; font-size: 70px;'>正确! </span>","null","","","","","","","","","","","","","","","","","","","","","","","feedback_test"
"","","","","","psychophysics","90","299380","0.0-9.0-0.0-0.15","605","","j","","","","","","","","","","","","","key","j","16.651037735849144","768","428","j","true","img/T_ambi40.png","好人","prac_word_first",""
"","","","","","html-keyboard-response","91","299689","0.0-9.0-0.0-1.15","null","<span style='color:GreenYellow; font-size: 70px;'>正确! </span>","null","","","","","","","","","","","","","","","","","","","","","","","feedback_test"
"","","","","","psychophysics","92","301363","0.0-9.0-0.0-0.16","523","","f","","","","","","","","","","","","","key","f","16.650585858585817","768","428","f","true","img/T_ambi40.png","常人","prac_word_first",""
"","","","","","html-keyboard-response","93","301679","0.0-9.0-0.0-1.16","null","<span style='color:GreenYellow; font-size: 70px;'>正确! </span>","null","","","","","","","","","","","","","","","","","","","","","","","feedback_test"
"","","","","","psychophysics","94","303254","0.0-9.0-0.0-0.17","423","","f","","","","","","","","","","","","","key","f","16.650638297872067","768","428","f","true","img/C_ambi40.png","坏人","prac_word_first",""
"","","","","","html-keyboard-response","95","303560","0.0-9.0-0.0-1.17","null","<span style='color:GreenYellow; font-size: 70px;'>正确! </span>","null","","","","","","","","","","","","","","","","","","","","","","","feedback_test"
"","","","","","psychophysics","96","305367","0.0-9.0-0.0-0.18","647","","f","","","","","","","","","","","","","key","f","16.65092592592582","768","428","f","true","img/T_ambi40.png","常人","prac_word_first",""
"","","","","","html-keyboard-response","97","305684","0.0-9.0-0.0-1.18","null","<span style='color:GreenYellow; font-size: 70px;'>正确! </span>","null","","","","","","","","","","","","","","","","","","","","","","","feedback_test"
"","","","","","psychophysics","98","307604","0.0-9.0-0.0-0.19","769","","f","","","","","","","","","","","","","key","f","16.64996521739117","768","428","f","true","img/S_ambi40.png","好人","prac_word_first",""
"","","","","","html-keyboard-response","99","307916","0.0-9.0-0.0-1.19","null","<span style='color:GreenYellow; font-size: 70px;'>正确! </span>","null","","","","","","","","","","","","","","","","","","","","","","","feedback_test"
"","","","","","psychophysics","100","309601","0.0-9.0-0.0-0.20","534","","j","","","","","","","","","","","","","key","j","16.65109999999986","768","428","j","true","img/C_ambi40.png","好人","prac_word_first",""
"","","","","","html-keyboard-response","101","309905","0.0-9.0-0.0-1.20","null","<span style='color:GreenYellow; font-size: 70px;'>正确! </span>","null","","","","","","","","","","","","","","","","","","","","","","","feedback_test"
"","","","","","psychophysics","102","311705","0.0-9.0-0.0-0.21","643","","j","","","","","","","","","","","","","key","j","16.650074074073927","768","428","j","true","img/S_ambi40.png","坏人","prac_word_first",""
"","","","","","html-keyboard-response","103","312017","0.0-9.0-0.0-1.21","null","<span style='color:GreenYellow; font-size: 70px;'>正确! </span>","null","","","","","","","","","","","","","","","","","","","","","","","feedback_test"
"","","","","","psychophysics","104","313668","0.0-9.0-0.0-0.22","493","","f","","","","","","","","","","","","","key","f","16.650707070706908","768","428","f","true","img/C_ambi40.png","坏人","prac_word_first",""
"","","","","","html-keyboard-response","105","313978","0.0-9.0-0.0-1.22","null","<span style='color:GreenYellow; font-size: 70px;'>正确! </span>","null","","","","","","","","","","","","","","","","","","","","","","","feedback_test"
"","","","","","psychophysics","106","315659","0.0-9.0-0.0-0.23","530","","j","","","","","","","","","","","","","key","j","16.65147474747459","768","428","j","true","img/C_ambi40.png","常人","prac_word_first",""
"","","","","","html-keyboard-response","107","315972","0.0-9.0-0.0-1.23","null","<span style='color:GreenYellow; font-size: 70px;'>正确! </span>","null","","","","","","","","","","","","","","","","","","","","","","","feedback_test"
"","","","","","html-keyboard-response","108","319554","0.0-10.0","3580","<style>.context{color:white; font-size: 35px; line-height:40px}</style>                              <div><p class='context'>您正确回答了100% 的试次。</p><p class='context'>您的平均反应时为632毫秒。</p><p class='context'>恭喜您完成练习。按任意键进入<span style='color: yellow;'>图形和文字同时呈现条件</span>的练习。</p></div>","arrowdown","","","","","","","","","","","","","","","","","","","","","","",""
"","","","","","psychophysics","109","321473","0.0-11.0-0.0-0.0","912","","f","","","","","","","","","","","","","key","f","16.57841228070187","768","428","f","true","img/C_ambi40.png","坏人","prac_simultaneous",""
"","","","","","html-keyboard-response","110","321776","0.0-11.0-0.0-1.0","null","<span style='color:GreenYellow; font-size: 70px;'>正确! </span>","null","","","","","","","","","","","","","","","","","","","","","","","feedback_test"
"","","","","","psychophysics","111","323385","0.0-11.0-0.0-0.1","602","","f","","","","","","","","","","","","","key","f","16.650484210526646","768","428","f","true","img/T_ambi40.png","常人","prac_simultaneous",""
"","","","","","html-keyboard-response","112","323690","0.0-11.0-0.0-1.1","null","<span style='color:GreenYellow; font-size: 70px;'>正确! </span>","null","","","","","","","","","","","","","","","","","","","","","","","feedback_test"
"","","","","","psychophysics","113","325327","0.0-11.0-0.0-0.2","631","","f","","","","","","","","","","","","","key","f","16.65017525773176","768","428","f","true","img/T_ambi40.png","常人","prac_simultaneous",""
"","","","","","html-keyboard-response","114","325642","0.0-11.0-0.0-1.2","null","<span style='color:GreenYellow; font-size: 70px;'>正确! </span>","null","","","","","","","","","","","","","","","","","","","","","","","feedback_test"
"","","","","","psychophysics","115","327304","0.0-11.0-0.0-0.3","657","","j","","","","","","","","","","","","","key","j","16.652060000000056","768","428","j","true","img/S_ambi40.png","常人","prac_simultaneous",""
"","","","","","html-keyboard-response","116","327613","0.0-11.0-0.0-1.3","null","<span style='color:GreenYellow; font-size: 70px;'>正确! </span>","null","","","","","","","","","","","","","","","","","","","","","","","feedback_test"
"","","","","","psychophysics","117","329243","0.0-11.0-0.0-0.4","628","","f","","","","","","","","","","","","","key","f","16.822587628866252","768","428","f","true","img/S_ambi40.png","好人","prac_simultaneous",""
"","","","","","html-keyboard-response","118","329562","0.0-11.0-0.0-1.4","null","<span style='color:GreenYellow; font-size: 70px;'>正确! </span>","null","","","","","","","","","","","","","","","","","","","","","","","feedback_test"
"","","","","","psychophysics","119","331256","0.0-11.0-0.0-0.5","693","","j","","","","","","","","","","","","","key","j","16.651269999999787","768","428","j","true","img/T_ambi40.png","好人","prac_simultaneous",""
"","","","","","html-keyboard-response","120","331562","0.0-11.0-0.0-1.5","null","<span style='color:GreenYellow; font-size: 70px;'>正确! </span>","null","","","","","","","","","","","","","","","","","","","","","","","feedback_test"
"","","","","","psychophysics","121","333203","0.0-11.0-0.0-0.6","640","","j","","","","","","","","","","","","","key","j","16.651257731958374","768","428","f","false","img/C_ambi40.png","坏人","prac_simultaneous",""
"","","","","","html-keyboard-response","122","333509","0.0-11.0-0.0-1.6","null","<span style='color:red; font-size: 70px;'>错误! </span>","null","","","","","","","","","","","","","","","","","","","","","","","feedback_test"
"","","","","","psychophysics","123","335314","0.0-11.0-0.0-0.7","805","","j","","","","","","","","","","","","","key","j","16.6506203703703","768","428","j","true","img/C_ambi40.png","常人","prac_simultaneous",""
"","","","","","html-keyboard-response","124","335630","0.0-11.0-0.0-1.7","null","<span style='color:GreenYellow; font-size: 70px;'>正确! </span>","null","","","","","","","","","","","","","","","","","","","","","","","feedback_test"
"","","","","","psychophysics","125","337619","0.0-11.0-0.0-0.8","980","","j","","","","","","","","","","","","","key","j","16.65184745762667","768","428","j","true","img/T_ambi40.png","坏人","prac_simultaneous",""
"","","","","","html-keyboard-response","126","337929","0.0-11.0-0.0-1.8","null","<span style='color:GreenYellow; font-size: 70px;'>正确! </span>","null","","","","","","","","","","","","","","","","","","","","","","","feedback_test"
"","","","","","psychophysics","127","339532","0.0-11.0-0.0-0.9","597","","j","","","","","","","","","","","","","key","j","16.654114583333165","768","428","j","true","img/C_ambi40.png","好人","prac_simultaneous",""
"","","","","","html-keyboard-response","128","339842","0.0-11.0-0.0-1.9","null","<span style='color:GreenYellow; font-size: 70px;'>正确! </span>","null","","","","","","","","","","","","","","","","","","","","","","","feedback_test"
"","","","","","psychophysics","129","341656","0.0-11.0-0.0-0.10","810","","f","","","","","","","","","","","","","key","f","16.652000000000246","768","428","f","true","img/S_ambi40.png","好人","prac_simultaneous",""
"","","","","","html-keyboard-response","130","341966","0.0-11.0-0.0-1.10","null","<span style='color:GreenYellow; font-size: 70px;'>正确! </span>","null","","","","","","","","","","","","","","","","","","","","","","","feedback_test"
"","","","","","psychophysics","131","343672","0.0-11.0-0.0-0.11","704","","j","","","","","","","","","","","","","key","j","16.824264705882467","768","428","j","true","img/S_ambi40.png","坏人","prac_simultaneous",""
"","","","","","html-keyboard-response","132","343978","0.0-11.0-0.0-1.11","null","<span style='color:GreenYellow; font-size: 70px;'>正确! </span>","null","","","","","","","","","","","","","","","","","","","","","","","feedback_test"
"","","","","","psychophysics","133","345717","0.0-11.0-0.0-0.12","735","","f","","","","","","","","","","","","","key","f","16.652269230769328","768","428","f","true","img/C_ambi40.png","坏人","prac_simultaneous",""
"","","","","","html-keyboard-response","134","346022","0.0-11.0-0.0-1.12","null","<span style='color:GreenYellow; font-size: 70px;'>正确! </span>","null","","","","","","","","","","","","","","","","","","","","","","","feedback_test"
"","","","","","psychophysics","135","347733","0.0-11.0-0.0-0.13","709","","j","","","","","","","","","","","","","key","j","16.65064077669906","768","428","j","true","img/C_ambi40.png","好人","prac_simultaneous",""
"","","","","","html-keyboard-response","136","348041","0.0-11.0-0.0-1.13","null","<span style='color:GreenYellow; font-size: 70px;'>正确! </span>","null","","","","","","","","","","","","","","","","","","","","","","","feedback_test"
"","","","","","psychophysics","137","349620","0.0-11.0-0.0-0.14","575","","j","","","","","","","","","","","","","key","j","16.651094736842023","768","428","f","false","img/S_ambi40.png","好人","prac_simultaneous",""
"","","","","","html-keyboard-response","138","349939","0.0-11.0-0.0-1.14","null","<span style='color:red; font-size: 70px;'>错误! </span>","null","","","","","","","","","","","","","","","","","","","","","","","feedback_test"
"","","","","","psychophysics","139","351801","0.0-11.0-0.0-0.15","858","","f","","","","","","","","","","","","","key","f","16.65133928571439","768","428","f","true","img/C_ambi40.png","坏人","prac_simultaneous",""
"","","","","","html-keyboard-response","140","352104","0.0-11.0-0.0-1.15","null","<span style='color:GreenYellow; font-size: 70px;'>正确! </span>","null","","","","","","","","","","","","","","","","","","","","","","","feedback_test"
"","","","","","psychophysics","141","353863","0.0-11.0-0.0-0.16","755","","j","","","","","","","","","","","","","key","j","16.651552380952385","768","428","j","true","img/S_ambi40.png","常人","prac_simultaneous",""
"","","","","","html-keyboard-response","142","354172","0.0-11.0-0.0-1.16","null","<span style='color:GreenYellow; font-size: 70px;'>正确! </span>","null","","","","","","","","","","","","","","","","","","","","","","","feedback_test"
"","","","","","psychophysics","143","355857","0.0-11.0-0.0-0.17","685","","j","","","","","","","","","","","","","key","j","16.81564356435648","768","428","j","true","img/T_ambi40.png","好人","prac_simultaneous",""
"","","","","","html-keyboard-response","144","356160","0.0-11.0-0.0-1.17","null","<span style='color:GreenYellow; font-size: 70px;'>正确! </span>","null","","","","","","","","","","","","","","","","","","","","","","","feedback_test"
"","","","","","psychophysics","145","357853","0.0-11.0-0.0-0.18","686","","f","","","","","","","","","","","","","key","f","16.650789999999688","768","428","f","true","img/T_ambi40.png","常人","prac_simultaneous",""
"","","","","","html-keyboard-response","146","358161","0.0-11.0-0.0-1.18","null","<span style='color:GreenYellow; font-size: 70px;'>正确! </span>","null","","","","","","","","","","","","","","","","","","","","","","","feedback_test"
"","","","","","psychophysics","147","359962","0.0-11.0-0.0-0.19","795","","j","","","","","","","","","","","","","key","j","16.650728971962316","768","428","j","true","img/T_ambi40.png","坏人","prac_simultaneous",""
"","","","","","html-keyboard-response","148","360274","0.0-11.0-0.0-1.19","null","<span style='color:GreenYellow; font-size: 70px;'>正确! </span>","null","","","","","","","","","","","","","","","","","","","","","","","feedback_test"
"","","","","","psychophysics","149","361745","0.0-11.0-0.0-0.20","465","","f","","","","","","","","","","","","","key","f","16.652545454545443","768","428","f","true","img/S_ambi40.png","好人","prac_simultaneous",""
"","","","","","html-keyboard-response","150","362049","0.0-11.0-0.0-1.20","null","<span style='color:GreenYellow; font-size: 70px;'>正确! </span>","null","","","","","","","","","","","","","","","","","","","","","","","feedback_test"
"","","","","","psychophysics","151","363874","0.0-11.0-0.0-0.21","819","","j","","","","","","","","","","","","","key","j","16.650944444444676","768","428","j","true","img/S_ambi40.png","坏人","prac_simultaneous",""
"","","","","","html-keyboard-response","152","364179","0.0-11.0-0.0-1.21","null","<span style='color:GreenYellow; font-size: 70px;'>正确! </span>","null","","","","","","","","","","","","","","","","","","","","","","","feedback_test"
"","","","","","psychophysics","153","365779","0.0-11.0-0.0-0.22","599","","f","","","","","","","","","","","","","key","f","16.651157894737306","768","428","f","true","img/T_ambi40.png","常人","prac_simultaneous",""
"","","","","","html-keyboard-response","154","366097","0.0-11.0-0.0-1.22","null","<span style='color:GreenYellow; font-size: 70px;'>正确! </span>","null","","","","","","","","","","","","","","","","","","","","","","","feedback_test"
"","","","","","psychophysics","155","367707","0.0-11.0-0.0-0.23","609","","j","","","","","","","","","","","","","key","j","16.652416666666493","768","428","j","true","img/C_ambi40.png","常人","prac_simultaneous",""
"","","","","","html-keyboard-response","156","368028","0.0-11.0-0.0-1.23","null","<span style='color:GreenYellow; font-size: 70px;'>正确! </span>","null","","","","","","","","","","","","","","","","","","","","","","","feedback_test"
"","","","","","html-keyboard-response","157","378570","0.0-12.0","10541","<style>.context{color:white; font-size: 35px; line-height:40px}</style>                              <div><p class='context'>您正确回答了92% 的试次。</p><p class='context'>您的平均反应时为715毫秒。</p><p class='context'>恭喜您完成练习。按任意键进入正式实验。</p><p class='footer' style='font-size: 35px; line-height:40px;'>请在进入正式实验实验之前将您的<span style='color: lightgreen;'>食指</span>放在电脑键盘的相应键位上进行按键。</p>","arrowdown","","","","","","","","","","","","","","","","","","","","","","",""
"","","","","","html-keyboard-response","158","380273","0.0-13.0-0.0-0.0","1700","
      <p>请您将手指放在按键上，准备进入呈现顺序为<span style='color: yellow;'>先图形后文字条件</span>的正式匹配任务</p>
      <p> <div style = ""color: green""><按任意键进入下一阶段的匹配任务></div></p>
      ","arrowdown","","","","","","","","","","","","","","","","","","","","","","",""
"","","","","","psychophysics","159","381903","0.0-13.0-0.0-1.0-0.0-0.0","471","","f","","","","","","","","","","","","","key","f","16.652319587628504","768","428","f","true","img/T_ambi40.png","常人","image_first",""
"","","","","","html-keyboard-response","160","382221","0.0-13.0-0.0-1.0-0.0-1.0","null","<span style='color:GreenYellow; font-size: 70px;'>正确! </span>","null","","","","","","","","","","","","","","","","","","","","","","","feedback_test"
"","","","","","psychophysics","161","383915","0.0-13.0-0.0-1.0-0.0-0.1","540","","j","","","","","","","","","","","","","key","j","16.65138613861423","768","428","j","true","img/C_ambi40.png","好人","image_first",""
"","","","","","html-keyboard-response","162","384229","0.0-13.0-0.0-1.0-0.0-1.1","null","<span style='color:GreenYellow; font-size: 70px;'>正确! </span>","null","","","","","","","","","","","","","","","","","","","","","","","feedback_test"
"","","","","","psychophysics","163","385836","0.0-13.0-0.0-1.0-0.0-0.2","455","","f","","","","","","","","","","","","","key","f","16.650315789473364","768","428","f","true","img/T_ambi40.png","常人","image_first",""
"","","","","","html-keyboard-response","164","386151","0.0-13.0-0.0-1.0-0.0-1.2","null","<span style='color:GreenYellow; font-size: 70px;'>正确! </span>","null","","","","","","","","","","","","","","","","","","","","","","","feedback_test"
"","","","","","psychophysics","165","387818","0.0-13.0-0.0-1.0-0.0-0.3","513","","j","","","","","","","","","","","","","key","j","16.650920000000042","768","428","j","true","img/S_ambi40.png","常人","image_first",""
"","","","","","html-keyboard-response","166","388125","0.0-13.0-0.0-1.0-0.0-1.3","null","<span style='color:GreenYellow; font-size: 70px;'>正确! </span>","null","","","","","","","","","","","","","","","","","","","","","","","feedback_test"
"","","","","","psychophysics","167","389755","0.0-13.0-0.0-1.0-0.0-0.4","480","","j","","","","","","","","","","","","","key","j","16.650906249999633","768","428","j","true","img/C_ambi40.png","常人","image_first",""
"","","","","","html-keyboard-response","168","390072","0.0-13.0-0.0-1.0-0.0-1.4","null","<span style='color:GreenYellow; font-size: 70px;'>正确! </span>","null","","","","","","","","","","","","","","","","","","","","","","","feedback_test"
"","","","","","psychophysics","169","391704","0.0-13.0-0.0-1.0-0.0-0.5","481","","f","","","","","","","","","","","","","key","f","16.511260416666726","768","428","f","true","img/S_ambi40.png","好人","image_first",""
"","","","","","html-keyboard-response","170","392019","0.0-13.0-0.0-1.0-0.0-1.5","null","<span style='color:GreenYellow; font-size: 70px;'>正确! </span>","null","","","","","","","","","","","","","","","","","","","","","","","feedback_test"
"","","","","","psychophysics","171","393665","0.0-13.0-0.0-1.0-0.0-0.6","494","","j","","","","","","","","","","","","","key","j","16.82070408163269","768","428","j","true","img/T_ambi40.png","坏人","image_first",""
"","","","","","html-keyboard-response","172","393982","0.0-13.0-0.0-1.0-0.0-1.6","null","<span style='color:GreenYellow; font-size: 70px;'>正确! </span>","null","","","","","","","","","","","","","","","","","","","","","","","feedback_test"
"","","","","","psychophysics","173","395596","0.0-13.0-0.0-1.0-0.0-0.7","461","","j","","","","","","","","","","","","","key","j","16.654865979381416","768","428","f","false","img/C_ambi40.png","坏人","image_first",""
"","","","","","html-keyboard-response","174","395917","0.0-13.0-0.0-1.0-0.0-1.7","null","<span style='color:red; font-size: 70px;'>错误! </span>","null","","","","","","","","","","","","","","","","","","","","","","","feedback_test"
"","","","","","psychophysics","175","397769","0.0-13.0-0.0-1.0-0.0-0.8","696","","f","","","","","","","","","","","","","key","f","16.651772727272263","768","428","f","true","img/C_ambi40.png","坏人","image_first",""
"","","","","","html-keyboard-response","176","398087","0.0-13.0-0.0-1.0-0.0-1.8","null","<span style='color:GreenYellow; font-size: 70px;'>正确! </span>","null","","","","","","","","","","","","","","","","","","","","","","","feedback_test"
"","","","","","psychophysics","177","399835","0.0-13.0-0.0-1.0-0.0-0.9","597","","f","","","","","","","","","","","","","key","f","16.650817307692286","768","428","f","true","img/S_ambi40.png","好人","image_first",""
"","","","","","html-keyboard-response","178","400153","0.0-13.0-0.0-1.0-0.0-1.9","null","<span style='color:GreenYellow; font-size: 70px;'>正确! </span>","null","","","","","","","","","","","","","","","","","","","","","","","feedback_test"
"","","","","","psychophysics","179","401960","0.0-13.0-0.0-1.0-0.0-0.10","649","","j","","","","","","","","","","","","","key","j","16.653056074766155","768","428","j","true","img/S_ambi40.png","坏人","image_first",""
"","","","","","html-keyboard-response","180","402276","0.0-13.0-0.0-1.0-0.0-1.10","null","<span style='color:GreenYellow; font-size: 70px;'>正确! </span>","null","","","","","","","","","","","","","","","","","","","","","","","feedback_test"
"","","","","","psychophysics","181","403998","0.0-13.0-0.0-1.0-0.0-0.11","570","","j","","","","","","","","","","","","","key","j","16.519656862745144","768","428","j","true","img/T_ambi40.png","好人","image_first",""
"","","","","","html-keyboard-response","182","404312","0.0-13.0-0.0-1.0-0.0-1.11","null","<span style='color:GreenYellow; font-size: 70px;'>正确! </span>","null","","","","","","","","","","","","","","","","","","","","","","","feedback_test"
"","","","","","psychophysics","183","405830","0.0-13.0-0.0-1.0-0.0-0.12","359","","f","","","","","","","","","","","","","key","f","16.65048351648307","768","428","f","true","img/T_ambi40.png","常人","image_first",""
"","","","","","html-keyboard-response","184","406148","0.0-13.0-0.0-1.0-0.0-1.12","null","<span style='color:GreenYellow; font-size: 70px;'>正确! </span>","null","","","","","","","","","","","","","","","","","","","","","","","feedback_test"
"","","","","","psychophysics","185","407881","0.0-13.0-0.0-1.0-0.0-0.13","576","","f","","","","","","","","","","","","","key","f","16.654336538461322","768","428","j","false","img/S_ambi40.png","常人","image_first",""
"","","","","","html-keyboard-response","186","408185","0.0-13.0-0.0-1.0-0.0-1.13","null","<span style='color:red; font-size: 70px;'>错误! </span>","null","","","","","","","","","","","","","","","","","","","","","","","feedback_test"
"","","","","","psychophysics","187","409941","0.0-13.0-0.0-1.0-0.0-0.14","602","","f","","","","","","","","","","","","","key","f","16.65175238095246","768","428","f","true","img/C_ambi40.png","坏人","image_first",""
"","","","","","html-keyboard-response","188","410252","0.0-13.0-0.0-1.0-0.0-1.14","null","<span style='color:GreenYellow; font-size: 70px;'>正确! </span>","null","","","","","","","","","","","","","","","","","","","","","","","feedback_test"
"","","","","","psychophysics","189","411910","0.0-13.0-0.0-1.0-0.0-0.15","506","","f","","","","","","","","","","","","","key","f","16.819080808081175","768","428","f","true","img/S_ambi40.png","好人","image_first",""
"","","","","","html-keyboard-response","190","412230","0.0-13.0-0.0-1.0-0.0-1.15","null","<span style='color:GreenYellow; font-size: 70px;'>正确! </span>","null","","","","","","","","","","","","","","","","","","","","","","","feedback_test"
"","","","","","psychophysics","191","413863","0.0-13.0-0.0-1.0-0.0-0.16","479","","f","","","","","","","","","","","","","key","f","16.650948979591295","768","428","f","true","img/T_ambi40.png","常人","image_first",""
"","","","","","html-keyboard-response","192","414176","0.0-13.0-0.0-1.0-0.0-1.16","null","<span style='color:GreenYellow; font-size: 70px;'>正确! </span>","null","","","","","","","","","","","","","","","","","","","","","","","feedback_test"
"","","","","","psychophysics","193","415836","0.0-13.0-0.0-1.0-0.0-0.17","509","","j","","","","","","","","","","","","","key","j","16.65071717171749","768","428","j","true","img/S_ambi40.png","坏人","image_first",""
"","","","","","html-keyboard-response","194","416151","0.0-13.0-0.0-1.0-0.0-1.17","null","<span style='color:GreenYellow; font-size: 70px;'>正确! </span>","null","","","","","","","","","","","","","","","","","","","","","","","feedback_test"
"","","","","","psychophysics","195","417909","0.0-13.0-0.0-1.0-0.0-0.18","605","","j","","","","","","","","","","","","","key","j","16.65263461538472","768","428","j","true","img/C_ambi40.png","常人","image_first",""
"","","","","","html-keyboard-response","196","418230","0.0-13.0-0.0-1.0-0.0-1.18","null","<span style='color:GreenYellow; font-size: 70px;'>正确! </span>","null","","","","","","","","","","","","","","","","","","","","","","","feedback_test"
"","","","","","psychophysics","197","420087","0.0-13.0-0.0-1.0-0.0-0.19","705","","j","","","","","","","","","","","","","key","j","16.651463636363836","768","428","j","true","img/C_ambi40.png","好人","image_first",""
"","","","","","html-keyboard-response","198","420401","0.0-13.0-0.0-1.0-0.0-1.19","null","<span style='color:GreenYellow; font-size: 70px;'>正确! </span>","null","","","","","","","","","","","","","","","","","","","","","","","feedback_test"
"","","","","","psychophysics","199","422151","0.0-13.0-0.0-1.0-0.0-0.20","591","","f","","","","","","","","","","","","","key","f","16.65123809523814","768","428","f","true","img/C_ambi40.png","坏人","image_first",""
"","","","","","html-keyboard-response","200","422468","0.0-13.0-0.0-1.0-0.0-1.20","null","<span style='color:GreenYellow; font-size: 70px;'>正确! </span>","null","","","","","","","","","","","","","","","","","","","","","","","feedback_test"
"","","","","","psychophysics","201","424126","0.0-13.0-0.0-1.0-0.0-0.21","503","","j","","","","","","","","","","","","","key","j","16.650262626263107","768","428","j","true","img/T_ambi40.png","坏人","image_first",""
"","","","","","html-keyboard-response","202","424432","0.0-13.0-0.0-1.0-0.0-1.21","null","<span style='color:GreenYellow; font-size: 70px;'>正确! </span>","null","","","","","","","","","","","","","","","","","","","","","","","feedback_test"
"","","","","","psychophysics","203","426087","0.0-13.0-0.0-1.0-0.0-0.22","505","","j","","","","","","","","","","","","","key","j","16.65205050505065","768","428","j","true","img/T_ambi40.png","好人","image_first",""
"","","","","","html-keyboard-response","204","426394","0.0-13.0-0.0-1.0-0.0-1.22","null","<span style='color:GreenYellow; font-size: 70px;'>正确! </span>","null","","","","","","","","","","","","","","","","","","","","","","","feedback_test"
"","","","","","psychophysics","205","427997","0.0-13.0-0.0-1.0-0.0-0.23","446","","j","","","","","","","","","","","","","key","j","16.650281249999654","768","428","f","false","img/S_ambi40.png","好人","image_first",""
"","","","","","html-keyboard-response","206","428306","0.0-13.0-0.0-1.0-0.0-1.23","null","<span style='color:red; font-size: 70px;'>错误! </span>","null","","","","","","","","","","","","","","","","","","","","","","","feedback_test"
"","","","","","psychophysics","207","430222","0.0-13.0-0.0-1.0-0.0-0.24","759","","j","","","","","","","","","","","","","key","j","16.651473684210366","768","428","j","true","img/S_ambi40.png","常人","image_first",""
"","","","","","html-keyboard-response","208","430535","0.0-13.0-0.0-1.0-0.0-1.24","null","<span style='color:GreenYellow; font-size: 70px;'>正确! </span>","null","","","","","","","","","","","","","","","","","","","","","","","feedback_test"
"","","","","","psychophysics","209","432244","0.0-13.0-0.0-1.0-0.0-0.25","556","","j","","","","","","","","","","","","","key","j","16.65127450980385","768","428","j","true","img/S_ambi40.png","坏人","image_first",""
"","","","","","html-keyboard-response","210","432561","0.0-13.0-0.0-1.0-0.0-1.25","null","<span style='color:GreenYellow; font-size: 70px;'>正确! </span>","null","","","","","","","","","","","","","","","","","","","","","","","feedback_test"
"","","","","","psychophysics","211","434226","0.0-13.0-0.0-1.0-0.0-0.26","510","","f","","","","","","","","","","","","","key","f","16.65253535353501","768","428","f","true","img/S_ambi40.png","好人","image_first",""
"","","","","","html-keyboard-response","212","434529","0.0-13.0-0.0-1.0-0.0-1.26","null","<span style='color:GreenYellow; font-size: 70px;'>正确! </span>","null","","","","","","","","","","","","","","","","","","","","","","","feedback_test"
"","","","","","psychophysics","213","436118","0.0-13.0-0.0-1.0-0.0-0.27","438","","f","","","","","","","","","","","","","key","f","16.650557894736995","768","428","f","true","img/T_ambi40.png","常人","image_first",""
"","","","","","html-keyboard-response","214","436429","0.0-13.0-0.0-1.0-0.0-1.27","null","<span style='color:GreenYellow; font-size: 70px;'>正确! </span>","null","","","","","","","","","","","","","","","","","","","","","","","feedback_test"
"","","","","","psychophysics","215","438098","0.0-13.0-0.0-1.0-0.0-0.28","515","","j","","","","","","","","","","","","","key","j","16.6509292929291","768","428","j","true","img/C_ambi40.png","好人","image_first",""
"","","","","","html-keyboard-response","216","438422","0.0-13.0-0.0-1.0-0.0-1.28","null","<span style='color:GreenYellow; font-size: 70px;'>正确! </span>","null","","","","","","","","","","","","","","","","","","","","","","","feedback_test"
"","","","","","psychophysics","217","440301","0.0-13.0-0.0-1.0-0.0-0.29","726","","f","","","","","","","","","","","","","key","f","16.65316814159309","768","428","f","true","img/C_ambi40.png","坏人","image_first",""
"","","","","","html-keyboard-response","218","440620","0.0-13.0-0.0-1.0-0.0-1.29","null","<span style='color:GreenYellow; font-size: 70px;'>正确! </span>","null","","","","","","","","","","","","","","","","","","","","","","","feedback_test"
"","","","","","psychophysics","219","442254","0.0-13.0-0.0-1.0-0.0-0.30","479","","j","","","","","","","","","","","","","key","j","16.650357142857","768","428","f","false","img/S_ambi40.png","好人","image_first",""
"","","","","","html-keyboard-response","220","442565","0.0-13.0-0.0-1.0-0.0-1.30","null","<span style='color:red; font-size: 70px;'>错误! </span>","null","","","","","","","","","","","","","","","","","","","","","","","feedback_test"
"","","","","","psychophysics","221","444250","0.0-13.0-0.0-1.0-0.0-0.31","530","","j","","","","","","","","","","","","","key","j","16.650277227722338","768","428","j","true","img/T_ambi40.png","好人","image_first",""
"","","","","","html-keyboard-response","222","444555","0.0-13.0-0.0-1.0-0.0-1.31","null","<span style='color:GreenYellow; font-size: 70px;'>正确! </span>","null","","","","","","","","","","","","","","","","","","","","","","","feedback_test"
"","","","","","psychophysics","223","446270","0.0-13.0-0.0-1.0-0.0-0.32","565","","f","","","","","","","","","","","","","key","f","16.650215686274368","768","428","f","true","img/C_ambi40.png","坏人","image_first",""
"","","","","","html-keyboard-response","224","446581","0.0-13.0-0.0-1.0-0.0-1.32","null","<span style='color:GreenYellow; font-size: 70px;'>正确! </span>","null","","","","","","","","","","","","","","","","","","","","","","","feedback_test"
"","","","","","psychophysics","225","448307","0.0-13.0-0.0-1.0-0.0-0.33","571","","j","","","","","","","","","","","","","key","j","16.6513398058257","768","428","j","true","img/T_ambi40.png","坏人","image_first",""
"","","","","","html-keyboard-response","226","448615","0.0-13.0-0.0-1.0-0.0-1.33","null","<span style='color:GreenYellow; font-size: 70px;'>正确! </span>","null","","","","","","","","","","","","","","","","","","","","","","","feedback_test"
"","","","","","psychophysics","227","450245","0.0-13.0-0.0-1.0-0.0-0.34","477","","f","","","","","","","","","","","","","key","f","16.64956122448986","768","428","f","true","img/T_ambi40.png","常人","image_first",""
"","","","","","html-keyboard-response","228","450557","0.0-13.0-0.0-1.0-0.0-1.34","null","<span style='color:GreenYellow; font-size: 70px;'>正确! </span>","null","","","","","","","","","","","","","","","","","","","","","","","feedback_test"
"","","","","","psychophysics","229","452268","0.0-13.0-0.0-1.0-0.0-0.35","557","","j","","","","","","","","","","","","","key","j","16.650834951456524","768","428","j","true","img/C_ambi40.png","常人","image_first",""
"","","","","","html-keyboard-response","230","452585","0.0-13.0-0.0-1.0-0.0-1.35","null","<span style='color:GreenYellow; font-size: 70px;'>正确! </span>","null","","","","","","","","","","","","","","","","","","","","","","","feedback_test"
"","","","","","psychophysics","231","454311","0.0-13.0-0.0-1.0-0.0-0.36","568","","f","","","","","","","","","","","","","key","f","16.649621359223513","768","428","f","true","img/C_ambi40.png","坏人","image_first",""
"","","","","","html-keyboard-response","232","454625","0.0-13.0-0.0-1.0-0.0-1.36","null","<span style='color:GreenYellow; font-size: 70px;'>正确! </span>","null","","","","","","","","","","","","","","","","","","","","","","","feedback_test"
"","","","","","psychophysics","233","456263","0.0-13.0-0.0-1.0-0.0-0.37","484","","f","","","","","","","","","","","","","key","f","16.650262626262517","768","428","f","true","img/C_ambi40.png","坏人","image_first",""
"","","","","","html-keyboard-response","234","456574","0.0-13.0-0.0-1.0-0.0-1.37","null","<span style='color:GreenYellow; font-size: 70px;'>正确! </span>","null","","","","","","","","","","","","","","","","","","","","","","","feedback_test"
"","","","","","psychophysics","235","458397","0.0-13.0-0.0-1.0-0.0-0.38","671","","j","","","","","","","","","","","","","key","j","16.651669724770702","768","428","j","true","img/S_ambi40.png","常人","image_first",""
"","","","","","html-keyboard-response","236","458704","0.0-13.0-0.0-1.0-0.0-1.38","null","<span style='color:GreenYellow; font-size: 70px;'>正确! </span>","null","","","","","","","","","","","","","","","","","","","","","","","feedback_test"
"","","","","","psychophysics","237","460766","0.0-13.0-0.0-1.0-0.0-0.39","909","","j","","","","","","","","","","","","","key","j","16.650104838709776","768","428","j","true","img/S_ambi40.png","坏人","image_first",""
"","","","","","html-keyboard-response","238","461073","0.0-13.0-0.0-1.0-0.0-1.39","null","<span style='color:GreenYellow; font-size: 70px;'>正确! </span>","null","","","","","","","","","","","","","","","","","","","","","","","feedback_test"
"","","","","","psychophysics","239","462866","0.0-13.0-0.0-1.0-0.0-0.40","634","","j","","","","","","","","","","","","","key","j","16.650336448598228","768","428","j","true","img/T_ambi40.png","好人","image_first",""
"","","","","","html-keyboard-response","240","463171","0.0-13.0-0.0-1.0-0.0-1.40","null","<span style='color:GreenYellow; font-size: 70px;'>正确! </span>","null","","","","","","","","","","","","","","","","","","","","","","","feedback_test"
"","","","","","psychophysics","241","464827","0.0-13.0-0.0-1.0-0.0-0.41","499","","f","","","","","","","","","","","","","key","f","16.651142857142617","768","428","f","true","img/S_ambi40.png","好人","image_first",""
"","","","","","html-keyboard-response","242","465131","0.0-13.0-0.0-1.0-0.0-1.41","null","<span style='color:GreenYellow; font-size: 70px;'>正确! </span>","null","","","","","","","","","","","","","","","","","","","","","","","feedback_test"
"","","","","","psychophysics","243","466789","0.0-13.0-0.0-1.0-0.0-0.42","504","","f","","","","","","","","","","","","","key","f","16.651470000000554","768","428","f","true","img/S_ambi40.png","好人","image_first",""
"","","","","","html-keyboard-response","244","467103","0.0-13.0-0.0-1.0-0.0-1.42","null","<span style='color:GreenYellow; font-size: 70px;'>正确! </span>","null","","","","","","","","","","","","","","","","","","","","","","","feedback_test"
"","","","","","psychophysics","245","468839","0.0-13.0-0.0-1.0-0.0-0.43","584","","j","","","","","","","","","","","","","key","j","16.65081553398044","768","428","j","true","img/T_ambi40.png","坏人","image_first",""
"","","","","","html-keyboard-response","246","469145","0.0-13.0-0.0-1.0-0.0-1.43","null","<span style='color:GreenYellow; font-size: 70px;'>正确! </span>","null","","","","","","","","","","","","","","","","","","","","","","","feedback_test"
"","","","","","psychophysics","247","471070","0.0-13.0-0.0-1.0-0.0-0.44","772","","j","","","","","","","","","","","","","key","j","16.65149565217409","768","428","j","true","img/C_ambi40.png","常人","image_first",""
"","","","","","html-keyboard-response","248","471377","0.0-13.0-0.0-1.0-0.0-1.44","null","<span style='color:GreenYellow; font-size: 70px;'>正确! </span>","null","","","","","","","","","","","","","","","","","","","","","","","feedback_test"
"","","","","","psychophysics","249","473076","0.0-13.0-0.0-1.0-0.0-0.45","547","","f","","","","","","","","","","","","","key","f","16.816089108910777","768","428","f","true","img/T_ambi40.png","常人","image_first",""
"","","","","","html-keyboard-response","250","473397","0.0-13.0-0.0-1.0-0.0-1.45","null","<span style='color:GreenYellow; font-size: 70px;'>正确! </span>","null","","","","","","","","","","","","","","","","","","","","","","","feedback_test"
"","","","","","psychophysics","251","475165","0.0-13.0-0.0-1.0-0.0-0.46","614","","j","","","","","","","","","","","","","key","j","16.651819047618968","768","428","j","true","img/C_ambi40.png","好人","image_first",""
"","","","","","html-keyboard-response","252","475473","0.0-13.0-0.0-1.0-0.0-1.46","null","<span style='color:GreenYellow; font-size: 70px;'>正确! </span>","null","","","","","","","","","","","","","","","","","","","","","","","feedback_test"
"","","","","","psychophysics","253","477106","0.0-13.0-0.0-1.0-0.0-0.47","480","","f","","","","","","","","","","","","","key","f","16.65200000000006","768","428","f","true","img/T_ambi40.png","常人","image_first",""
"","","","","","html-keyboard-response","254","477413","0.0-13.0-0.0-1.0-0.0-1.47","null","<span style='color:GreenYellow; font-size: 70px;'>正确! </span>","null","","","","","","","","","","","","","","","","","","","","","","","feedback_test"
"","","","","","psychophysics","255","479139","0.0-13.0-0.0-1.0-0.0-0.48","572","","j","","","","","","","","","","","","","key","j","16.650902912621408","768","428","j","true","img/S_ambi40.png","常人","image_first",""
"","","","","","html-keyboard-response","256","479450","0.0-13.0-0.0-1.0-0.0-1.48","null","<span style='color:GreenYellow; font-size: 70px;'>正确! </span>","null","","","","","","","","","","","","","","","","","","","","","","","feedback_test"
"","","","","","psychophysics","257","481132","0.0-13.0-0.0-1.0-0.0-0.49","526","","f","","","","","","","","","","","","","key","f","16.650623762376703","768","428","f","true","img/T_ambi40.png","常人","image_first",""
"","","","","","html-keyboard-response","258","481440","0.0-13.0-0.0-1.0-0.0-1.49","null","<span style='color:GreenYellow; font-size: 70px;'>正确! </span>","null","","","","","","","","","","","","","","","","","","","","","","","feedback_test"
"","","","","","psychophysics","259","483331","0.0-13.0-0.0-1.0-0.0-0.50","739","","j","","","","","","","","","","","","","key","j","16.651017699115066","768","428","j","true","img/T_ambi40.png","好人","image_first",""
"","","","","","html-keyboard-response","260","483646","0.0-13.0-0.0-1.0-0.0-1.50","null","<span style='color:GreenYellow; font-size: 70px;'>正确! </span>","null","","","","","","","","","","","","","","","","","","","","","","","feedback_test"
"","","","","","psychophysics","261","485342","0.0-13.0-0.0-1.0-0.0-0.51","542","","j","","","","","","","","","","","","","key","j","16.650852941176353","768","428","j","true","img/S_ambi40.png","坏人","image_first",""
"","","","","","html-keyboard-response","262","485662","0.0-13.0-0.0-1.0-0.0-1.51","null","<span style='color:GreenYellow; font-size: 70px;'>正确! </span>","null","","","","","","","","","","","","","","","","","","","","","","","feedback_test"
"","","","","","psychophysics","263","487437","0.0-13.0-0.0-1.0-0.0-0.52","622","","j","","","","","","","","","","","","","key","j","16.651869158878505","768","428","j","true","img/C_ambi40.png","常人","image_first",""
"","","","","","html-keyboard-response","264","487752","0.0-13.0-0.0-1.0-0.0-1.52","null","<span style='color:GreenYellow; font-size: 70px;'>正确! </span>","null","","","","","","","","","","","","","","","","","","","","","","","feedback_test"
"","","","","","psychophysics","265","489532","0.0-13.0-0.0-1.0-0.0-0.53","621","","f","","","","","","","","","","","","","key","f","16.65164485981331","768","428","f","true","img/T_ambi40.png","常人","image_first",""
"","","","","","html-keyboard-response","266","489844","0.0-13.0-0.0-1.0-0.0-1.53","null","<span style='color:GreenYellow; font-size: 70px;'>正确! </span>","null","","","","","","","","","","","","","","","","","","","","","","","feedback_test"
"","","","","","psychophysics","267","491715","0.0-13.0-0.0-1.0-0.0-0.54","720","","j","","","","","","","","","","","","","key","j","16.527675675675546","768","428","j","true","img/C_ambi40.png","好人","image_first",""
"","","","","","html-keyboard-response","268","492029","0.0-13.0-0.0-1.0-0.0-1.54","null","<span style='color:GreenYellow; font-size: 70px;'>正确! </span>","null","","","","","","","","","","","","","","","","","","","","","","","feedback_test"
"","","","","","psychophysics","269","493718","0.0-13.0-0.0-1.0-0.0-0.55","534","","j","","","","","","","","","","","","","key","j","16.650653465346682","768","428","f","false","img/S_ambi40.png","好人","image_first",""
"","","","","","html-keyboard-response","270","494037","0.0-13.0-0.0-1.0-0.0-1.55","null","<span style='color:red; font-size: 70px;'>错误! </span>","null","","","","","","","","","","","","","","","","","","","","","","","feedback_test"
"","","","","","psychophysics","271","495738","0.0-13.0-0.0-1.0-0.0-0.56","547","","f","","","","","","","","","","","","","key","f","16.65071568627472","768","428","f","true","img/S_ambi40.png","好人","image_first",""
"","","","","","html-keyboard-response","272","496053","0.0-13.0-0.0-1.0-0.0-1.56","null","<span style='color:GreenYellow; font-size: 70px;'>正确! </span>","null","","","","","","","","","","","","","","","","","","","","","","","feedback_test"
"","","","","","psychophysics","273","497957","0.0-13.0-0.0-1.0-0.0-0.57","749","","j","","","","","","","","","","","","","key","j","16.65103508771924","768","428","j","true","img/T_ambi40.png","坏人","image_first",""
"","","","","","html-keyboard-response","274","498272","0.0-13.0-0.0-1.0-0.0-1.57","null","<span style='color:GreenYellow; font-size: 70px;'>正确! </span>","null","","","","","","","","","","","","","","","","","","","","","","","feedback_test"
"","","","","","psychophysics","275","500008","0.0-13.0-0.0-1.0-0.0-0.58","576","","f","","","","","","","","","","","","","key","f","16.65052427184481","768","428","f","true","img/C_ambi40.png","坏人","image_first",""
"","","","","","html-keyboard-response","276","500313","0.0-13.0-0.0-1.0-0.0-1.58","null","<span style='color:GreenYellow; font-size: 70px;'>正确! </span>","null","","","","","","","","","","","","","","","","","","","","","","","feedback_test"
"","","","","","psychophysics","277","501978","0.0-13.0-0.0-1.0-0.0-0.59","509","","j","","","","","","","","","","","","","key","j","16.650650000000024","768","428","f","false","img/C_ambi40.png","坏人","image_first",""
"","","","","","html-keyboard-response","278","502297","0.0-13.0-0.0-1.0-0.0-1.59","null","<span style='color:red; font-size: 70px;'>错误! </span>","null","","","","","","","","","","","","","","","","","","","","","","","feedback_test"
"","","","","","html-keyboard-response","279","508891","0.0-13.0-0.0-1.0-1.0","6592","<style>.context{color:white; font-size: 35px; line-height:40px}</style>                              <div><p class='context'>您正确回答了90% 的试次。</p><p class='context'>您的平均反应时为574毫秒。</p><p class='context'>请按任意键进入休息</p></div>","arrowdown","","","","","","","","","","","","","","","","","","","","","","",""
"","","","","","html-button-response","280","543499","0.0-13.0-0.0-1.0-2.0","34606","
                      <p>您当前还剩余3组实验</p>
                      <p>现在是休息时间，当您结束休息后，您可以点击 结束休息 按钮 继续</p>
                      <p>建议休息时间还剩余<span id=""iii"">60</span>秒</p>","0","","","","","","","","","","","","","","","","","","","","","","",""
"","","","","","psychophysics","281","545150","0.0-13.0-0.0-1.0-0.1-0.60","496","","f","","","","","","","","","","","","","key","f","16.652877551021188","768","428","f","true","img/S_ambi40.png","好人","image_first",""
"","","","","","html-keyboard-response","282","545467","0.0-13.0-0.0-1.0-0.1-1.60","null","<span style='color:GreenYellow; font-size: 70px;'>正确! </span>","null","","","","","","","","","","","","","","","","","","","","","","","feedback_test"
"","","","","","psychophysics","283","547270","0.0-13.0-0.0-1.0-0.1-0.61","648","","j","","","","","","","","","","","","","key","j","16.648601851851843","768","428","j","true","img/C_ambi40.png","常人","image_first",""
"","","","","","html-keyboard-response","284","547583","0.0-13.0-0.0-1.0-0.1-1.61","null","<span style='color:GreenYellow; font-size: 70px;'>正确! </span>","null","","","","","","","","","","","","","","","","","","","","","","","feedback_test"
"","","","","","psychophysics","285","549062","0.0-13.0-0.0-1.0-0.1-0.62","327","","f","","","","","","","","","","","","","key","f","16.650528089887608","768","428","f","true","img/T_ambi40.png","常人","image_first",""
"","","","","","html-keyboard-response","286","549380","0.0-13.0-0.0-1.0-0.1-1.62","null","<span style='color:GreenYellow; font-size: 70px;'>正确! </span>","null","","","","","","","","","","","","","","","","","","","","","","","feedback_test"
"","","","","","psychophysics","287","551033","0.0-13.0-0.0-1.0-0.1-0.63","499","","j","","","","","","","","","","","","","key","j","16.65247474747564","768","428","j","true","img/T_ambi40.png","坏人","image_first",""
"","","","","","html-keyboard-response","288","551343","0.0-13.0-0.0-1.0-0.1-1.63","null","<span style='color:GreenYellow; font-size: 70px;'>正确! </span>","null","","","","","","","","","","","","","","","","","","","","","","","feedback_test"
"","","","","","psychophysics","289","553094","0.0-13.0-0.0-1.0-0.1-0.64","598","","j","","","","","","","","","","","","","key","j","16.65063809523736","768","428","j","true","img/T_ambi40.png","好人","image_first",""
"","","","","","html-keyboard-response","290","553407","0.0-13.0-0.0-1.0-0.1-1.64","null","<span style='color:GreenYellow; font-size: 70px;'>正确! </span>","null","","","","","","","","","","","","","","","","","","","","","","","feedback_test"
"","","","","","psychophysics","291","554947","0.0-13.0-0.0-1.0-0.1-0.65","379","","f","","","","","","","","","","","","","key","f","16.65085869565171","768","428","f","true","img/T_ambi40.png","常人","image_first",""
"","","","","","html-keyboard-response","292","555256","0.0-13.0-0.0-1.0-0.1-1.65","null","<span style='color:GreenYellow; font-size: 70px;'>正确! </span>","null","","","","","","","","","","","","","","","","","","","","","","","feedback_test"
"","","","","","psychophysics","293","556940","0.0-13.0-0.0-1.0-0.1-0.66","525","","j","","","","","","","","","","","","","key","j","16.65132673267312","768","428","j","true","img/S_ambi40.png","常人","image_first",""
"","","","","","html-keyboard-response","294","557255","0.0-13.0-0.0-1.0-0.1-1.66","null","<span style='color:GreenYellow; font-size: 70px;'>正确! </span>","null","","","","","","","","","","","","","","","","","","","","","","","feedback_test"
"","","","","","psychophysics","295","559070","0.0-13.0-0.0-1.0-0.1-0.67","664","","j","","","","","","","","","","","","","key","j","16.650834862385246","768","428","f","false","img/C_ambi40.png","坏人","image_first",""
"","","","","","html-keyboard-response","296","559383","0.0-13.0-0.0-1.0-0.1-1.67","null","<span style='color:red; font-size: 70px;'>错误! </span>","null","","","","","","","","","","","","","","","","","","","","","","","feedback_test"
"","","","","","psychophysics","297","560991","0.0-13.0-0.0-1.0-0.1-0.68","456","","f","","","","","","","","","","","","","key","f","16.652062499999982","768","428","f","true","img/S_ambi40.png","好人","image_first",""
"","","","","","html-keyboard-response","298","561304","0.0-13.0-0.0-1.0-0.1-1.68","null","<span style='color:GreenYellow; font-size: 70px;'>正确! </span>","null","","","","","","","","","","","","","","","","","","","","","","","feedback_test"
"","","","","","psychophysics","299","563151","0.0-13.0-0.0-1.0-0.1-0.69","689","","j","","","","","","","","","","","","","key","j","16.654227272726978","768","428","j","true","img/S_ambi40.png","坏人","image_first",""
"","","","","","html-keyboard-response","300","563457","0.0-13.0-0.0-1.0-0.1-1.69","null","<span style='color:GreenYellow; font-size: 70px;'>正确! </span>","null","","","","","","","","","","","","","","","","","","","","","","","feedback_test"
"","","","","","psychophysics","301","565170","0.0-13.0-0.0-1.0-0.1-0.70","560","","f","","","","","","","","","","","","","key","f","16.649922330097468","768","428","f","true","img/C_ambi40.png","坏人","image_first",""
"","","","","","html-keyboard-response","302","565490","0.0-13.0-0.0-1.0-0.1-1.70","null","<span style='color:GreenYellow; font-size: 70px;'>正确! </span>","null","","","","","","","","","","","","","","","","","","","","","","","feedback_test"
"","","","","","psychophysics","303","567032","0.0-13.0-0.0-1.0-0.1-0.71","390","","f","","","","","","","","","","","","","key","f","16.65089130434891","768","428","j","false","img/C_ambi40.png","好人","image_first",""
"","","","","","html-keyboard-response","304","567338","0.0-13.0-0.0-1.0-0.1-1.71","null","<span style='color:red; font-size: 70px;'>错误! </span>","null","","","","","","","","","","","","","","","","","","","","","","","feedback_test"
"","","","","","psychophysics","305","569120","0.0-13.0-0.0-1.0-0.1-0.72","624","","j","","","","","","","","","","","","","key","j","16.650390476191284","768","428","j","true","img/T_ambi40.png","好人","image_first",""
"","","","","","html-keyboard-response","306","569433","0.0-13.0-0.0-1.0-0.1-1.72","null","<span style='color:GreenYellow; font-size: 70px;'>正确! </span>","null","","","","","","","","","","","","","","","","","","","","","","","feedback_test"
"","","","","","psychophysics","307","571275","0.0-13.0-0.0-1.0-0.1-0.73","688","","j","","","","","","","","","","","","","key","j","16.650954954954376","768","428","j","true","img/C_ambi40.png","常人","image_first",""
"","","","","","html-keyboard-response","308","571590","0.0-13.0-0.0-1.0-0.1-1.73","null","<span style='color:GreenYellow; font-size: 70px;'>正确! </span>","null","","","","","","","","","","","","","","","","","","","","","","","feedback_test"
"","","","","","psychophysics","309","573598","0.0-13.0-0.0-1.0-0.1-0.74","856","","j","","","","","","","","","","","","","key","j","16.65055462184945","768","428","j","true","img/C_ambi40.png","好人","image_first",""
"","","","","","html-keyboard-response","310","573908","0.0-13.0-0.0-1.0-0.1-1.74","null","<span style='color:GreenYellow; font-size: 70px;'>正确! </span>","null","","","","","","","","","","","","","","","","","","","","","","","feedback_test"
"","","","","","psychophysics","311","575531","0.0-13.0-0.0-1.0-0.1-0.75","468","","f","","","","","","","","","","","","","key","f","16.65178124999996","768","428","f","true","img/S_ambi40.png","好人","image_first",""
"","","","","","html-keyboard-response","312","575851","0.0-13.0-0.0-1.0-0.1-1.75","null","<span style='color:GreenYellow; font-size: 70px;'>正确! </span>","null","","","","","","","","","","","","","","","","","","","","","","","feedback_test"
"","","","","","psychophysics","313","577719","0.0-13.0-0.0-1.0-0.1-0.76","712","","f","","","","","","","","","","","","","key","f","16.652499999999627","768","428","f","true","img/C_ambi40.png","坏人","image_first",""
"","","","","","html-keyboard-response","314","578029","0.0-13.0-0.0-1.0-0.1-1.76","null","<span style='color:GreenYellow; font-size: 70px;'>正确! </span>","null","","","","","","","","","","","","","","","","","","","","","","","feedback_test"
"","","","","","psychophysics","315","579683","0.0-13.0-0.0-1.0-0.1-0.77","504","","f","","","","","","","","","","","","","key","f","16.651686868686795","768","428","f","true","img/C_ambi40.png","坏人","image_first",""
"","","","","","html-keyboard-response","316","580000","0.0-13.0-0.0-1.0-0.1-1.77","null","<span style='color:GreenYellow; font-size: 70px;'>正确! </span>","null","","","","","","","","","","","","","","","","","","","","","","","feedback_test"
"","","","","","psychophysics","317","581643","0.0-13.0-0.0-1.0-0.1-0.78","483","","f","","","","","","","","","","","","","key","f","16.651402061855535","768","428","f","true","img/S_ambi40.png","好人","image_first",""
"","","","","","html-keyboard-response","318","581958","0.0-13.0-0.0-1.0-0.1-1.78","null","<span style='color:GreenYellow; font-size: 70px;'>正确! </span>","null","","","","","","","","","","","","","","","","","","","","","","","feedback_test"
"","","","","","psychophysics","319","583672","0.0-13.0-0.0-1.0-0.1-0.79","563","","f","","","","","","","","","","","","","key","f","16.53020792079301","768","428","f","true","img/T_ambi40.png","常人","image_first",""
"","","","","","html-keyboard-response","320","583985","0.0-13.0-0.0-1.0-0.1-1.79","null","<span style='color:GreenYellow; font-size: 70px;'>正确! </span>","null","","","","","","","","","","","","","","","","","","","","","","","feedback_test"
"","","","","","psychophysics","321","585698","0.0-13.0-0.0-1.0-0.1-0.80","558","","j","","","","","","","","","","","","","key","j","16.650378640777276","768","428","j","true","img/S_ambi40.png","常人","image_first",""
"","","","","","html-keyboard-response","322","586009","0.0-13.0-0.0-1.0-0.1-1.80","null","<span style='color:GreenYellow; font-size: 70px;'>正确! </span>","null","","","","","","","","","","","","","","","","","","","","","","","feedback_test"
"","","","","","psychophysics","323","587824","0.0-13.0-0.0-1.0-0.1-0.81","658","","j","","","","","","","","","","","","","key","j","16.651045871559965","768","428","j","true","img/S_ambi40.png","坏人","image_first",""
"","","","","","html-keyboard-response","324","588129","0.0-13.0-0.0-1.0-0.1-1.81","null","<span style='color:GreenYellow; font-size: 70px;'>正确! </span>","null","","","","","","","","","","","","","","","","","","","","","","","feedback_test"
"","","","","","psychophysics","325","589939","0.0-13.0-0.0-1.0-0.1-0.82","652","","j","","","","","","","","","","","","","key","j","16.650564814814263","768","428","j","true","img/T_ambi40.png","坏人","image_first",""
"","","","","","html-keyboard-response","326","590258","0.0-13.0-0.0-1.0-0.1-1.82","null","<span style='color:GreenYellow; font-size: 70px;'>正确! </span>","null","","","","","","","","","","","","","","","","","","","","","","","feedback_test"
"","","","","","psychophysics","327","592121","0.0-13.0-0.0-1.0-0.1-0.83","706","","j","","","","","","","","","","","","","key","j","16.650205357143673","768","428","f","false","img/T_ambi40.png","常人","image_first",""
"","","","","","html-keyboard-response","328","592424","0.0-13.0-0.0-1.0-0.1-1.83","null","<span style='color:red; font-size: 70px;'>错误! </span>","null","","","","","","","","","","","","","","","","","","","","","","","feedback_test"
"","","","","","psychophysics","329","594025","0.0-13.0-0.0-1.0-0.1-0.84","442","","f","","","","","","","","","","","","","key","f","16.651166666667752","768","428","f","true","img/T_ambi40.png","常人","image_first",""
"","","","","","html-keyboard-response","330","594332","0.0-13.0-0.0-1.0-0.1-1.84","null","<span style='color:GreenYellow; font-size: 70px;'>正确! </span>","null","","","","","","","","","","","","","","","","","","","","","","","feedback_test"
"","","","","","psychophysics","331","596122","0.0-13.0-0.0-1.0-0.1-0.85","640","","j","","","","","","","","","","","","","key","j","16.650364485981648","768","428","j","true","img/C_ambi40.png","常人","image_first",""
"","","","","","html-keyboard-response","332","596444","0.0-13.0-0.0-1.0-0.1-1.85","null","<span style='color:GreenYellow; font-size: 70px;'>正确! </span>","null","","","","","","","","","","","","","","","","","","","","","","","feedback_test"
"","","","","","psychophysics","333","598166","0.0-13.0-0.0-1.0-0.1-0.86","570","","j","","","","","","","","","","","","","key","j","16.65077450980464","768","428","j","true","img/S_ambi40.png","坏人","image_first",""
"","","","","","html-keyboard-response","334","598484","0.0-13.0-0.0-1.0-0.1-1.86","null","<span style='color:GreenYellow; font-size: 70px;'>正确! </span>","null","","","","","","","","","","","","","","","","","","","","","","","feedback_test"
"","","","","","psychophysics","335","600446","0.0-13.0-0.0-1.0-0.1-0.87","807","","f","","","","","","","","","","","","","key","f","16.651694915253447","768","428","f","true","img/S_ambi40.png","好人","image_first",""
"","","","","","html-keyboard-response","336","600758","0.0-13.0-0.0-1.0-0.1-1.87","null","<span style='color:GreenYellow; font-size: 70px;'>正确! </span>","null","","","","","","","","","","","","","","","","","","","","","","","feedback_test"
"","","","","","psychophysics","337","602478","0.0-13.0-0.0-1.0-0.1-0.88","569","","j","","","","","","","","","","","","","key","j","16.651568627451756","768","428","j","true","img/C_ambi40.png","好人","image_first",""
"","","","","","html-keyboard-response","338","602790","0.0-13.0-0.0-1.0-0.1-1.88","null","<span style='color:GreenYellow; font-size: 70px;'>正确! </span>","null","","","","","","","","","","","","","","","","","","","","","","","feedback_test"
"","","","","","psychophysics","339","604545","0.0-13.0-0.0-1.0-0.1-0.89","602","","j","","","","","","","","","","","","","key","j","16.65045714285668","768","428","j","true","img/S_ambi40.png","常人","image_first",""
"","","","","","html-keyboard-response","340","604847","0.0-13.0-0.0-1.0-0.1-1.89","null","<span style='color:GreenYellow; font-size: 70px;'>正确! </span>","null","","","","","","","","","","","","","","","","","","","","","","","feedback_test"
"","","","","","psychophysics","341","606566","0.0-13.0-0.0-1.0-0.1-0.90","567","","f","","","","","","","","","","","","","key","f","16.647427184465432","768","428","f","true","img/C_ambi40.png","坏人","image_first",""
"","","","","","html-keyboard-response","342","606877","0.0-13.0-0.0-1.0-0.1-1.90","null","<span style='color:GreenYellow; font-size: 70px;'>正确! </span>","null","","","","","","","","","","","","","","","","","","","","","","","feedback_test"
"","","","","","psychophysics","343","608682","0.0-13.0-0.0-1.0-0.1-0.91","647","","f","","","","","","","","","","","","","key","f","16.65218691588771","768","428","f","true","img/S_ambi40.png","好人","image_first",""
"","","","","","html-keyboard-response","344","608991","0.0-13.0-0.0-1.0-0.1-1.91","null","<span style='color:GreenYellow; font-size: 70px;'>正确! </span>","null","","","","","","","","","","","","","","","","","","","","","","","feedback_test"
"","","","","","psychophysics","345","610615","0.0-13.0-0.0-1.0-0.1-0.92","471","","f","","","","","","","","","","","","","key","f","16.65095876288581","768","428","f","true","img/C_ambi40.png","坏人","image_first",""
"","","","","","html-keyboard-response","346","610930","0.0-13.0-0.0-1.0-0.1-1.92","null","<span style='color:GreenYellow; font-size: 70px;'>正确! </span>","null","","","","","","","","","","","","","","","","","","","","","","","feedback_test"
"","","","","","psychophysics","347","612622","0.0-13.0-0.0-1.0-0.1-0.93","540","","j","","","","","","","","","","","","","key","j","16.81520792079218","768","428","j","true","img/T_ambi40.png","坏人","image_first",""
"","","","","","html-keyboard-response","348","612933","0.0-13.0-0.0-1.0-0.1-1.93","null","<span style='color:GreenYellow; font-size: 70px;'>正确! </span>","null","","","","","","","","","","","","","","","","","","","","","","","feedback_test"
"","","","","","psychophysics","349","614627","0.0-13.0-0.0-1.0-0.1-0.94","541","","f","","","","","","","","","","","","","key","f","16.651613861385798","768","428","f","true","img/T_ambi40.png","常人","image_first",""
"","","","","","html-keyboard-response","350","614943","0.0-13.0-0.0-1.0-0.1-1.94","null","<span style='color:GreenYellow; font-size: 70px;'>正确! </span>","null","","","","","","","","","","","","","","","","","","","","","","","feedback_test"
"","","","","","psychophysics","351","616635","0.0-13.0-0.0-1.0-0.1-0.95","540","","j","","","","","","","","","","","","","key","j","16.815910891089175","768","428","j","true","img/T_ambi40.png","好人","image_first",""
"","","","","","html-keyboard-response","352","616957","0.0-13.0-0.0-1.0-0.1-1.95","null","<span style='color:GreenYellow; font-size: 70px;'>正确! </span>","null","","","","","","","","","","","","","","","","","","","","","","","feedback_test"
"","","","","","psychophysics","353","618634","0.0-13.0-0.0-1.0-0.1-0.96","525","","j","","","","","","","","","","","","","key","j","16.81676000000094","768","428","j","true","img/C_ambi40.png","常人","image_first",""
"","","","","","html-keyboard-response","354","618952","0.0-13.0-0.0-1.0-0.1-1.96","null","<span style='color:GreenYellow; font-size: 70px;'>正确! </span>","null","","","","","","","","","","","","","","","","","","","","","","","feedback_test"
"","","","","","psychophysics","355","620539","0.0-13.0-0.0-1.0-0.1-0.97","429","","f","","","","","","","","","","","","","key","f","16.65001052631629","768","428","f","true","img/S_ambi40.png","好人","image_first",""
"","","","","","html-keyboard-response","356","620840","0.0-13.0-0.0-1.0-0.1-1.97","null","<span style='color:GreenYellow; font-size: 70px;'>正确! </span>","null","","","","","","","","","","","","","","","","","","","","","","","feedback_test"
"","","","","","psychophysics","357","622708","0.0-13.0-0.0-1.0-0.1-0.98","717","","j","","","","","","","","","","","","","key","j","16.65121428571417","768","428","j","true","img/T_ambi40.png","坏人","image_first",""
"","","","","","html-keyboard-response","358","623020","0.0-13.0-0.0-1.0-0.1-1.98","null","<span style='color:GreenYellow; font-size: 70px;'>正确! </span>","null","","","","","","","","","","","","","","","","","","","","","","","feedback_test"
"","","","","","psychophysics","359","624913","0.0-13.0-0.0-1.0-0.1-0.99","742","","f","","","","","","","","","","","","","key","f","16.64917857142843","768","428","f","true","img/C_ambi40.png","坏人","image_first",""
"","","","","","html-keyboard-response","360","625218","0.0-13.0-0.0-1.0-0.1-1.99","null","<span style='color:GreenYellow; font-size: 70px;'>正确! </span>","null","","","","","","","","","","","","","","","","","","","","","","","feedback_test"
"","","","","","psychophysics","361","626977","0.0-13.0-0.0-1.0-0.1-0.100","607","","j","","","","","","","","","","","","","key","j","16.650019047619953","768","428","j","true","img/C_ambi40.png","好人","image_first",""
"","","","","","html-keyboard-response","362","627285","0.0-13.0-0.0-1.0-0.1-1.100","null","<span style='color:GreenYellow; font-size: 70px;'>正确! </span>","null","","","","","","","","","","","","","","","","","","","","","","","feedback_test"
"","","","","","psychophysics","363","628883","0.0-13.0-0.0-1.0-0.1-0.101","444","","f","","","","","","","","","","","","","key","f","16.650284210526337","768","428","f","true","img/C_ambi40.png","坏人","image_first",""
"","","","","","html-keyboard-response","364","629189","0.0-13.0-0.0-1.0-0.1-1.101","null","<span style='color:GreenYellow; font-size: 70px;'>正确! </span>","null","","","","","","","","","","","","","","","","","","","","","","","feedback_test"
"","","","","","psychophysics","365","630820","0.0-13.0-0.0-1.0-0.1-0.102","476","","f","","","","","","","","","","","","","key","f","16.650443298969005","768","428","f","true","img/S_ambi40.png","好人","image_first",""
"","","","","","html-keyboard-response","366","631136","0.0-13.0-0.0-1.0-0.1-1.102","null","<span style='color:GreenYellow; font-size: 70px;'>正确! </span>","null","","","","","","","","","","","","","","","","","","","","","","","feedback_test"
"","","","","","psychophysics","367","632983","0.0-13.0-0.0-1.0-0.1-0.103","688","","j","","","","","","","","","","","","","key","j","16.651854545454793","768","428","j","true","img/S_ambi40.png","常人","image_first",""
"","","","","","html-keyboard-response","368","633301","0.0-13.0-0.0-1.0-0.1-1.103","null","<span style='color:GreenYellow; font-size: 70px;'>正确! </span>","null","","","","","","","","","","","","","","","","","","","","","","","feedback_test"
"","","","","","psychophysics","369","635148","0.0-13.0-0.0-1.0-0.1-0.104","694","","j","","","","","","","","","","","","","key","j","16.65169369369359","768","428","j","true","img/T_ambi40.png","好人","image_first",""
"","","","","","html-keyboard-response","370","635449","0.0-13.0-0.0-1.0-0.1-1.104","null","<span style='color:GreenYellow; font-size: 70px;'>正确! </span>","null","","","","","","","","","","","","","","","","","","","","","","","feedback_test"
"","","","","","psychophysics","371","637155","0.0-13.0-0.0-1.0-0.1-0.105","548","","f","","","","","","","","","","","","","key","f","16.653352941176397","768","428","f","true","img/T_ambi40.png","常人","image_first",""
"","","","","","html-keyboard-response","372","637469","0.0-13.0-0.0-1.0-0.1-1.105","null","<span style='color:GreenYellow; font-size: 70px;'>正确! </span>","null","","","","","","","","","","","","","","","","","","","","","","","feedback_test"
"","","","","","psychophysics","373","639251","0.0-13.0-0.0-1.0-0.1-0.106","628","","j","","","","","","","","","","","","","key","j","16.651056074766903","768","428","j","true","img/S_ambi40.png","坏人","image_first",""
"","","","","","html-keyboard-response","374","639560","0.0-13.0-0.0-1.0-0.1-1.106","null","<span style='color:GreenYellow; font-size: 70px;'>正确! </span>","null","","","","","","","","","","","","","","","","","","","","","","","feedback_test"
"","","","","","psychophysics","375","641342","0.0-13.0-0.0-1.0-0.1-0.107","623","","f","","","","","","","","","","","","","key","f","16.65217757009396","768","428","f","true","img/T_ambi40.png","常人","image_first",""
"","","","","","html-keyboard-response","376","641649","0.0-13.0-0.0-1.0-0.1-1.107","null","<span style='color:GreenYellow; font-size: 70px;'>正确! </span>","null","","","","","","","","","","","","","","","","","","","","","","","feedback_test"
"","","","","","psychophysics","377","643359","0.0-13.0-0.0-1.0-0.1-0.108","556","","j","","","","","","","","","","","","","key","j","16.65246078431465","768","428","j","true","img/C_ambi40.png","好人","image_first",""
"","","","","","html-keyboard-response","378","643671","0.0-13.0-0.0-1.0-0.1-1.108","null","<span style='color:GreenYellow; font-size: 70px;'>正确! </span>","null","","","","","","","","","","","","","","","","","","","","","","","feedback_test"
"","","","","","psychophysics","379","645504","0.0-13.0-0.0-1.0-0.1-0.109","681","","f","","","","","","","","","","","","","key","f","16.65037272727244","768","428","f","true","img/T_ambi40.png","常人","image_first",""
"","","","","","html-keyboard-response","380","645811","0.0-13.0-0.0-1.0-0.1-1.109","null","<span style='color:GreenYellow; font-size: 70px;'>正确! </span>","null","","","","","","","","","","","","","","","","","","","","","","","feedback_test"
"","","","","","psychophysics","381","647467","0.0-13.0-0.0-1.0-0.1-0.110","501","","j","","","","","","","","","","","","","key","j","16.650770000000485","768","428","j","true","img/S_ambi40.png","常人","image_first",""
"","","","","","html-keyboard-response","382","647788","0.0-13.0-0.0-1.0-0.1-1.110","null","<span style='color:GreenYellow; font-size: 70px;'>正确! </span>","null","","","","","","","","","","","","","","","","","","","","","","","feedback_test"
"","","","","","psychophysics","383","649356","0.0-13.0-0.0-1.0-0.1-0.111","414","","f","","","","","","","","","","","","","key","f","16.651752688172174","768","428","f","true","img/T_ambi40.png","常人","image_first",""
"","","","","","html-keyboard-response","384","649678","0.0-13.0-0.0-1.0-0.1-1.111","null","<span style='color:GreenYellow; font-size: 70px;'>正确! </span>","null","","","","","","","","","","","","","","","","","","","","","","","feedback_test"
"","","","","","psychophysics","385","651300","0.0-13.0-0.0-1.0-0.1-0.112","471","","j","","","","","","","","","","","","","key","j","16.650278350515965","768","428","j","true","img/T_ambi40.png","坏人","image_first",""
"","","","","","html-keyboard-response","386","651604","0.0-13.0-0.0-1.0-0.1-1.112","null","<span style='color:GreenYellow; font-size: 70px;'>正确! </span>","null","","","","","","","","","","","","","","","","","","","","","","","feedback_test"
"","","","","","psychophysics","387","653225","0.0-13.0-0.0-1.0-0.1-0.113","466","","j","","","","","","","","","","","","","key","j","16.650144329897042","768","428","j","true","img/T_ambi40.png","好人","image_first",""
"","","","","","html-keyboard-response","388","653534","0.0-13.0-0.0-1.0-0.1-1.113","null","<span style='color:GreenYellow; font-size: 70px;'>正确! </span>","null","","","","","","","","","","","","","","","","","","","","","","","feedback_test"
"","","","","","psychophysics","389","655218","0.0-13.0-0.0-1.0-0.1-0.114","531","","j","","","","","","","","","","","","","key","j","16.65146999999997","768","428","j","true","img/C_ambi40.png","常人","image_first",""
"","","","","","html-keyboard-response","390","655541","0.0-13.0-0.0-1.0-0.1-1.114","null","<span style='color:GreenYellow; font-size: 70px;'>正确! </span>","null","","","","","","","","","","","","","","","","","","","","","","","feedback_test"
"","","","","","psychophysics","391","657164","0.0-13.0-0.0-1.0-0.1-0.115","469","","f","","","","","","","","","","","","","key","f","16.651329896907257","768","428","f","true","img/S_ambi40.png","好人","image_first",""
"","","","","","html-keyboard-response","392","657465","0.0-13.0-0.0-1.0-0.1-1.115","null","<span style='color:GreenYellow; font-size: 70px;'>正确! </span>","null","","","","","","","","","","","","","","","","","","","","","","","feedback_test"
"","","","","","psychophysics","393","659059","0.0-13.0-0.0-1.0-0.1-0.116","437","","f","","","","","","","","","","","","","key","f","16.652708333333674","768","428","f","true","img/C_ambi40.png","坏人","image_first",""
"","","","","","html-keyboard-response","394","659378","0.0-13.0-0.0-1.0-0.1-1.116","null","<span style='color:GreenYellow; font-size: 70px;'>正确! </span>","null","","","","","","","","","","","","","","","","","","","","","","","feedback_test"
"","","","","","psychophysics","395","661311","0.0-13.0-0.0-1.0-0.1-0.117","776","","f","","","","","","","","","","","","","key","f","16.65013043478273","768","428","f","true","img/C_ambi40.png","坏人","image_first",""
"","","","","","html-keyboard-response","396","661624","0.0-13.0-0.0-1.0-0.1-1.117","null","<span style='color:GreenYellow; font-size: 70px;'>正确! </span>","null","","","","","","","","","","","","","","","","","","","","","","","feedback_test"
"","","","","","psychophysics","397","663389","0.0-13.0-0.0-1.0-0.1-0.118","606","","j","","","","","","","","","","","","","key","j","16.650462264151155","768","428","j","true","img/S_ambi40.png","坏人","image_first",""
"","","","","","html-keyboard-response","398","663710","0.0-13.0-0.0-1.0-0.1-1.118","null","<span style='color:GreenYellow; font-size: 70px;'>正确! </span>","null","","","","","","","","","","","","","","","","","","","","","","","feedback_test"
"","","","","","psychophysics","399","665331","0.0-13.0-0.0-1.0-0.1-0.119","467","","f","","","","","","","","","","","","","key","f","16.651195876288334","768","428","f","true","img/S_ambi40.png","好人","image_first",""
"","","","","","html-keyboard-response","400","665651","0.0-13.0-0.0-1.0-0.1-1.119","null","<span style='color:GreenYellow; font-size: 70px;'>正确! </span>","null","","","","","","","","","","","","","","","","","","","","","","","feedback_test"
"","","","","","html-keyboard-response","401","667564","0.0-13.0-0.0-1.0-1.1","1912","<style>.context{color:white; font-size: 35px; line-height:40px}</style>                              <div><p class='context'>您正确回答了95% 的试次。</p><p class='context'>您的平均反应时为568毫秒。</p><p class='context'>请按任意键进入休息</p></div>","arrowdown","","","","","","","","","","","","","","","","","","","","","","",""
"","","","","","html-button-response","402","699216","0.0-13.0-0.0-1.0-2.1","31645","
                      <p>您当前还剩余2组实验</p>
                      <p>现在是休息时间，当您结束休息后，您可以点击 结束休息 按钮 继续</p>
                      <p>建议休息时间还剩余<span id=""iii"">60</span>秒</p>","0","","","","","","","","","","","","","","","","","","","","","","",""
"","","","","","psychophysics","403","701880","0.0-13.0-0.0-1.0-0.2-0.120","null","","null","","","","","","","","","","","","","key","null","16.651245283018564","768","428","j","false","img/C_ambi40.png","常人","image_first",""
"","","","","","html-keyboard-response","404","702189","0.0-13.0-0.0-1.0-0.2-1.120","null","<span class='add_' style='color:yellow; font-size: 70px;'> 太慢! </span>","null","","","","","","","","","","","","","","","","","","","","","","","feedback_test"
"","","","","","psychophysics","405","703971","0.0-13.0-0.0-1.0-0.2-0.121","628","","f","","","","","","","","","","","","","key","f","16.651401869158445","768","428","f","true","img/C_ambi40.png","坏人","image_first",""
"","","","","","html-keyboard-response","406","704278","0.0-13.0-0.0-1.0-0.2-1.121","null","<span style='color:GreenYellow; font-size: 70px;'>正确! </span>","null","","","","","","","","","","","","","","","","","","","","","","","feedback_test"
"","","","","","psychophysics","407","706010","0.0-13.0-0.0-1.0-0.2-0.122","580","","f","","","","","","","","","","","","","key","f","16.648728155338848","768","428","f","true","img/T_ambi40.png","常人","image_first",""
"","","","","","html-keyboard-response","408","706315","0.0-13.0-0.0-1.0-0.2-1.122","null","<span style='color:GreenYellow; font-size: 70px;'>正确! </span>","null","","","","","","","","","","","","","","","","","","","","","","","feedback_test"
"","","","","","psychophysics","409","707940","0.0-13.0-0.0-1.0-0.2-0.123","468","","f","","","","","","","","","","","","","key","f","16.651536082474458","768","428","f","true","img/T_ambi40.png","常人","image_first",""
"","","","","","html-keyboard-response","410","708259","0.0-13.0-0.0-1.0-0.2-1.123","null","<span style='color:GreenYellow; font-size: 70px;'>正确! </span>","null","","","","","","","","","","","","","","","","","","","","","","","feedback_test"
"","","","","","psychophysics","411","709879","0.0-13.0-0.0-1.0-0.2-0.124","464","","j","","","","","","","","","","","","","key","j","16.652123711340742","768","428","j","true","img/T_ambi40.png","坏人","image_first",""
"","","","","","html-keyboard-response","412","710196","0.0-13.0-0.0-1.0-0.2-1.124","null","<span style='color:GreenYellow; font-size: 70px;'>正确! </span>","null","","","","","","","","","","","","","","","","","","","","","","","feedback_test"
"","","","","","psychophysics","413","711859","0.0-13.0-0.0-1.0-0.2-0.125","507","","j","","","","","","","","","","","","","key","j","16.651330000000307","768","428","j","true","img/S_ambi40.png","坏人","image_first",""
"","","","","","html-keyboard-response","414","712174","0.0-13.0-0.0-1.0-0.2-1.125","null","<span style='color:GreenYellow; font-size: 70px;'>正确! </span>","null","","","","","","","","","","","","","","","","","","","","","","","feedback_test"
"","","","","","psychophysics","415","713952","0.0-13.0-0.0-1.0-0.2-0.126","624","","f","","","","","","","","","","","","","key","f","16.649466666666836","768","428","f","true","img/S_ambi40.png","好人","image_first",""
"","","","","","html-keyboard-response","416","714257","0.0-13.0-0.0-1.0-0.2-1.126","null","<span style='color:GreenYellow; font-size: 70px;'>正确! </span>","null","","","","","","","","","","","","","","","","","","","","","","","feedback_test"
"","","","","","psychophysics","417","715923","0.0-13.0-0.0-1.0-0.2-0.127","508","","f","","","","","","","","","","","","","key","f","16.65018999999971","768","428","f","true","img/C_ambi40.png","坏人","image_first",""
"","","","","","html-keyboard-response","418","716238","0.0-13.0-0.0-1.0-0.2-1.127","null","<span style='color:GreenYellow; font-size: 70px;'>正确! </span>","null","","","","","","","","","","","","","","","","","","","","","","","feedback_test"
"","","","","","psychophysics","419","717838","0.0-13.0-0.0-1.0-0.2-0.128","447","","j","","","","","","","","","","","","","key","j","16.650927083332743","768","428","f","false","img/S_ambi40.png","好人","image_first",""
"","","","","","html-keyboard-response","420","718157","0.0-13.0-0.0-1.0-0.2-1.128","null","<span style='color:red; font-size: 70px;'>错误! </span>","null","","","","","","","","","","","","","","","","","","","","","","","feedback_test"
"","","","","","psychophysics","421","719816","0.0-13.0-0.0-1.0-0.2-0.129","504","","j","","","","","","","","","","","","","key","j","16.65127272727297","768","428","j","true","img/T_ambi40.png","好人","image_first",""
"","","","","","html-keyboard-response","422","720121","0.0-13.0-0.0-1.0-0.2-1.129","null","<span style='color:GreenYellow; font-size: 70px;'>正确! </span>","null","","","","","","","","","","","","","","","","","","","","","","","feedback_test"
"","","","","","psychophysics","423","721900","0.0-13.0-0.0-1.0-0.2-0.130","620","","j","","","","","","","","","","","","","key","j","16.65049532710283","768","428","j","true","img/S_ambi40.png","常人","image_first",""
"","","","","","html-keyboard-response","424","722208","0.0-13.0-0.0-1.0-0.2-1.130","null","<span style='color:GreenYellow; font-size: 70px;'>正确! </span>","null","","","","","","","","","","","","","","","","","","","","","","","feedback_test"
"","","","","","psychophysics","425","724118","0.0-13.0-0.0-1.0-0.2-0.131","759","","j","","","","","","","","","","","","","key","j","16.652070175438688","768","428","j","true","img/C_ambi40.png","好人","image_first",""
"","","","","","html-keyboard-response","426","724429","0.0-13.0-0.0-1.0-0.2-1.131","null","<span style='color:GreenYellow; font-size: 70px;'>正确! </span>","null","","","","","","","","","","","","","","","","","","","","","","","feedback_test"
"","","","","","psychophysics","427","726234","0.0-13.0-0.0-1.0-0.2-0.132","650","","f","","","","","","","","","","","","","key","f","16.65218691588771","768","428","j","false","img/C_ambi40.png","好人","image_first",""
"","","","","","html-keyboard-response","428","726548","0.0-13.0-0.0-1.0-0.2-1.132","null","<span style='color:red; font-size: 70px;'>错误! </span>","null","","","","","","","","","","","","","","","","","","","","","","","feedback_test"
"","","","","","psychophysics","429","728415","0.0-13.0-0.0-1.0-0.2-0.133","711","","j","","","","","","","","","","","","","key","j","16.650455357142032","768","428","j","true","img/T_ambi40.png","坏人","image_first",""
"","","","","","html-keyboard-response","430","728731","0.0-13.0-0.0-1.0-0.2-1.133","null","<span style='color:GreenYellow; font-size: 70px;'>正确! </span>","null","","","","","","","","","","","","","","","","","","","","","","","feedback_test"
"","","","","","psychophysics","431","730448","0.0-13.0-0.0-1.0-0.2-0.134","561","","j","","","","","","","","","","","","","key","j","16.651137254901652","768","428","j","true","img/T_ambi40.png","好人","image_first",""
