"success","timeout","failed_images","failed_audio","failed_video","trial_type","trial_index","time_elapsed","internal_node_id","rt","stimulus","response","value","item_width_mm","item_height_mm","item_width_px","px2mm","view_dist_mm","item_width_deg","px2deg","scale_factor","win_width_deg","win_height_deg","view_history","response_type","key_press","avg_frame_time","center_x","center_y","correct_response","correct","Image","word","condition","screen_id"
"true","false","[]","[]","[]","preload","0","2","0.0-0.0","","","","","","","","","","","","","","","","","","","","","","","","","",""
"","","","","","html-keyboard-response","1","3501","0.0-1.0","3499","
     <p>您好，欢迎参加本次实验。</p>
     <p>为充分保障您的权利，请确保您已经知晓并同意《参与实验同意书》以及《数据公开知情同意书》。</p>
     <p>如果您未见过上述内容，请咨询实验员。</p>
     <p>如果您选择继续实验，则表示您已经清楚两份知情同意书的内容并同意。</p>
     <p> <div style = ""color: green""><按任意键至下页></div> </p>
     "," ","","","","","","","","","","","","","","","","","","","","","","",""
"","","","","","html-keyboard-response","2","3867","0.0-2.0","366","
     <p>本实验首先需要您填写一些基本个人信息。</p>
     <p> <div style = ""color: green""><按任意键至下页></div></p>
     "," ","","","","","","","","","","","","","","","","","","","","","","",""
"","","","","","call-function","3","3867","0.0-3.0-0.0","","","","","","","","","","","","","","","","","","","","","","","","","",""
"","","","","","survey-html-form","4","7309","0.0-3.0-1.0","3441","","{""Q0"":""17""}","","","","","","","","","","","","","","","","","","","","","","",""
"","","","","","html-button-response","5","8227","0.0-3.0-2.0","917","<p style = 'color : white'>您的性别</p>","1","","","","","","","","","","","","","","","","","","","","","","",""
"","","","","","survey-html-form","6","11114","0.0-3.0-3.0","2886","","{""Q0"":""2002""}","","","","","","","","","","","","","","","","","","","","","","",""
"","","","","","survey-html-form","7","13074","0.0-3.0-4.0","1958","","{""Q0"":""5""}","","","","","","","","","","","","","","","","","","","","","","",""
"","","","","","virtual-chinrest","8","44604","0.0-4.0","31529","","","","85.6","53.98","573.9366241132271","6.704743512106133","425.84","11.478732482264544","50","0.7561810516458343","27.86","15.28","","","","","","","","","","","",""
"true","","","","","fullscreen","9","47091","0.0-5.0","","","","","","","","","","","","","","","","","","","","","","","","","",""
"","","","","","instructions","10","65011","0.0-6.0","17918","","","","","","","","","","","","","","[{""page_index"":0,""viewing_time"":2838},{""page_index"":1,""viewing_time"":8738},{""page_index"":2,""viewing_time"":4230},{""page_index"":3,""viewing_time"":2112}]","","","","","","","","","","",""
"","","","","","psychophysics","11","66865","0.0-7.0-0.0-0.0","696","","j","","","","","","","","","","","","","key","j","16.66599999999995","720","446","j","true","img/T_ambi40.png","好人","prac_image_first",""
"","","","","","html-keyboard-response","12","67171","0.0-7.0-0.0-1.0","null","<span style='color:GreenYellow; font-size: 70px;'>正确! </span>","null","","","","","","","","","","","","","","","","","","","","","","","feedback_test"
"","","","","","psychophysics","13","68961","0.0-7.0-0.0-0.1","632","","j","","","","","","","","","","","","","key","j","16.666000000000047","720","446","f","false","img/S_ambi40.png","坏人","prac_image_first",""
"","","","","","html-keyboard-response","14","69266","0.0-7.0-0.0-1.1","null","<span style='color:red; font-size: 70px;'>错误! </span>","null","","","","","","","","","","","","","","","","","","","","","","","feedback_test"
"","","","","","psychophysics","15","71294","0.0-7.0-0.0-0.2","869","","f","","","","","","","","","","","","","key","f","16.665999999999986","720","446","f","true","img/T_ambi40.png","坏人","prac_image_first",""
"","","","","","html-keyboard-response","16","71600","0.0-7.0-0.0-1.2","null","<span style='color:GreenYellow; font-size: 70px;'>正确! </span>","null","","","","","","","","","","","","","","","","","","","","","","","feedback_test"
"","","","","","psychophysics","17","73505","0.0-7.0-0.0-0.3","743","","f","","","","","","","","","","","","","key","f","16.666000000000015","720","446","f","true","img/S_ambi40.png","好人","prac_image_first",""
"","","","","","html-keyboard-response","18","73812","0.0-7.0-0.0-1.3","null","<span style='color:GreenYellow; font-size: 70px;'>正确! </span>","null","","","","","","","","","","","","","","","","","","","","","","","feedback_test"
"","","","","","psychophysics","19","75668","0.0-7.0-0.0-0.4","703","","j","","","","","","","","","","","","","key","j","16.66599999999995","720","446","f","false","img/T_ambi40.png","常人","prac_image_first",""
"","","","","","html-keyboard-response","20","75976","0.0-7.0-0.0-1.4","null","<span style='color:red; font-size: 70px;'>错误! </span>","null","","","","","","","","","","","","","","","","","","","","","","","feedback_test"
"","","","","","psychophysics","21","77829","0.0-7.0-0.0-0.5","699","","j","","","","","","","","","","","","","key","j","16.66599999999995","720","446","j","true","img/T_ambi40.png","好人","prac_image_first",""
"","","","","","html-keyboard-response","22","78137","0.0-7.0-0.0-1.5","null","<span style='color:GreenYellow; font-size: 70px;'>正确! </span>","null","","","","","","","","","","","","","","","","","","","","","","","feedback_test"
"","","","","","psychophysics","23","80142","0.0-7.0-0.0-0.6","846","","j","","","","","","","","","","","","","key","j","16.673974789915917","720","446","j","true","img/S_ambi40.png","常人","prac_image_first",""
"","","","","","html-keyboard-response","24","80447","0.0-7.0-0.0-1.6","null","<span style='color:GreenYellow; font-size: 70px;'>正确! </span>","null","","","","","","","","","","","","","","","","","","","","","","","feedback_test"
"","","","","","psychophysics","25","82279","0.0-7.0-0.0-0.7","670","","f","","","","","","","","","","","","","key","f","16.666","720","446","j","false","img/C_ambi40.png","坏人","prac_image_first",""
"","","","","","html-keyboard-response","26","82589","0.0-7.0-0.0-1.7","null","<span style='color:red; font-size: 70px;'>错误! </span>","null","","","","","","","","","","","","","","","","","","","","","","","feedback_test"
"","","","","","psychophysics","27","84279","0.0-7.0-0.0-0.8","533","","j","","","","","","","","","","","","","key","j","16.666000000000057","720","446","f","false","img/C_ambi40.png","常人","prac_image_first",""
"","","","","","html-keyboard-response","28","84587","0.0-7.0-0.0-1.8","null","<span style='color:red; font-size: 70px;'>错误! </span>","null","","","","","","","","","","","","","","","","","","","","","","","feedback_test"
"","","","","","psychophysics","29","86738","0.0-7.0-0.0-0.9","992","","f","","","","","","","","","","","","","key","f","16.666000000000054","720","446","j","false","img/S_ambi40.png","常人","prac_image_first",""
"","","","","","html-keyboard-response","30","87049","0.0-7.0-0.0-1.9","null","<span style='color:red; font-size: 70px;'>错误! </span>","null","","","","","","","","","","","","","","","","","","","","","","","feedback_test"
"","","","","","psychophysics","31","88896","0.0-7.0-0.0-0.10","685","","f","","","","","","","","","","","","","key","f","16.665999999999976","720","446","j","false","img/C_ambi40.png","坏人","prac_image_first",""
"","","","","","html-keyboard-response","32","89201","0.0-7.0-0.0-1.10","null","<span style='color:red; font-size: 70px;'>错误! </span>","null","","","","","","","","","","","","","","","","","","","","","","","feedback_test"
"","","","","","psychophysics","33","90908","0.0-7.0-0.0-0.11","546","","j","","","","","","","","","","","","","key","j","16.666000000000032","720","446","f","false","img/C_ambi40.png","好人","prac_image_first",""
"","","","","","html-keyboard-response","34","91217","0.0-7.0-0.0-1.11","null","<span style='color:red; font-size: 70px;'>错误! </span>","null","","","","","","","","","","","","","","","","","","","","","","","feedback_test"
"","","","","","psychophysics","35","93338","0.0-7.0-0.0-0.12","960","","f","","","","","","","","","","","","","key","f","16.66599999999998","720","446","f","true","img/C_ambi40.png","常人","prac_image_first",""
"","","","","","html-keyboard-response","36","93648","0.0-7.0-0.0-1.12","null","<span style='color:GreenYellow; font-size: 70px;'>正确! </span>","null","","","","","","","","","","","","","","","","","","","","","","","feedback_test"
"","","","","","psychophysics","37","96021","0.0-7.0-0.0-0.13","1221","","f","","","","","","","","","","","","","key","f","16.666000000000018","720","446","j","false","img/S_ambi40.png","常人","prac_image_first",""
"","","","","","html-keyboard-response","38","96332","0.0-7.0-0.0-1.13","null","<span style='color:red; font-size: 70px;'>错误! </span>","null","","","","","","","","","","","","","","","","","","","","","","","feedback_test"
"","","","","","psychophysics","39","98669","0.0-7.0-0.0-0.14","1180","","j","","","","","","","","","","","","","key","j","16.67278417266192","720","446","f","false","img/T_ambi40.png","常人","prac_image_first",""
"","","","","","html-keyboard-response","40","98977","0.0-7.0-0.0-1.14","null","<span style='color:red; font-size: 70px;'>错误! </span>","null","","","","","","","","","","","","","","","","","","","","","","","feedback_test"
"","","","","","psychophysics","41","101180","0.0-7.0-0.0-0.15","1049","","f","","","","","","","","","","","","","key","f","16.665999999999993","720","446","f","true","img/S_ambi40.png","好人","prac_image_first",""
"","","","","","html-keyboard-response","42","101492","0.0-7.0-0.0-1.15","null","<span style='color:GreenYellow; font-size: 70px;'>正确! </span>","null","","","","","","","","","","","","","","","","","","","","","","","feedback_test"
"","","","","","psychophysics","43","103855","0.0-7.0-0.0-0.16","1208","","j","","","","","","","","","","","","","key","j","16.666000000000018","720","446","f","false","img/T_ambi40.png","坏人","prac_image_first",""
"","","","","","html-keyboard-response","44","104164","0.0-7.0-0.0-1.16","null","<span style='color:red; font-size: 70px;'>错误! </span>","null","","","","","","","","","","","","","","","","","","","","","","","feedback_test"
"","","","","","psychophysics","45","106423","0.0-7.0-0.0-0.17","1102","","f","","","","","","","","","","","","","key","f","16.666000000000047","720","446","j","false","img/S_ambi40.png","常人","prac_image_first",""
"","","","","","html-keyboard-response","46","106732","0.0-7.0-0.0-1.17","null","<span style='color:red; font-size: 70px;'>错误! </span>","null","","","","","","","","","","","","","","","","","","","","","","","feedback_test"
"","","","","","psychophysics","47","108818","0.0-7.0-0.0-0.18","931","","j","","","","","","","","","","","","","key","j","16.66600000000002","720","446","j","true","img/C_ambi40.png","坏人","prac_image_first",""
"","","","","","html-keyboard-response","48","109123","0.0-7.0-0.0-1.18","null","<span style='color:GreenYellow; font-size: 70px;'>正确! </span>","null","","","","","","","","","","","","","","","","","","","","","","","feedback_test"
"","","","","","psychophysics","49","111047","0.0-7.0-0.0-0.19","767","","f","","","","","","","","","","","","","key","f","16.666000000000096","720","446","f","true","img/C_ambi40.png","好人","prac_image_first",""
"","","","","","html-keyboard-response","50","111355","0.0-7.0-0.0-1.19","null","<span style='color:GreenYellow; font-size: 70px;'>正确! </span>","null","","","","","","","","","","","","","","","","","","","","","","","feedback_test"
"","","","","","psychophysics","51","113356","0.0-7.0-0.0-0.20","843","","f","","","","","","","","","","","","","key","f","16.666000000000007","720","446","j","false","img/T_ambi40.png","好人","prac_image_first",""
"","","","","","html-keyboard-response","52","113667","0.0-7.0-0.0-1.20","null","<span style='color:red; font-size: 70px;'>错误! </span>","null","","","","","","","","","","","","","","","","","","","","","","","feedback_test"
"","","","","","psychophysics","53","115520","0.0-7.0-0.0-0.21","694","","f","","","","","","","","","","","","","key","f","16.666000000000086","720","446","j","false","img/C_ambi40.png","坏人","prac_image_first",""
"","","","","","html-keyboard-response","54","115824","0.0-7.0-0.0-1.21","null","<span style='color:red; font-size: 70px;'>错误! </span>","null","","","","","","","","","","","","","","","","","","","","","","","feedback_test"
"","","","","","psychophysics","55","118074","0.0-7.0-0.0-0.22","1095","","f","","","","","","","","","","","","","key","f","16.666000000000047","720","446","f","true","img/S_ambi40.png","坏人","prac_image_first",""
"","","","","","html-keyboard-response","56","118388","0.0-7.0-0.0-1.22","null","<span style='color:GreenYellow; font-size: 70px;'>正确! </span>","null","","","","","","","","","","","","","","","","","","","","","","","feedback_test"
"","","","","","psychophysics","57","120183","0.0-7.0-0.0-0.23","638","","j","","","","","","","","","","","","","key","j","16.674831775701023","720","446","j","true","img/T_ambi40.png","好人","prac_image_first",""
"","","","","","html-keyboard-response","58","120491","0.0-7.0-0.0-1.23","null","<span style='color:GreenYellow; font-size: 70px;'>正确! </span>","null","","","","","","","","","","","","","","","","","","","","","","","feedback_test"
"","","","","","html-keyboard-response","59","123767","0.0-7.0-1.0-0.0","3271","<style>.context{color:white; font-size: 35px; line-height:40px}</style>                              <div><p class='context'>您正确回答了46% 的试次。</p><p class='context'>您的平均反应时为845毫秒。</p>","j","","","","","","","","","","","","","","","","","","","","","","",""
"","","","","","instructions","60","136693","0.0-7.0-1.0-1.0","12921","","","","","","","","","","","","","","[{""page_index"":0,""viewing_time"":2518},{""page_index"":1,""viewing_time"":8547},{""page_index"":2,""viewing_time"":1856}]","","","","","","","","","","",""
"","","","","","psychophysics","61","138637","0.0-7.1-0.1-0.24","789","","f","","","","","","","","","","","","","key","f","16.666000000000224","720","446","f","true","img/T_ambi40.png","常人","prac_image_first",""
"","","","","","html-keyboard-response","62","138947","0.0-7.1-0.1-1.24","null","<span style='color:GreenYellow; font-size: 70px;'>正确! </span>","null","","","","","","","","","","","","","","","","","","","","","","","feedback_test"
"","","","","","psychophysics","63","140953","0.0-7.1-0.1-0.25","849","","j","","","","","","","","","","","","","key","j","16.66600000000013","720","446","f","false","img/C_ambi40.png","常人","prac_image_first",""
"","","","","","html-keyboard-response","64","141260","0.0-7.1-0.1-1.25","null","<span style='color:red; font-size: 70px;'>错误! </span>","null","","","","","","","","","","","","","","","","","","","","","","","feedback_test"
"","","","","","psychophysics","65","143352","0.0-7.1-0.1-0.26","938","","f","","","","","","","","","","","","","key","f","16.666","720","446","j","false","img/S_ambi40.png","常人","prac_image_first",""
"","","","","","html-keyboard-response","66","143655","0.0-7.1-0.1-1.26","null","<span style='color:red; font-size: 70px;'>错误! </span>","null","","","","","","","","","","","","","","","","","","","","","","","feedback_test"
"","","","","","psychophysics","67","145519","0.0-7.1-0.1-0.27","711","","j","","","","","","","","","","","","","key","j","16.66600000000006","720","446","j","true","img/S_ambi40.png","常人","prac_image_first",""
"","","","","","html-keyboard-response","68","145825","0.0-7.1-0.1-1.27","null","<span style='color:GreenYellow; font-size: 70px;'>正确! </span>","null","","","","","","","","","","","","","","","","","","","","","","","feedback_test"
"","","","","","psychophysics","69","147641","0.0-7.1-0.1-0.28","661","","f","","","","","","","","","","","","","key","f","16.665999999999865","720","446","f","true","img/C_ambi40.png","好人","prac_image_first",""
"","","","","","html-keyboard-response","70","147947","0.0-7.1-0.1-1.28","null","<span style='color:GreenYellow; font-size: 70px;'>正确! </span>","null","","","","","","","","","","","","","","","","","","","","","","","feedback_test"
"","","","","","psychophysics","71","149952","0.0-7.1-0.1-0.29","852","","f","","","","","","","","","","","","","key","f","16.665999999999883","720","446","j","false","img/T_ambi40.png","好人","prac_image_first",""
"","","","","","html-keyboard-response","72","150258","0.0-7.1-0.1-1.29","null","<span style='color:red; font-size: 70px;'>错误! </span>","null","","","","","","","","","","","","","","","","","","","","","","","feedback_test"
"","","","","","psychophysics","73","152319","0.0-7.1-0.1-0.30","905","","f","","","","","","","","","","","","","key","f","16.666000000000043","720","446","f","true","img/S_ambi40.png","好人","prac_image_first",""
"","","","","","html-keyboard-response","74","152625","0.0-7.1-0.1-1.30","null","<span style='color:GreenYellow; font-size: 70px;'>正确! </span>","null","","","","","","","","","","","","","","","","","","","","","","","feedback_test"
"","","","","","psychophysics","75","154757","0.0-7.1-0.1-0.31","977","","j","","","","","","","","","","","","","key","j","16.67354330708668","720","446","j","true","img/C_ambi40.png","坏人","prac_image_first",""
"","","","","","html-keyboard-response","76","155064","0.0-7.1-0.1-1.31","null","<span style='color:GreenYellow; font-size: 70px;'>正确! </span>","null","","","","","","","","","","","","","","","","","","","","","","","feedback_test"
"","","","","","psychophysics","77","156888","0.0-7.1-0.1-0.32","663","","j","","","","","","","","","","","","","key","j","16.665999999999865","720","446","j","true","img/C_ambi40.png","坏人","prac_image_first",""
"","","","","","html-keyboard-response","78","157193","0.0-7.1-0.1-1.32","null","<span style='color:GreenYellow; font-size: 70px;'>正确! </span>","null","","","","","","","","","","","","","","","","","","","","","","","feedback_test"
"","","","","","psychophysics","79","158904","0.0-7.1-0.1-0.33","557","","f","","","","","","","","","","","","","key","f","16.666000000000007","720","446","f","true","img/T_ambi40.png","坏人","prac_image_first",""
"","","","","","html-keyboard-response","80","159209","0.0-7.1-0.1-1.33","null","<span style='color:GreenYellow; font-size: 70px;'>正确! </span>","null","","","","","","","","","","","","","","","","","","","","","","","feedback_test"
"","","","","","psychophysics","81","161001","0.0-7.1-0.1-0.34","639","","j","","","","","","","","","","","","","key","j","16.665999999999887","720","446","j","true","img/T_ambi40.png","好人","prac_image_first",""
"","","","","","html-keyboard-response","82","161304","0.0-7.1-0.1-1.34","null","<span style='color:GreenYellow; font-size: 70px;'>正确! </span>","null","","","","","","","","","","","","","","","","","","","","","","","feedback_test"
"","","","","","psychophysics","83","163097","0.0-7.1-0.1-0.35","633","","f","","","","","","","","","","","","","key","f","16.66599999999991","720","446","f","true","img/S_ambi40.png","坏人","prac_image_first",""
"","","","","","html-keyboard-response","84","163408","0.0-7.1-0.1-1.35","null","<span style='color:GreenYellow; font-size: 70px;'>正确! </span>","null","","","","","","","","","","","","","","","","","","","","","","","feedback_test"
"","","","","","psychophysics","85","165439","0.0-7.1-0.1-0.36","875","","j","","","","","","","","","","","","","key","j","16.666000000000086","720","446","f","false","img/S_ambi40.png","好人","prac_image_first",""
"","","","","","html-keyboard-response","86","165747","0.0-7.1-0.1-1.36","null","<span style='color:red; font-size: 70px;'>错误! </span>","null","","","","","","","","","","","","","","","","","","","","","","","feedback_test"
"","","","","","psychophysics","87","167807","0.0-7.1-0.1-0.37","903","","j","","","","","","","","","","","","","key","j","16.666000000000064","720","446","f","false","img/S_ambi40.png","坏人","prac_image_first",""
"","","","","","html-keyboard-response","88","168116","0.0-7.1-0.1-1.37","null","<span style='color:red; font-size: 70px;'>错误! </span>","null","","","","","","","","","","","","","","","","","","","","","","","feedback_test"
"","","","","","psychophysics","89","170089","0.0-7.1-0.1-0.38","817","","f","","","","","","","","","","","","","key","f","16.665999999999926","720","446","j","false","img/S_ambi40.png","常人","prac_image_first",""
"","","","","","html-keyboard-response","90","170396","0.0-7.1-0.1-1.38","null","<span style='color:red; font-size: 70px;'>错误! </span>","null","","","","","","","","","","","","","","","","","","","","","","","feedback_test"
"","","","","","psychophysics","91","172723","0.0-7.1-0.1-0.39","1171","","f","","","","","","","","","","","","","key","f","16.66599999999997","720","446","f","true","img/T_ambi40.png","坏人","prac_image_first",""
"","","","","","html-keyboard-response","92","173035","0.0-7.1-0.1-1.39","null","<span style='color:GreenYellow; font-size: 70px;'>正确! </span>","null","","","","","","","","","","","","","","","","","","","","","","","feedback_test"
"","","","","","psychophysics","93","175034","0.0-7.1-0.1-0.40","843","","j","","","","","","","","","","","","","key","j","16.673915966386524","720","446","j","true","img/C_ambi40.png","坏人","prac_image_first",""
"","","","","","html-keyboard-response","94","175347","0.0-7.1-0.1-1.40","null","<span style='color:GreenYellow; font-size: 70px;'>正确! </span>","null","","","","","","","","","","","","","","","","","","","","","","","feedback_test"
"","","","","","psychophysics","95","177316","0.0-7.1-0.1-0.41","818","","f","","","","","","","","","","","","","key","f","16.665999999999926","720","446","j","false","img/T_ambi40.png","好人","prac_image_first",""
"","","","","","html-keyboard-response","96","177628","0.0-7.1-0.1-1.41","null","<span style='color:red; font-size: 70px;'>错误! </span>","null","","","","","","","","","","","","","","","","","","","","","","","feedback_test"
"","","","","","psychophysics","97","179376","0.0-7.1-0.1-0.42","596","","j","","","","","","","","","","","","","key","j","16.665999999999958","720","446","j","true","img/S_ambi40.png","常人","prac_image_first",""
"","","","","","html-keyboard-response","98","179682","0.0-7.1-0.1-1.42","null","<span style='color:GreenYellow; font-size: 70px;'>正确! </span>","null","","","","","","","","","","","","","","","","","","","","","","","feedback_test"
"","","","","","psychophysics","99","181942","0.0-7.1-0.1-0.43","1101","","f","","","","","","","","","","","","","key","f","16.665999999999826","720","446","f","true","img/C_ambi40.png","常人","prac_image_first",""
"","","","","","html-keyboard-response","100","182252","0.0-7.1-0.1-1.43","null","<span style='color:GreenYellow; font-size: 70px;'>正确! </span>","null","","","","","","","","","","","","","","","","","","","","","","","feedback_test"
"","","","","","psychophysics","101","184370","0.0-7.1-0.1-0.44","961","","f","","","","","","","","","","","","","key","f","16.66599999999998","720","446","f","true","img/T_ambi40.png","常人","prac_image_first",""
"","","","","","html-keyboard-response","102","184680","0.0-7.1-0.1-1.44","null","<span style='color:GreenYellow; font-size: 70px;'>正确! </span>","null","","","","","","","","","","","","","","","","","","","","","","","feedback_test"
"","","","","","psychophysics","103","186735","0.0-7.1-0.1-0.45","901","","j","","","","","","","","","","","","","key","j","16.66976229508205","720","446","j","true","img/C_ambi40.png","坏人","prac_image_first",""
"","","","","","html-keyboard-response","104","187042","0.0-7.1-0.1-1.45","null","<span style='color:GreenYellow; font-size: 70px;'>正确! </span>","null","","","","","","","","","","","","","","","","","","","","","","","feedback_test"
"","","","","","psychophysics","105","188759","0.0-7.1-0.1-0.46","562","","j","","","","","","","","","","","","","key","j","16.666000000000007","720","446","f","false","img/C_ambi40.png","好人","prac_image_first",""
"","","","","","html-keyboard-response","106","189063","0.0-7.1-0.1-1.46","null","<span style='color:red; font-size: 70px;'>错误! </span>","null","","","","","","","","","","","","","","","","","","","","","","","feedback_test"
"","","","","","psychophysics","107","191129","0.0-7.1-0.1-0.47","913","","j","","","","","","","","","","","","","key","j","16.666000000000064","720","446","j","true","img/T_ambi40.png","好人","prac_image_first",""
"","","","","","html-keyboard-response","108","191434","0.0-7.1-0.1-1.47","null","<span style='color:GreenYellow; font-size: 70px;'>正确! </span>","null","","","","","","","","","","","","","","","","","","","","","","","feedback_test"
"","","","","","html-keyboard-response","109","193571","0.0-8.0","2133","<style>.context{color:white; font-size: 35px; line-height:40px}</style>                              <div><p class='context'>您正确回答了67% 的试次。</p><p class='context'>您的平均反应时为814毫秒。</p><p class='context'>恭喜您完成这一阶段的练习。按任意键进入<span style='color: yellow;'>先文字后图形条件</span>的练习。</p></div>","j","","","","","","","","","","","","","","","","","","","","","","",""
"","","","","","psychophysics","110","195270","0.0-9.0-0.0-0.0","541","","j","","","","","","","","","","","","","key","j","16.666000000000032","720","446","j","true","img/T_ambi40.png","好人","prac_word_first",""
"","","","","","html-keyboard-response","111","195576","0.0-9.0-0.0-1.0","null","<span style='color:GreenYellow; font-size: 70px;'>正确! </span>","null","","","","","","","","","","","","","","","","","","","","","","","feedback_test"
"","","","","","psychophysics","112","197502","0.0-9.0-0.0-0.1","772","","f","","","","","","","","","","","","","key","f","16.66599999999997","720","446","j","false","img/C_ambi40.png","坏人","prac_word_first",""
"","","","","","html-keyboard-response","113","197811","0.0-9.0-0.0-1.1","null","<span style='color:red; font-size: 70px;'>错误! </span>","null","","","","","","","","","","","","","","","","","","","","","","","feedback_test"
"","","","","","psychophysics","114","199354","0.0-9.0-0.0-0.2","391","","j","","","","","","","","","","","","","key","j","16.66599999999997","720","446","j","true","img/S_ambi40.png","常人","prac_word_first",""
"","","","","","html-keyboard-response","115","199666","0.0-9.0-0.0-1.2","null","<span style='color:GreenYellow; font-size: 70px;'>正确! </span>","null","","","","","","","","","","","","","","","","","","","","","","","feedback_test"
"","","","","","psychophysics","116","201504","0.0-9.0-0.0-0.3","679","","j","","","","","","","","","","","","","key","j","16.66600000000011","720","446","f","false","img/S_ambi40.png","好人","prac_word_first",""
"","","","","","html-keyboard-response","117","201812","0.0-9.0-0.0-1.3","null","<span style='color:red; font-size: 70px;'>错误! </span>","null","","","","","","","","","","","","","","","","","","","","","","","feedback_test"
"","","","","","psychophysics","118","203801","0.0-9.0-0.0-0.4","838","","f","","","","","","","","","","","","","key","f","16.666000000000153","720","446","f","true","img/T_ambi40.png","常人","prac_word_first",""
"","","","","","html-keyboard-response","119","204105","0.0-9.0-0.0-1.4","null","<span style='color:GreenYellow; font-size: 70px;'>正确! </span>","null","","","","","","","","","","","","","","","","","","","","","","","feedback_test"
"","","","","","psychophysics","120","206037","0.0-9.0-0.0-0.5","773","","j","","","","","","","","","","","","","key","j","16.67431304347828","720","446","f","false","img/C_ambi40.png","好人","prac_word_first",""
"","","","","","html-keyboard-response","121","206347","0.0-9.0-0.0-1.5","null","<span style='color:red; font-size: 70px;'>错误! </span>","null","","","","","","","","","","","","","","","","","","","","","","","feedback_test"
"","","","","","psychophysics","122","208372","0.0-9.0-0.0-0.6","873","","f","","","","","","","","","","","","","key","f","16.666000000000107","720","446","f","true","img/T_ambi40.png","坏人","prac_word_first",""
"","","","","","html-keyboard-response","123","208682","0.0-9.0-0.0-1.6","null","<span style='color:GreenYellow; font-size: 70px;'>正确! </span>","null","","","","","","","","","","","","","","","","","","","","","","","feedback_test"
"","","","","","psychophysics","124","210571","0.0-9.0-0.0-0.7","732","","f","","","","","","","","","","","","","key","f","16.666000000000036","720","446","f","true","img/S_ambi40.png","坏人","prac_word_first",""
"","","","","","html-keyboard-response","125","210882","0.0-9.0-0.0-1.7","null","<span style='color:GreenYellow; font-size: 70px;'>正确! </span>","null","","","","","","","","","","","","","","","","","","","","","","","feedback_test"
"","","","","","psychophysics","126","212775","0.0-9.0-0.0-0.8","734","","f","","","","","","","","","","","","","key","f","16.666000000000036","720","446","j","false","img/T_ambi40.png","好人","prac_word_first",""
"","","","","","html-keyboard-response","127","213082","0.0-9.0-0.0-1.8","null","<span style='color:red; font-size: 70px;'>错误! </span>","null","","","","","","","","","","","","","","","","","","","","","","","feedback_test"
"","","","","","psychophysics","128","214906","0.0-9.0-0.0-0.9","666","","f","","","","","","","","","","","","","key","f","16.665999999999865","720","446","j","false","img/S_ambi40.png","常人","prac_word_first",""
"","","","","","html-keyboard-response","129","215216","0.0-9.0-0.0-1.9","null","<span style='color:red; font-size: 70px;'>错误! </span>","null","","","","","","","","","","","","","","","","","","","","","","","feedback_test"
"","","","","","psychophysics","130","217338","0.0-9.0-0.0-0.10","961","","f","","","","","","","","","","","","","key","f","16.66599999999998","720","446","f","true","img/C_ambi40.png","常人","prac_word_first",""
"","","","","","html-keyboard-response","131","217652","0.0-9.0-0.0-1.10","null","<span style='color:GreenYellow; font-size: 70px;'>正确! </span>","null","","","","","","","","","","","","","","","","","","","","","","","feedback_test"
"","","","","","psychophysics","132","219706","0.0-9.0-0.0-0.11","897","","j","","","","","","","","","","","","","key","j","16.665999999999823","720","446","j","true","img/C_ambi40.png","坏人","prac_word_first",""
"","","","","","html-keyboard-response","133","220028","0.0-9.0-0.0-1.11","null","<span style='color:GreenYellow; font-size: 70px;'>正确! </span>","null","","","","","","","","","","","","","","","","","","","","","","","feedback_test"
"","","","","","psychophysics","134","222043","0.0-9.0-0.0-0.12","862","","j","","","","","","","","","","","","","key","j","16.666000000000107","720","446","j","true","img/S_ambi40.png","常人","prac_word_first",""
"","","","","","html-keyboard-response","135","222351","0.0-9.0-0.0-1.12","null","<span style='color:GreenYellow; font-size: 70px;'>正确! </span>","null","","","","","","","","","","","","","","","","","","","","","","","feedback_test"
"","","","","","psychophysics","136","224226","0.0-9.0-0.0-0.13","713","","f","","","","","","","","","","","","","key","f","16.665999999999798","720","446","f","true","img/S_ambi40.png","坏人","prac_word_first",""
"","","","","","html-keyboard-response","137","224536","0.0-9.0-0.0-1.13","null","<span style='color:GreenYellow; font-size: 70px;'>正确! </span>","null","","","","","","","","","","","","","","","","","","","","","","","feedback_test"
"","","","","","psychophysics","138","226284","0.0-9.0-0.0-0.14","588","","j","","","","","","","","","","","","","key","j","16.675057692307746","720","446","f","false","img/C_ambi40.png","好人","prac_word_first",""
"","","","","","html-keyboard-response","139","226591","0.0-9.0-0.0-1.14","null","<span style='color:red; font-size: 70px;'>错误! </span>","null","","","","","","","","","","","","","","","","","","","","","","","feedback_test"
"","","","","","psychophysics","140","228331","0.0-9.0-0.0-0.15","586","","j","","","","","","","","","","","","","key","j","16.665999999999958","720","446","j","true","img/C_ambi40.png","坏人","prac_word_first",""
"","","","","","html-keyboard-response","141","228641","0.0-9.0-0.0-1.15","null","<span style='color:GreenYellow; font-size: 70px;'>正确! </span>","null","","","","","","","","","","","","","","","","","","","","","","","feedback_test"
"","","","","","psychophysics","142","230371","0.0-9.0-0.0-0.16","575","","f","","","","","","","","","","","","","key","f","16.665999999999983","720","446","f","true","img/T_ambi40.png","常人","prac_word_first",""
"","","","","","html-keyboard-response","143","230681","0.0-9.0-0.0-1.16","null","<span style='color:GreenYellow; font-size: 70px;'>正确! </span>","null","","","","","","","","","","","","","","","","","","","","","","","feedback_test"
"","","","","","psychophysics","144","232505","0.0-9.0-0.0-0.17","672","","f","","","","","","","","","","","","","key","f","16.666000000000135","720","446","j","false","img/C_ambi40.png","坏人","prac_word_first",""
"","","","","","html-keyboard-response","145","232815","0.0-9.0-0.0-1.17","null","<span style='color:red; font-size: 70px;'>错误! </span>","null","","","","","","","","","","","","","","","","","","","","","","","feedback_test"
"","","","","","psychophysics","146","234598","0.0-9.0-0.0-0.18","622","","j","","","","","","","","","","","","","key","j","16.666000000000185","720","446","j","true","img/T_ambi40.png","好人","prac_word_first",""
"","","","","","html-keyboard-response","147","234905","0.0-9.0-0.0-1.18","null","<span style='color:GreenYellow; font-size: 70px;'>正确! </span>","null","","","","","","","","","","","","","","","","","","","","","","","feedback_test"
"","","","","","psychophysics","148","236755","0.0-9.0-0.0-0.19","691","","f","","","","","","","","","","","","","key","f","16.670236363636583","720","446","f","true","img/S_ambi40.png","好人","prac_word_first",""
"","","","","","html-keyboard-response","149","237068","0.0-9.0-0.0-1.19","null","<span style='color:GreenYellow; font-size: 70px;'>正确! </span>","null","","","","","","","","","","","","","","","","","","","","","","","feedback_test"
"","","","","","psychophysics","150","238809","0.0-9.0-0.0-0.20","584","","j","","","","","","","","","","","","","key","j","16.665999999999983","720","446","j","true","img/T_ambi40.png","好人","prac_word_first",""
"","","","","","html-keyboard-response","151","239114","0.0-9.0-0.0-1.20","null","<span style='color:GreenYellow; font-size: 70px;'>正确! </span>","null","","","","","","","","","","","","","","","","","","","","","","","feedback_test"
"","","","","","psychophysics","152","240769","0.0-9.0-0.0-0.21","498","","f","","","","","","","","","","","","","key","f","16.66600000000011","720","446","f","true","img/C_ambi40.png","常人","prac_word_first",""
"","","","","","html-keyboard-response","153","241074","0.0-9.0-0.0-1.21","null","<span style='color:GreenYellow; font-size: 70px;'>正确! </span>","null","","","","","","","","","","","","","","","","","","","","","","","feedback_test"
"","","","","","psychophysics","154","243012","0.0-9.0-0.0-0.22","781","","j","","","","","","","","","","","","","key","j","16.66599999999997","720","446","f","false","img/T_ambi40.png","坏人","prac_word_first",""
"","","","","","html-keyboard-response","155","243324","0.0-9.0-0.0-1.22","null","<span style='color:red; font-size: 70px;'>错误! </span>","null","","","","","","","","","","","","","","","","","","","","","","","feedback_test"
"","","","","","psychophysics","156","245106","0.0-9.0-0.0-0.23","625","","f","","","","","","","","","","","","","key","f","16.666000000000185","720","446","j","false","img/S_ambi40.png","常人","prac_word_first",""
"","","","","","html-keyboard-response","157","245408","0.0-9.0-0.0-1.23","null","<span style='color:red; font-size: 70px;'>错误! </span>","null","","","","","","","","","","","","","","","","","","","","","","","feedback_test"
"","","","","","html-keyboard-response","158","248687","0.0-10.0","3276","<style>.context{color:white; font-size: 35px; line-height:40px}</style>                              <div><p class='context'>您正确回答了63% 的试次。</p><p class='context'>您的平均反应时为691毫秒。</p><p class='context'>恭喜您完成练习。按任意键进入<span style='color: yellow;'>图形和文字同时呈现条件</span>的练习。</p></div>","j","","","","","","","","","","","","","","","","","","","","","","",""
"","","","","","psychophysics","159","250771","0.0-11.0-0.0-0.0","1073","","f","","","","","","","","","","","","","key","f","16.66600000000002","720","446","j","false","img/C_ambi40.png","坏人","prac_simultaneous",""
"","","","","","html-keyboard-response","160","251082","0.0-11.0-0.0-1.0","null","<span style='color:red; font-size: 70px;'>错误! </span>","null","","","","","","","","","","","","","","","","","","","","","","","feedback_test"
"","","","","","psychophysics","161","252794","0.0-11.0-0.0-0.1","706","","j","","","","","","","","","","","","","key","j","16.666000000000032","720","446","j","true","img/T_ambi40.png","好人","prac_simultaneous",""
"","","","","","html-keyboard-response","162","253107","0.0-11.0-0.0-1.1","null","<span style='color:GreenYellow; font-size: 70px;'>正确! </span>","null","","","","","","","","","","","","","","","","","","","","","","","feedback_test"
"","","","","","psychophysics","163","254837","0.0-11.0-0.0-0.2","724","","j","","","","","","","","","","","","","key","j","16.665999999999983","720","446","f","false","img/C_ambi40.png","好人","prac_simultaneous",""
"","","","","","html-keyboard-response","164","255147","0.0-11.0-0.0-1.2","null","<span style='color:red; font-size: 70px;'>错误! </span>","null","","","","","","","","","","","","","","","","","","","","","","","feedback_test"
"","","","","","psychophysics","165","256973","0.0-11.0-0.0-0.3","824","","j","","","","","","","","","","","","","key","j","16.674935185185287","720","446","j","true","img/T_ambi40.png","好人","prac_simultaneous",""
"","","","","","html-keyboard-response","166","257281","0.0-11.0-0.0-1.3","null","<span style='color:GreenYellow; font-size: 70px;'>正确! </span>","null","","","","","","","","","","","","","","","","","","","","","","","feedback_test"
"","","","","","psychophysics","167","258946","0.0-11.0-0.0-0.4","658","","f","","","","","","","","","","","","","key","f","16.66600000000011","720","446","f","true","img/C_ambi40.png","常人","prac_simultaneous",""
"","","","","","html-keyboard-response","168","259259","0.0-11.0-0.0-1.4","null","<span style='color:GreenYellow; font-size: 70px;'>正确! </span>","null","","","","","","","","","","","","","","","","","","","","","","","feedback_test"
"","","","","","psychophysics","169","261726","0.0-11.0-0.0-0.5","1461","","f","","","","","","","","","","","","","key","f","16.665999999999816","720","446","j","false","img/C_ambi40.png","坏人","prac_simultaneous",""
"","","","","","html-keyboard-response","170","262031","0.0-11.0-0.0-1.5","null","<span style='color:red; font-size: 70px;'>错误! </span>","null","","","","","","","","","","","","","","","","","","","","","","","feedback_test"
"","","","","","psychophysics","171","264041","0.0-11.0-0.0-0.6","1001","","f","","","","","","","","","","","","","key","f","16.66600000000013","720","446","f","true","img/T_ambi40.png","常人","prac_simultaneous",""
"","","","","","html-keyboard-response","172","264347","0.0-11.0-0.0-1.6","null","<span style='color:GreenYellow; font-size: 70px;'>正确! </span>","null","","","","","","","","","","","","","","","","","","","","","","","feedback_test"
"","","","","","psychophysics","173","266119","0.0-11.0-0.0-0.7","770","","f","","","","","","","","","","","","","key","f","16.665999999999933","720","446","f","true","img/S_ambi40.png","好人","prac_simultaneous",""
"","","","","","html-keyboard-response","174","266427","0.0-11.0-0.0-1.7","null","<span style='color:GreenYellow; font-size: 70px;'>正确! </span>","null","","","","","","","","","","","","","","","","","","","","","","","feedback_test"
"","","","","","psychophysics","175","268678","0.0-11.0-0.0-0.8","1248","","f","","","","","","","","","","","","","key","f","16.666000000000047","720","446","f","true","img/T_ambi40.png","坏人","prac_simultaneous",""
"","","","","","html-keyboard-response","176","268984","0.0-11.0-0.0-1.8","null","<span style='color:GreenYellow; font-size: 70px;'>正确! </span>","null","","","","","","","","","","","","","","","","","","","","","","","feedback_test"
"","","","","","psychophysics","177","270828","0.0-11.0-0.0-0.9","836","","j","","","","","","","","","","","","","key","j","16.66599999999984","720","446","j","true","img/S_ambi40.png","常人","prac_simultaneous",""
"","","","","","html-keyboard-response","178","271135","0.0-11.0-0.0-1.9","null","<span style='color:GreenYellow; font-size: 70px;'>正确! </span>","null","","","","","","","","","","","","","","","","","","","","","","","feedback_test"
"","","","","","psychophysics","179","273077","0.0-11.0-0.0-0.10","932","","f","","","","","","","","","","","","","key","f","16.666000000000224","720","446","f","true","img/S_ambi40.png","坏人","prac_simultaneous",""
"","","","","","html-keyboard-response","180","273388","0.0-11.0-0.0-1.10","null","<span style='color:GreenYellow; font-size: 70px;'>正确! </span>","null","","","","","","","","","","","","","","","","","","","","","","","feedback_test"
"","","","","","psychophysics","181","275441","0.0-11.0-0.0-0.11","1050","","j","","","","","","","","","","","","","key","j","16.673737704918004","720","446","j","true","img/S_ambi40.png","常人","prac_simultaneous",""
"","","","","","html-keyboard-response","182","275747","0.0-11.0-0.0-1.11","null","<span style='color:GreenYellow; font-size: 70px;'>正确! </span>","null","","","","","","","","","","","","","","","","","","","","","","","feedback_test"
"","","","","","psychophysics","183","277693","0.0-11.0-0.0-0.12","933","","f","","","","","","","","","","","","","key","f","16.665999999999716","720","446","f","true","img/T_ambi40.png","坏人","prac_simultaneous",""
"","","","","","html-keyboard-response","184","278004","0.0-11.0-0.0-1.12","null","<span style='color:GreenYellow; font-size: 70px;'>正确! </span>","null","","","","","","","","","","","","","","","","","","","","","","","feedback_test"
"","","","","","psychophysics","185","280305","0.0-11.0-0.0-0.13","1297","","f","","","","","","","","","","","","","key","f","16.6660000000002","720","446","j","false","img/C_ambi40.png","坏人","prac_simultaneous",""
"","","","","","html-keyboard-response","186","280612","0.0-11.0-0.0-1.13","null","<span style='color:red; font-size: 70px;'>错误! </span>","null","","","","","","","","","","","","","","","","","","","","","","","feedback_test"
"","","","","","psychophysics","187","282667","0.0-11.0-0.0-0.14","1052","","f","","","","","","","","","","","","","key","f","16.666000000000043","720","446","f","true","img/S_ambi40.png","好人","prac_simultaneous",""
"","","","","","html-keyboard-response","188","282978","0.0-11.0-0.0-1.14","null","<span style='color:GreenYellow; font-size: 70px;'>正确! </span>","null","","","","","","","","","","","","","","","","","","","","","","","feedback_test"
"","","","","","psychophysics","189","285057","0.0-11.0-0.0-0.15","1076","","f","","","","","","","","","","","","","key","f","16.666000000000256","720","446","f","true","img/S_ambi40.png","坏人","prac_simultaneous",""
"","","","","","html-keyboard-response","190","285363","0.0-11.0-0.0-1.15","null","<span style='color:GreenYellow; font-size: 70px;'>正确! </span>","null","","","","","","","","","","","","","","","","","","","","","","","feedback_test"
"","","","","","psychophysics","191","287120","0.0-11.0-0.0-0.16","756","","j","","","","","","","","","","","","","key","j","16.670500000000175","720","446","j","true","img/S_ambi40.png","常人","prac_simultaneous",""
"","","","","","html-keyboard-response","192","287427","0.0-11.0-0.0-1.16","null","<span style='color:GreenYellow; font-size: 70px;'>正确! </span>","null","","","","","","","","","","","","","","","","","","","","","","","feedback_test"
"","","","","","psychophysics","193","289423","0.0-11.0-0.0-0.17","993","","j","","","","","","","","","","","","","key","j","16.66599999999964","720","446","f","false","img/C_ambi40.png","好人","prac_simultaneous",""
"","","","","","html-keyboard-response","194","289731","0.0-11.0-0.0-1.17","null","<span style='color:red; font-size: 70px;'>错误! </span>","null","","","","","","","","","","","","","","","","","","","","","","","feedback_test"
"","","","","","psychophysics","195","291589","0.0-11.0-0.0-0.18","855","","j","","","","","","","","","","","","","key","j","16.666000000000086","720","446","j","true","img/T_ambi40.png","好人","prac_simultaneous",""
"","","","","","html-keyboard-response","196","291897","0.0-11.0-0.0-1.18","null","<span style='color:GreenYellow; font-size: 70px;'>正确! </span>","null","","","","","","","","","","","","","","","","","","","","","","","feedback_test"
"","","","","","psychophysics","197","293938","0.0-11.0-0.0-0.19","1038","","f","","","","","","","","","","","","","key","f","16.666000000000086","720","446","f","true","img/T_ambi40.png","常人","prac_simultaneous",""
"","","","","","html-keyboard-response","198","294247","0.0-11.0-0.0-1.19","null","<span style='color:GreenYellow; font-size: 70px;'>正确! </span>","null","","","","","","","","","","","","","","","","","","","","","","","feedback_test"
"","","","","","psychophysics","199","296221","0.0-11.0-0.0-0.20","971","","f","","","","","","","","","","","","","key","f","16.665999999999677","720","446","f","true","img/C_ambi40.png","常人","prac_simultaneous",""
"","","","","","html-keyboard-response","200","296531","0.0-11.0-0.0-1.20","null","<span style='color:GreenYellow; font-size: 70px;'>正确! </span>","null","","","","","","","","","","","","","","","","","","","","","","","feedback_test"
"","","","","","psychophysics","201","298190","0.0-11.0-0.0-0.21","657","","j","","","","","","","","","","","","","key","j","16.665999999999816","720","446","j","true","img/C_ambi40.png","坏人","prac_simultaneous",""
"","","","","","html-keyboard-response","202","298497","0.0-11.0-0.0-1.21","null","<span style='color:GreenYellow; font-size: 70px;'>正确! </span>","null","","","","","","","","","","","","","","","","","","","","","","","feedback_test"
"","","","","","psychophysics","203","300351","0.0-11.0-0.0-0.22","848","","j","","","","","","","","","","","","","key","j","16.666000000000086","720","446","j","true","img/T_ambi40.png","好人","prac_simultaneous",""
"","","","","","html-keyboard-response","204","300659","0.0-11.0-0.0-1.22","null","<span style='color:GreenYellow; font-size: 70px;'>正确! </span>","null","","","","","","","","","","","","","","","","","","","","","","","feedback_test"
"","","","","","psychophysics","205","302294","0.0-11.0-0.0-0.23","630","","f","","","","","","","","","","","","","key","f","16.66600000000014","720","446","j","false","img/S_ambi40.png","常人","prac_simultaneous",""
"","","","","","html-keyboard-response","206","302604","0.0-11.0-0.0-1.23","null","<span style='color:red; font-size: 70px;'>错误! </span>","null","","","","","","","","","","","","","","","","","","","","","","","feedback_test"
"","","","","","html-keyboard-response","207","304277","0.0-12.0","1668","<style>.context{color:white; font-size: 35px; line-height:40px}</style>                              <div><p class='context'>您正确回答了75% 的试次。</p><p class='context'>您的平均反应时为901毫秒。</p><p class='context'>恭喜您完成练习。按任意键进入正式实验。</p><p class='footer' style='font-size: 35px; line-height:40px;'>请在进入正式实验实验之前将您的<span style='color: lightgreen;'>食指</span>放在电脑键盘的相应键位上进行按键。</p>","j","","","","","","","","","","","","","","","","","","","","","","",""
"","","","","","html-keyboard-response","208","305119","0.0-13.0-2.0-0.0","834","
      <p>请您将手指放在按键上，准备进入呈现顺序为<span style='color: yellow;'>图形和文字同时呈现条件</span>的正式匹配任务</p>
      <p> <div style = ""color: green""><按任意键进入下一阶段的匹配任务></div></p>
      ","j","","","","","","","","","","","","","","","","","","","","","","",""
"","","","","","psychophysics","209","306955","0.0-13.0-2.0-1.0-0.0-0.0","826","","f","","","","","","","","","","","","","key","f","16.67475229357807","720","446","j","false","img/S_ambi40.png","常人","simultaneous",""
"","","","","","html-keyboard-response","210","307265","0.0-13.0-2.0-1.0-0.0-1.0","null","<span style='color:red; font-size: 70px;'>错误! </span>","null","","","","","","","","","","","","","","","","","","","","","","","feedback_test"
"","","","","","psychophysics","211","309077","0.0-13.0-2.0-1.0-0.0-0.1","809","","j","","","","","","","","","","","","","key","j","16.665999999999887","720","446","j","true","img/C_ambi40.png","坏人","simultaneous",""
"","","","","","html-keyboard-response","212","309385","0.0-13.0-2.0-1.0-0.0-1.1","null","<span style='color:GreenYellow; font-size: 70px;'>正确! </span>","null","","","","","","","","","","","","","","","","","","","","","","","feedback_test"
"","","","","","psychophysics","213","310786","0.0-13.0-2.0-1.0-0.0-0.2","395","","j","","","","","","","","","","","","","key","j","16.665999999999894","720","446","f","false","img/T_ambi40.png","常人","simultaneous",""
"","","","","","html-keyboard-response","214","311105","0.0-13.0-2.0-1.0-0.0-1.2","null","<span style='color:red; font-size: 70px;'>错误! </span>","null","","","","","","","","","","","","","","","","","","","","","","","feedback_test"
"","","","","","psychophysics","215","313078","0.0-13.0-2.0-1.0-0.0-0.3","967","","f","","","","","","","","","","","","","key","f","16.666000000000174","720","446","f","true","img/S_ambi40.png","好人","simultaneous",""
"","","","","","html-keyboard-response","216","313387","0.0-13.0-2.0-1.0-0.0-1.3","null","<span style='color:GreenYellow; font-size: 70px;'>正确! </span>","null","","","","","","","","","","","","","","","","","","","","","","","feedback_test"
"","","","","","psychophysics","217","315212","0.0-13.0-2.0-1.0-0.0-0.4","820","","f","","","","","","","","","","","","","key","f","16.665999999999595","720","446","j","false","img/S_ambi40.png","常人","simultaneous",""
"","","","","","html-keyboard-response","218","315523","0.0-13.0-2.0-1.0-0.0-1.4","null","<span style='color:red; font-size: 70px;'>错误! </span>","null","","","","","","","","","","","","","","","","","","","","","","","feedback_test"
"","","","","","psychophysics","219","317403","0.0-13.0-2.0-1.0-0.0-0.5","873","","f","","","","","","","","","","","","","key","f","16.670223214285734","720","446","f","true","img/T_ambi40.png","坏人","simultaneous",""
"","","","","","html-keyboard-response","220","317716","0.0-13.0-2.0-1.0-0.0-1.5","null","<span style='color:GreenYellow; font-size: 70px;'>正确! </span>","null","","","","","","","","","","","","","","","","","","","","","","","feedback_test"
"","","","","","psychophysics","221","319601","0.0-13.0-2.0-1.0-0.0-0.6","882","","f","","","","","","","","","","","","","key","f","16.666000000000036","720","446","f","true","img/S_ambi40.png","坏人","simultaneous",""
"","","","","","html-keyboard-response","222","319906","0.0-13.0-2.0-1.0-0.0-1.6","null","<span style='color:GreenYellow; font-size: 70px;'>正确! </span>","null","","","","","","","","","","","","","","","","","","","","","","","feedback_test"
"","","","","","psychophysics","223","321907","0.0-13.0-2.0-1.0-0.0-0.7","996","","j","","","","","","","","","","","","","key","j","16.66600000000013","720","446","j","true","img/C_ambi40.png","坏人","simultaneous",""
"","","","","","html-keyboard-response","224","322218","0.0-13.0-2.0-1.0-0.0-1.7","null","<span style='color:GreenYellow; font-size: 70px;'>正确! </span>","null","","","","","","","","","","","","","","","","","","","","","","","feedback_test"
"","","","","","psychophysics","225","324163","0.0-13.0-2.0-1.0-0.0-0.8","939","","j","","","","","","","","","","","","","key","j","16.666000000000224","720","446","j","true","img/T_ambi40.png","好人","simultaneous",""
"","","","","","html-keyboard-response","226","324475","0.0-13.0-2.0-1.0-0.0-1.8","null","<span style='color:GreenYellow; font-size: 70px;'>正确! </span>","null","","","","","","","","","","","","","","","","","","","","","","","feedback_test"
"","","","","","psychophysics","227","326231","0.0-13.0-2.0-1.0-0.0-0.9","750","","f","","","","","","","","","","","","","key","f","16.66600000000024","720","446","f","true","img/C_ambi40.png","常人","simultaneous",""
"","","","","","html-keyboard-response","228","326536","0.0-13.0-2.0-1.0-0.0-1.9","null","<span style='color:GreenYellow; font-size: 70px;'>正确! </span>","null","","","","","","","","","","","","","","","","","","","","","","","feedback_test"
"","","","","","psychophysics","229","328421","0.0-13.0-2.0-1.0-0.0-0.10","876","","f","","","","","","","","","","","","","key","f","16.666000000000036","720","446","j","false","img/T_ambi40.png","好人","simultaneous",""
"","","","","","html-keyboard-response","230","328731","0.0-13.0-2.0-1.0-0.0-1.10","null","<span style='color:red; font-size: 70px;'>错误! </span>","null","","","","","","","","","","","","","","","","","","","","","","","feedback_test"
"","","","","","psychophysics","231","330579","0.0-13.0-2.0-1.0-0.0-0.11","845","","j","","","","","","","","","","","","","key","j","16.66599999999984","720","446","f","false","img/C_ambi40.png","好人","simultaneous",""
"","","","","","html-keyboard-response","232","330891","0.0-13.0-2.0-1.0-0.0-1.11","null","<span style='color:red; font-size: 70px;'>错误! </span>","null","","","","","","","","","","","","","","","","","","","","","","","feedback_test"
"","","","","","psychophysics","233","332804","0.0-13.0-2.0-1.0-0.0-0.12","907","","j","","","","","","","","","","","","","key","j","16.665999999999993","720","446","f","false","img/T_ambi40.png","常人","simultaneous",""
"","","","","","html-keyboard-response","234","333114","0.0-13.0-2.0-1.0-0.0-1.12","null","<span style='color:red; font-size: 70px;'>错误! </span>","null","","","","","","","","","","","","","","","","","","","","","","","feedback_test"
"","","","","","psychophysics","235","335051","0.0-13.0-2.0-1.0-0.0-0.13","934","","f","","","","","","","","","","","","","key","f","16.665999999999716","720","446","j","false","img/C_ambi40.png","坏人","simultaneous",""
"","","","","","html-keyboard-response","236","335361","0.0-13.0-2.0-1.0-0.0-1.13","null","<span style='color:red; font-size: 70px;'>错误! </span>","null","","","","","","","","","","","","","","","","","","","","","","","feedback_test"
"","","","","","psychophysics","237","337322","0.0-13.0-2.0-1.0-0.0-0.14","954","","j","","","","","","","","","","","","","key","j","16.67409401709407","720","446","j","true","img/T_ambi40.png","好人","simultaneous",""
"","","","","","html-keyboard-response","238","337631","0.0-13.0-2.0-1.0-0.0-1.14","null","<span style='color:GreenYellow; font-size: 70px;'>正确! </span>","null","","","","","","","","","","","","","","","","","","","","","","","feedback_test"
"","","","","","psychophysics","239","339542","0.0-13.0-2.0-1.0-0.0-0.15","909","","j","","","","","","","","","","","","","key","j","16.66600000000027","720","446","j","true","img/S_ambi40.png","常人","simultaneous",""
"","","","","","html-keyboard-response","240","339851","0.0-13.0-2.0-1.0-0.0-1.15","null","<span style='color:GreenYellow; font-size: 70px;'>正确! </span>","null","","","","","","","","","","","","","","","","","","","","","","","feedback_test"
"","","","","","psychophysics","241","341603","0.0-13.0-2.0-1.0-0.0-0.16","748","","j","","","","","","","","","","","","","key","j","16.665999999999677","720","446","j","true","img/C_ambi40.png","坏人","simultaneous",""
"","","","","","html-keyboard-response","242","341913","0.0-13.0-2.0-1.0-0.0-1.16","null","<span style='color:GreenYellow; font-size: 70px;'>正确! </span>","null","","","","","","","","","","","","","","","","","","","","","","","feedback_test"
"","","","","","psychophysics","243","344186","0.0-13.0-2.0-1.0-0.0-0.17","1269","","f","","","","","","","","","","","","","key","f","16.666000000000242","720","446","f","true","img/S_ambi40.png","坏人","simultaneous",""
"","","","","","html-keyboard-response","244","344497","0.0-13.0-2.0-1.0-0.0-1.17","null","<span style='color:GreenYellow; font-size: 70px;'>正确! </span>","null","","","","","","","","","","","","","","","","","","","","","","","feedback_test"
"","","","","","psychophysics","245","346358","0.0-13.0-2.0-1.0-0.0-0.18","845","","f","","","","","","","","","","","","","key","f","16.665999999999556","720","446","f","true","img/C_ambi40.png","常人","simultaneous",""
"","","","","","html-keyboard-response","246","346664","0.0-13.0-2.0-1.0-0.0-1.18","null","<span style='color:GreenYellow; font-size: 70px;'>正确! </span>","null","","","","","","","","","","","","","","","","","","","","","","","feedback_test"
"","","","","","psychophysics","247","348564","0.0-13.0-2.0-1.0-0.0-0.19","898","","j","","","","","","","","","","","","","key","j","16.666000000000036","720","446","j","true","img/S_ambi40.png","常人","simultaneous",""
"","","","","","html-keyboard-response","248","348876","0.0-13.0-2.0-1.0-0.0-1.19","null","<span style='color:GreenYellow; font-size: 70px;'>正确! </span>","null","","","","","","","","","","","","","","","","","","","","","","","feedback_test"
"","","","","","psychophysics","249","350604","0.0-13.0-2.0-1.0-0.0-0.20","723","","j","","","","","","","","","","","","","key","j","16.665999999999983","720","446","j","true","img/T_ambi40.png","好人","simultaneous",""
"","","","","","html-keyboard-response","250","350914","0.0-13.0-2.0-1.0-0.0-1.20","null","<span style='color:GreenYellow; font-size: 70px;'>正确! </span>","null","","","","","","","","","","","","","","","","","","","","","","","feedback_test"
"","","","","","psychophysics","251","352630","0.0-13.0-2.0-1.0-0.0-0.21","713","","f","","","","","","","","","","","","","key","f","16.666000000000032","720","446","f","true","img/C_ambi40.png","好人","simultaneous",""
"","","","","","html-keyboard-response","252","352936","0.0-13.0-2.0-1.0-0.0-1.21","null","<span style='color:GreenYellow; font-size: 70px;'>正确! </span>","null","","","","","","","","","","","","","","","","","","","","","","","feedback_test"
"","","","","","psychophysics","253","354912","0.0-13.0-2.0-1.0-0.0-0.22","968","","j","","","","","","","","","","","","","key","j","16.665999999999677","720","446","f","false","img/T_ambi40.png","坏人","simultaneous",""
"","","","","","html-keyboard-response","254","355216","0.0-13.0-2.0-1.0-0.0-1.22","null","<span style='color:red; font-size: 70px;'>错误! </span>","null","","","","","","","","","","","","","","","","","","","","","","","feedback_test"
"","","","","","psychophysics","255","357211","0.0-13.0-2.0-1.0-0.0-0.23","987","","j","","","","","","","","","","","","","key","j","16.673983050847696","720","446","f","false","img/S_ambi40.png","好人","simultaneous",""
"","","","","","html-keyboard-response","256","357522","0.0-13.0-2.0-1.0-0.0-1.23","null","<span style='color:red; font-size: 70px;'>错误! </span>","null","","","","","","","","","","","","","","","","","","","","","","","feedback_test"
"","","","","","psychophysics","257","359362","0.0-13.0-2.0-1.0-0.0-0.24","832","","f","","","","","","","","","","","","","key","f","16.66599999999984","720","446","f","true","img/C_ambi40.png","常人","simultaneous",""
"","","","","","html-keyboard-response","258","359674","0.0-13.0-2.0-1.0-0.0-1.24","null","<span style='color:GreenYellow; font-size: 70px;'>正确! </span>","null","","","","","","","","","","","","","","","","","","","","","","","feedback_test"
"","","","","","psychophysics","259","361513","0.0-13.0-2.0-1.0-0.0-0.25","832","","f","","","","","","","","","","","","","key","f","16.66599999999984","720","446","f","true","img/T_ambi40.png","常人","simultaneous",""
"","","","","","html-keyboard-response","260","361827","0.0-13.0-2.0-1.0-0.0-1.25","null","<span style='color:GreenYellow; font-size: 70px;'>正确! </span>","null","","","","","","","","","","","","","","","","","","","","","","","feedback_test"
"","","","","","psychophysics","261","363791","0.0-13.0-2.0-1.0-0.0-0.26","961","","f","","","","","","","","","","","","","key","f","16.666000000000174","720","446","j","false","img/S_ambi40.png","常人","simultaneous",""
"","","","","","html-keyboard-response","262","364096","0.0-13.0-2.0-1.0-0.0-1.26","null","<span style='color:red; font-size: 70px;'>错误! </span>","null","","","","","","","","","","","","","","","","","","","","","","","feedback_test"
"","","","","","psychophysics","263","366478","0.0-13.0-2.0-1.0-0.0-0.27","1379","","f","","","","","","","","","","","","","key","f","16.66599999999971","720","446","j","false","img/C_ambi40.png","坏人","simultaneous",""
"","","","","","html-keyboard-response","264","366787","0.0-13.0-2.0-1.0-0.0-1.27","null","<span style='color:red; font-size: 70px;'>错误! </span>","null","","","","","","","","","","","","","","","","","","","","","","","feedback_test"
"","","","","","psychophysics","265","369303","0.0-13.0-2.0-1.0-0.0-0.28","null","","null","","","","","","","","","","","","","key","null","16.666000000000157","720","446","f","false","img/S_ambi40.png","好人","simultaneous",""
"","","","","","html-keyboard-response","266","369608","0.0-13.0-2.0-1.0-0.0-1.28","null","<span class='add_' style='color:yellow; font-size: 70px;'> 太慢! </span>","null","","","","","","","","","","","","","","","","","","","","","","","feedback_test"
"","","","","","psychophysics","267","371521","0.0-13.0-2.0-1.0-0.0-0.29","907","","j","","","","","","","","","","","","","key","j","16.665999999999993","720","446","f","false","img/C_ambi40.png","好人","simultaneous",""
"","","","","","html-keyboard-response","268","371831","0.0-13.0-2.0-1.0-0.0-1.29","null","<span style='color:red; font-size: 70px;'>错误! </span>","null","","","","","","","","","","","","","","","","","","","","","","","feedback_test"
"","","","","","psychophysics","269","373865","0.0-13.0-2.0-1.0-0.0-0.30","1032","","j","","","","","","","","","","","","","key","j","16.666000000000086","720","446","j","true","img/T_ambi40.png","好人","simultaneous",""
"","","","","","html-keyboard-response","270","374170","0.0-13.0-2.0-1.0-0.0-1.30","null","<span style='color:GreenYellow; font-size: 70px;'>正确! </span>","null","","","","","","","","","","","","","","","","","","","","","","","feedback_test"
"","","","","","psychophysics","271","375987","0.0-13.0-2.0-1.0-0.0-0.31","811","","f","","","","","","","","","","","","","key","f","16.674712962963017","720","446","f","true","img/S_ambi40.png","坏人","simultaneous",""
"","","","","","html-keyboard-response","272","376297","0.0-13.0-2.0-1.0-0.0-1.31","null","<span style='color:GreenYellow; font-size: 70px;'>正确! </span>","null","","","","","","","","","","","","","","","","","","","","","","","feedback_test"
"","","","","","psychophysics","273","378318","0.0-13.0-2.0-1.0-0.0-0.32","1020","","f","","","","","","","","","","","","","key","f","16.665999999999865","720","446","j","false","img/C_ambi40.png","坏人","simultaneous",""
"","","","","","html-keyboard-response","274","378627","0.0-13.0-2.0-1.0-0.0-1.32","null","<span style='color:red; font-size: 70px;'>错误! </span>","null","","","","","","","","","","","","","","","","","","","","","","","feedback_test"
"","","","","","psychophysics","275","380569","0.0-13.0-2.0-1.0-0.0-0.33","939","","f","","","","","","","","","","","","","key","f","16.665999999999947","720","446","f","true","img/T_ambi40.png","坏人","simultaneous",""
"","","","","","html-keyboard-response","276","380872","0.0-13.0-2.0-1.0-0.0-1.33","null","<span style='color:GreenYellow; font-size: 70px;'>正确! </span>","null","","","","","","","","","","","","","","","","","","","","","","","feedback_test"
"","","","","","psychophysics","277","382607","0.0-13.0-2.0-1.0-0.0-0.34","726","","j","","","","","","","","","","","","","key","j","16.665999999999983","720","446","j","true","img/S_ambi40.png","常人","simultaneous",""
"","","","","","html-keyboard-response","278","382913","0.0-13.0-2.0-1.0-0.0-1.34","null","<span style='color:GreenYellow; font-size: 70px;'>正确! </span>","null","","","","","","","","","","","","","","","","","","","","","","","feedback_test"
"","","","","","psychophysics","279","385071","0.0-13.0-2.0-1.0-0.0-0.35","1154","","j","","","","","","","","","","","","","key","j","16.666000000000167","720","446","j","true","img/T_ambi40.png","好人","simultaneous",""
"","","","","","html-keyboard-response","280","385379","0.0-13.0-2.0-1.0-0.0-1.35","null","<span style='color:GreenYellow; font-size: 70px;'>正确! </span>","null","","","","","","","","","","","","","","","","","","","","","","","feedback_test"
"","","","","","psychophysics","281","386953","0.0-13.0-2.0-1.0-0.0-0.36","570","","j","","","","","","","","","","","","","key","j","16.666000000000256","720","446","j","true","img/C_ambi40.png","坏人","simultaneous",""
"","","","","","html-keyboard-response","282","387258","0.0-13.0-2.0-1.0-0.0-1.36","null","<span style='color:GreenYellow; font-size: 70px;'>正确! </span>","null","","","","","","","","","","","","","","","","","","","","","","","feedback_test"
"","","","","","psychophysics","283","389053","0.0-13.0-2.0-1.0-0.0-0.37","789","","f","","","","","","","","","","","","","key","f","16.66600000000043","720","446","f","true","img/C_ambi40.png","好人","simultaneous",""
"","","","","","html-keyboard-response","284","389363","0.0-13.0-2.0-1.0-0.0-1.37","null","<span style='color:GreenYellow; font-size: 70px;'>正确! </span>","null","","","","","","","","","","","","","","","","","","","","","","","feedback_test"
"","","","","","psychophysics","285","391248","0.0-13.0-2.0-1.0-0.0-0.38","882","","f","","","","","","","","","","","","","key","f","16.666000000000324","720","446","j","false","img/T_ambi40.png","好人","simultaneous",""
"","","","","","html-keyboard-response","286","391555","0.0-13.0-2.0-1.0-0.0-1.38","null","<span style='color:red; font-size: 70px;'>错误! </span>","null","","","","","","","","","","","","","","","","","","","","","","","feedback_test"
"","","","","","psychophysics","287","393429","0.0-13.0-2.0-1.0-0.0-0.39","871","","j","","","","","","","","","","","","","key","j","16.665999999999798","720","446","j","true","img/C_ambi40.png","坏人","simultaneous",""
"","","","","","html-keyboard-response","288","393735","0.0-13.0-2.0-1.0-0.0-1.39","null","<span style='color:GreenYellow; font-size: 70px;'>正确! </span>","null","","","","","","","","","","","","","","","","","","","","","","","feedback_test"
"","","","","","psychophysics","289","395465","0.0-13.0-2.0-1.0-0.0-0.40","720","","j","","","","","","","","","","","","","key","j","16.665999999999723","720","446","j","true","img/S_ambi40.png","常人","simultaneous",""
"","","","","","html-keyboard-response","290","395778","0.0-13.0-2.0-1.0-0.0-1.40","null","<span style='color:GreenYellow; font-size: 70px;'>正确! </span>","null","","","","","","","","","","","","","","","","","","","","","","","feedback_test"
"","","","","","psychophysics","291","397592","0.0-13.0-2.0-1.0-0.0-0.41","811","","f","","","","","","","","","","","","","key","f","16.674685185185538","720","446","f","true","img/T_ambi40.png","常人","simultaneous",""
"","","","","","html-keyboard-response","292","397896","0.0-13.0-2.0-1.0-0.0-1.41","null","<span style='color:GreenYellow; font-size: 70px;'>正确! </span>","null","","","","","","","","","","","","","","","","","","","","","","","feedback_test"
"","","","","","psychophysics","293","400120","0.0-13.0-2.0-1.0-0.0-0.42","1221","","f","","","","","","","","","","","","","key","f","16.665999999999645","720","446","f","true","img/S_ambi40.png","好人","simultaneous",""
"","","","","","html-keyboard-response","294","400424","0.0-13.0-2.0-1.0-0.0-1.42","null","<span style='color:GreenYellow; font-size: 70px;'>正确! </span>","null","","","","","","","","","","","","","","","","","","","","","","","feedback_test"
"","","","","","psychophysics","295","402314","0.0-13.0-2.0-1.0-0.0-0.43","883","","f","","","","","","","","","","","","","key","f","16.666000000000036","720","446","f","true","img/S_ambi40.png","坏人","simultaneous",""
"","","","","","html-keyboard-response","296","402626","0.0-13.0-2.0-1.0-0.0-1.43","null","<span style='color:GreenYellow; font-size: 70px;'>正确! </span>","null","","","","","","","","","","","","","","","","","","","","","","","feedback_test"
"","","","","","psychophysics","297","404638","0.0-13.0-2.0-1.0-0.0-0.44","1007","","f","","","","","","","","","","","","","key","f","16.665999999999865","720","446","f","true","img/T_ambi40.png","坏人","simultaneous",""
"","","","","","html-keyboard-response","298","404946","0.0-13.0-2.0-1.0-0.0-1.44","null","<span style='color:GreenYellow; font-size: 70px;'>正确! </span>","null","","","","","","","","","","","","","","","","","","","","","","","feedback_test"
"","","","","","psychophysics","299","406803","0.0-13.0-2.0-1.0-0.0-0.45","855","","f","","","","","","","","","","","","","key","f","16.666000000000086","720","446","j","false","img/S_ambi40.png","常人","simultaneous",""
"","","","","","html-keyboard-response","300","407114","0.0-13.0-2.0-1.0-0.0-1.45","null","<span style='color:red; font-size: 70px;'>错误! </span>","null","","","","","","","","","","","","","","","","","","","","","","","feedback_test"
"","","","","","psychophysics","301","409155","0.0-13.0-2.0-1.0-0.0-0.46","1038","","f","","","","","","","","","","","","","key","f","16.666000000000086","720","446","f","true","img/C_ambi40.png","常人","simultaneous",""
"","","","","","html-keyboard-response","302","409465","0.0-13.0-2.0-1.0-0.0-1.46","null","<span style='color:GreenYellow; font-size: 70px;'>正确! </span>","null","","","","","","","","","","","","","","","","","","","","","","","feedback_test"
"","","","","","psychophysics","303","411590","0.0-13.0-2.0-1.0-0.0-0.47","1123","","f","","","","","","","","","","","","","key","f","16.66600000000021","720","446","j","false","img/T_ambi40.png","好人","simultaneous",""
"","","","","","html-keyboard-response","304","411896","0.0-13.0-2.0-1.0-0.0-1.47","null","<span style='color:red; font-size: 70px;'>错误! </span>","null","","","","","","","","","","","","","","","","","","","","","","","feedback_test"
"","","","","","psychophysics","305","413739","0.0-13.0-2.0-1.0-0.0-0.48","839","","f","","","","","","","","","","","","","key","f","16.66599999999984","720","446","j","false","img/S_ambi40.png","常人","simultaneous",""
"","","","","","html-keyboard-response","306","414048","0.0-13.0-2.0-1.0-0.0-1.48","null","<span style='color:red; font-size: 70px;'>错误! </span>","null","","","","","","","","","","","","","","","","","","","","","","","feedback_test"
"","","","","","psychophysics","307","415949","0.0-13.0-2.0-1.0-0.0-0.49","894","","f","","","","","","","","","","","","","key","f","16.674460176990955","720","446","f","true","img/C_ambi40.png","常人","simultaneous",""
"","","","","","html-keyboard-response","308","416256","0.0-13.0-2.0-1.0-0.0-1.49","null","<span style='color:GreenYellow; font-size: 70px;'>正确! </span>","null","","","","","","","","","","","","","","","","","","","","","","","feedback_test"
"","","","","","psychophysics","309","418118","0.0-13.0-2.0-1.0-0.0-0.50","854","","f","","","","","","","","","","","","","key","f","16.666000000000324","720","446","f","true","img/T_ambi40.png","常人","simultaneous",""
"","","","","","html-keyboard-response","310","418427","0.0-13.0-2.0-1.0-0.0-1.50","null","<span style='color:GreenYellow; font-size: 70px;'>正确! </span>","null","","","","","","","","","","","","","","","","","","","","","","","feedback_test"
"","","","","","psychophysics","311","420774","0.0-13.0-2.0-1.0-0.0-0.51","1343","","f","","","","","","","","","","","","","key","f","16.665999999999933","720","446","f","true","img/S_ambi40.png","坏人","simultaneous",""
"","","","","","html-keyboard-response","312","421081","0.0-13.0-2.0-1.0-0.0-1.51","null","<span style='color:GreenYellow; font-size: 70px;'>正确! </span>","null","","","","","","","","","","","","","","","","","","","","","","","feedback_test"
"","","","","","psychophysics","313","423006","0.0-13.0-2.0-1.0-0.0-0.52","923","","j","","","","","","","","","","","","","key","j","16.665999999999993","720","446","j","true","img/S_ambi40.png","常人","simultaneous",""
"","","","","","html-keyboard-response","314","423313","0.0-13.0-2.0-1.0-0.0-1.52","null","<span style='color:GreenYellow; font-size: 70px;'>正确! </span>","null","","","","","","","","","","","","","","","","","","","","","","","feedback_test"
"","","","","","psychophysics","315","425237","0.0-13.0-2.0-1.0-0.0-0.53","922","","j","","","","","","","","","","","","","key","j","16.665999999999993","720","446","j","true","img/T_ambi40.png","好人","simultaneous",""
"","","","","","html-keyboard-response","316","425547","0.0-13.0-2.0-1.0-0.0-1.53","null","<span style='color:GreenYellow; font-size: 70px;'>正确! </span>","null","","","","","","","","","","","","","","","","","","","","","","","feedback_test"
"","","","","","psychophysics","317","427577","0.0-13.0-2.0-1.0-0.0-0.54","1028","","f","","","","","","","","","","","","","key","f","16.665999999999865","720","446","f","true","img/T_ambi40.png","坏人","simultaneous",""
"","","","","","html-keyboard-response","318","427882","0.0-13.0-2.0-1.0-0.0-1.54","null","<span style='color:GreenYellow; font-size: 70px;'>正确! </span>","null","","","","","","","","","","","","","","","","","","","","","","","feedback_test"
"","","","","","psychophysics","319","429888","0.0-13.0-2.0-1.0-0.0-0.55","1001","","f","","","","","","","","","","","","","key","f","16.66600000000013","720","446","f","true","img/S_ambi40.png","好人","simultaneous",""
"","","","","","html-keyboard-response","320","430192","0.0-13.0-2.0-1.0-0.0-1.55","null","<span style='color:GreenYellow; font-size: 70px;'>正确! </span>","null","","","","","","","","","","","","","","","","","","","","","","","feedback_test"
"","","","","","psychophysics","321","431807","0.0-13.0-2.0-1.0-0.0-0.56","608","","j","","","","","","","","","","","","","key","j","16.665999999999865","720","446","j","true","img/C_ambi40.png","坏人","simultaneous",""
"","","","","","html-keyboard-response","322","432114","0.0-13.0-2.0-1.0-0.0-1.56","null","<span style='color:GreenYellow; font-size: 70px;'>正确! </span>","null","","","","","","","","","","","","","","","","","","","","","","","feedback_test"
"","","","","","psychophysics","323","434112","0.0-13.0-2.0-1.0-0.0-0.57","996","","f","","","","","","","","","","","","","key","f","16.665999999999904","720","446","j","false","img/T_ambi40.png","好人","simultaneous",""
"","","","","","html-keyboard-response","324","434416","0.0-13.0-2.0-1.0-0.0-1.57","null","<span style='color:red; font-size: 70px;'>错误! </span>","null","","","","","","","","","","","","","","","","","","","","","","","feedback_test"
"","","","","","psychophysics","325","436453","0.0-13.0-2.0-1.0-0.0-0.58","1030","","f","","","","","","","","","","","","","key","f","16.67378512396735","720","446","f","true","img/C_ambi40.png","好人","simultaneous",""
"","","","","","html-keyboard-response","326","436760","0.0-13.0-2.0-1.0-0.0-1.58","null","<span style='color:GreenYellow; font-size: 70px;'>正确! </span>","null","","","","","","","","","","","","","","","","","","","","","","","feedback_test"
"","","","","","psychophysics","327","438707","0.0-13.0-2.0-1.0-0.0-0.59","942","","f","","","","","","","","","","","","","key","f","16.665999999999947","720","446","j","false","img/C_ambi40.png","坏人","simultaneous",""
"","","","","","html-keyboard-response","328","439016","0.0-13.0-2.0-1.0-0.0-1.59","null","<span style='color:red; font-size: 70px;'>错误! </span>","null","","","","","","","","","","","","","","","","","","","","","","","feedback_test"
"","","","","","html-keyboard-response","329","440511","0.0-13.0-2.0-1.0-1.0","1491","<style>.context{color:white; font-size: 35px; line-height:40px}</style>                              <div><p class='context'>您正确回答了67% 的试次。</p><p class='context'>您的平均反应时为903毫秒。</p><p class='context'>请按任意键进入休息</p></div>","j","","","","","","","","","","","","","","","","","","","","","","",""
"","","","","","html-button-response","330","442450","0.0-13.0-2.0-1.0-2.0","1926","
                      <p>您当前还剩余3组实验</p>
                      <p>现在是休息时间，当您结束休息后，您可以点击 结束休息 按钮 继续</p>
                      <p>建议休息时间还剩余<span id=""iii"">60</span>秒</p>","0","","","","","","","","","","","","","","","","","","","","","","",""
"","","","","","psychophysics","331","444623","0.0-13.0-2.0-1.0-0.1-0.60","1168","","f","","","","","","","","","","","","","key","f","16.665999999999922","720","446","f","true","img/S_ambi40.png","坏人","simultaneous",""
"","","","","","html-keyboard-response","332","444931","0.0-13.0-2.0-1.0-0.1-1.60","null","<span style='color:GreenYellow; font-size: 70px;'>正确! </span>","null","","","","","","","","","","","","","","","","","","","","","","","feedback_test"
"","","","","","psychophysics","333","447365","0.0-13.0-2.0-1.0-0.1-0.61","1432","","j","","","","","","","","","","","","","key","j","16.665999999999865","720","446","j","true","img/T_ambi40.png","好人","simultaneous",""
"","","","","","html-keyboard-response","334","447671","0.0-13.0-2.0-1.0-0.1-1.61","null","<span style='color:GreenYellow; font-size: 70px;'>正确! </span>","null","","","","","","","","","","","","","","","","","","","","","","","feedback_test"
"","","","","","psychophysics","335","449655","0.0-13.0-2.0-1.0-0.1-0.62","975","","f","","","","","","","","","","","","","key","f","16.665999999999904","720","446","j","false","img/S_ambi40.png","常人","simultaneous",""
"","","","","","html-keyboard-response","336","449959","0.0-13.0-2.0-1.0-0.1-1.62","null","<span style='color:red; font-size: 70px;'>错误! </span>","null","","","","","","","","","","","","","","","","","","","","","","","feedback_test"
"","","","","","psychophysics","337","451931","0.0-13.0-2.0-1.0-0.1-0.63","967","","f","","","","","","","","","","","","","key","f","16.665999999999677","720","446","j","false","img/C_ambi40.png","坏人","simultaneous",""
"","","","","","html-keyboard-response","338","452242","0.0-13.0-2.0-1.0-0.1-1.63","null","<span style='color:red; font-size: 70px;'>错误! </span>","null","","","","","","","","","","","","","","","","","","","","","","","feedback_test"
"","","","","","psychophysics","339","454154","0.0-13.0-2.0-1.0-0.1-0.64","906","","f","","","","","","","","","","","","","key","f","16.665999999999993","720","446","f","true","img/T_ambi40.png","常人","simultaneous",""
"","","","","","html-keyboard-response","340","454463","0.0-13.0-2.0-1.0-0.1-1.64","null","<span style='color:GreenYellow; font-size: 70px;'>正确! </span>","null","","","","","","","","","","","","","","","","","","","","","","","feedback_test"
"","","","","","psychophysics","341","456384","0.0-13.0-2.0-1.0-0.1-0.65","919","","j","","","","","","","","","","","","","key","j","16.67426315789456","720","446","f","false","img/T_ambi40.png","坏人","simultaneous",""
"","","","","","html-keyboard-response","342","456690","0.0-13.0-2.0-1.0-0.1-1.65","null","<span style='color:red; font-size: 70px;'>错误! </span>","null","","","","","","","","","","","","","","","","","","","","","","","feedback_test"
"","","","","","psychophysics","343","459120","0.0-13.0-2.0-1.0-0.1-0.66","1424","","f","","","","","","","","","","","","","key","f","16.666000000000047","720","446","f","true","img/C_ambi40.png","好人","simultaneous",""
"","","","","","html-keyboard-response","344","459423","0.0-13.0-2.0-1.0-0.1-1.66","null","<span style='color:GreenYellow; font-size: 70px;'>正确! </span>","null","","","","","","","","","","","","","","","","","","","","","","","feedback_test"
"","","","","","psychophysics","345","461331","0.0-13.0-2.0-1.0-0.1-0.67","900","","j","","","","","","","","","","","","","key","j","16.665999999999755","720","446","j","true","img/T_ambi40.png","好人","simultaneous",""
"","","","","","html-keyboard-response","346","461642","0.0-13.0-2.0-1.0-0.1-1.67","null","<span style='color:GreenYellow; font-size: 70px;'>正确! </span>","null","","","","","","","","","","","","","","","","","","","","","","","feedback_test"
"","","","","","psychophysics","347","463422","0.0-13.0-2.0-1.0-0.1-0.68","775","","f","","","","","","","","","","","","","key","f","16.666000000000185","720","446","f","true","img/S_ambi40.png","好人","simultaneous",""
"","","","","","html-keyboard-response","348","463731","0.0-13.0-2.0-1.0-0.1-1.68","null","<span style='color:GreenYellow; font-size: 70px;'>正确! </span>","null","","","","","","","","","","","","","","","","","","","","","","","feedback_test"
"","","","","","psychophysics","349","465470","0.0-13.0-2.0-1.0-0.1-0.69","736","","f","","","","","","","","","","","","","key","f","16.665999999999983","720","446","f","true","img/C_ambi40.png","常人","simultaneous",""
"","","","","","html-keyboard-response","350","465779","0.0-13.0-2.0-1.0-0.1-1.69","null","<span style='color:GreenYellow; font-size: 70px;'>正确! </span>","null","","","","","","","","","","","","","","","","","","","","","","","feedback_test"
"","","","","","psychophysics","351","467722","0.0-13.0-2.0-1.0-0.1-0.70","939","","j","","","","","","","","","","","","","key","j","16.665999999999716","720","446","j","true","img/S_ambi40.png","常人","simultaneous",""
"","","","","","html-keyboard-response","352","468031","0.0-13.0-2.0-1.0-0.1-1.70","null","<span style='color:GreenYellow; font-size: 70px;'>正确! </span>","null","","","","","","","","","","","","","","","","","","","","","","","feedback_test"
"","","","","","psychophysics","353","469952","0.0-13.0-2.0-1.0-0.1-0.71","919","","j","","","","","","","","","","","","","key","j","16.665999999999993","720","446","j","true","img/C_ambi40.png","坏人","simultaneous",""
"","","","","","html-keyboard-response","354","470257","0.0-13.0-2.0-1.0-0.1-1.71","null","<span style='color:GreenYellow; font-size: 70px;'>正确! </span>","null","","","","","","","","","","","","","","","","","","","","","","","feedback_test"
"","","","","","psychophysics","355","471831","0.0-13.0-2.0-1.0-0.1-0.72","567","","j","","","","","","","","","","","","","key","j","16.66599999999963","720","446","j","true","img/T_ambi40.png","好人","simultaneous",""
"","","","","","html-keyboard-response","356","472139","0.0-13.0-2.0-1.0-0.1-1.72","null","<span style='color:GreenYellow; font-size: 70px;'>正确! </span>","null","","","","","","","","","","","","","","","","","","","","","","","feedback_test"
"","","","","","psychophysics","357","474076","0.0-13.0-2.0-1.0-0.1-0.73","932","","j","","","","","","","","","","","","","key","j","16.666000000000224","720","446","j","true","img/C_ambi40.png","坏人","simultaneous",""
"","","","","","html-keyboard-response","358","474386","0.0-13.0-2.0-1.0-0.1-1.73","null","<span style='color:GreenYellow; font-size: 70px;'>正确! </span>","null","","","","","","","","","","","","","","","","","","","","","","","feedback_test"
"","","","","","psychophysics","359","476159","0.0-13.0-2.0-1.0-0.1-0.74","768","","f","","","","","","","","","","","","","key","f","16.67496190476176","720","446","f","true","img/C_ambi40.png","好人","simultaneous",""
"","","","","","html-keyboard-response","360","476462","0.0-13.0-2.0-1.0-0.1-1.74","null","<span style='color:GreenYellow; font-size: 70px;'>正确! </span>","null","","","","","","","","","","","","","","","","","","","","","","","feedback_test"
"","","","","","psychophysics","361","478239","0.0-13.0-2.0-1.0-0.1-0.75","773","","f","","","","","","","","","","","","","key","f","16.666000000000185","720","446","f","true","img/S_ambi40.png","坏人","simultaneous",""
"","","","","","html-keyboard-response","362","478546","0.0-13.0-2.0-1.0-0.1-1.75","null","<span style='color:GreenYellow; font-size: 70px;'>正确! </span>","null","","","","","","","","","","","","","","","","","","","","","","","feedback_test"
"","","","","","psychophysics","363","480474","0.0-13.0-2.0-1.0-0.1-0.76","924","","j","","","","","","","","","","","","","key","j","16.666000000000224","720","446","j","true","img/S_ambi40.png","常人","simultaneous",""
"","","","","","html-keyboard-response","364","480783","0.0-13.0-2.0-1.0-0.1-1.76","null","<span style='color:GreenYellow; font-size: 70px;'>正确! </span>","null","","","","","","","","","","","","","","","","","","","","","","","feedback_test"
"","","","","","psychophysics","365","482632","0.0-13.0-2.0-1.0-0.1-0.77","847","","f","","","","","","","","","","","","","key","f","16.66599999999984","720","446","f","true","img/C_ambi40.png","常人","simultaneous",""
"","","","","","html-keyboard-response","366","482938","0.0-13.0-2.0-1.0-0.1-1.77","null","<span style='color:GreenYellow; font-size: 70px;'>正确! </span>","null","","","","","","","","","","","","","","","","","","","","","","","feedback_test"
"","","","","","psychophysics","367","485007","0.0-13.0-2.0-1.0-0.1-0.78","1063","","j","","","","","","","","","","","","","key","j","16.666000000000043","720","446","f","false","img/T_ambi40.png","坏人","simultaneous",""
"","","","","","html-keyboard-response","368","485311","0.0-13.0-2.0-1.0-0.1-1.78","null","<span style='color:red; font-size: 70px;'>错误! </span>","null","","","","","","","","","","","","","","","","","","","","","","","feedback_test"
"","","","","","psychophysics","369","487104","0.0-13.0-2.0-1.0-0.1-0.79","787","","j","","","","","","","","","","","","","key","j","16.665999999999887","720","446","j","true","img/T_ambi40.png","好人","simultaneous",""
"","","","","","html-keyboard-response","370","487407","0.0-13.0-2.0-1.0-0.1-1.79","null","<span style='color:GreenYellow; font-size: 70px;'>正确! </span>","null","","","","","","","","","","","","","","","","","","","","","","","feedback_test"
"","","","","","psychophysics","371","489200","0.0-13.0-2.0-1.0-0.1-0.80","785","","f","","","","","","","","","","","","","key","f","16.665999999999887","720","446","f","true","img/S_ambi40.png","好人","simultaneous",""
"","","","","","html-keyboard-response","372","489504","0.0-13.0-2.0-1.0-0.1-1.80","null","<span style='color:GreenYellow; font-size: 70px;'>正确! </span>","null","","","","","","","","","","","","","","","","","","","","","","","feedback_test"
"","","","","","psychophysics","373","491430","0.0-13.0-2.0-1.0-0.1-0.81","918","","j","","","","","","","","","","","","","key","j","16.665999999999993","720","446","f","false","img/T_ambi40.png","常人","simultaneous",""
"","","","","","html-keyboard-response","374","491735","0.0-13.0-2.0-1.0-0.1-1.81","null","<span style='color:red; font-size: 70px;'>错误! </span>","null","","","","","","","","","","","","","","","","","","","","","","","feedback_test"
"","","","","","psychophysics","375","493533","0.0-13.0-2.0-1.0-0.1-0.82","789","","f","","","","","","","","","","","","","key","f","16.665999999999887","720","446","j","false","img/S_ambi40.png","常人","simultaneous",""
"","","","","","html-keyboard-response","376","493841","0.0-13.0-2.0-1.0-0.1-1.82","null","<span style='color:red; font-size: 70px;'>错误! </span>","null","","","","","","","","","","","","","","","","","","","","","","","feedback_test"
"","","","","","psychophysics","377","495784","0.0-13.0-2.0-1.0-0.1-0.83","937","","j","","","","","","","","","","","","","key","j","16.665999999999947","720","446","j","true","img/C_ambi40.png","坏人","simultaneous",""
"","","","","","html-keyboard-response","378","496090","0.0-13.0-2.0-1.0-0.1-1.83","null","<span style='color:GreenYellow; font-size: 70px;'>正确! </span>","null","","","","","","","","","","","","","","","","","","","","","","","feedback_test"
"","","","","","psychophysics","379","498106","0.0-13.0-2.0-1.0-0.1-0.84","1010","","j","","","","","","","","","","","","","key","j","16.67385000000019","720","446","j","true","img/T_ambi40.png","好人","simultaneous",""
"","","","","","html-keyboard-response","380","498427","0.0-13.0-2.0-1.0-0.1-1.84","null","<span style='color:GreenYellow; font-size: 70px;'>正确! </span>","null","","","","","","","","","","","","","","","","","","","","","","","feedback_test"
"","","","","","psychophysics","381","500304","0.0-13.0-2.0-1.0-0.1-0.85","873","","j","","","","","","","","","","","","","key","j","16.666000000000036","720","446","j","true","img/S_ambi40.png","常人","simultaneous",""
"","","","","","html-keyboard-response","382","500610","0.0-13.0-2.0-1.0-0.1-1.85","null","<span style='color:GreenYellow; font-size: 70px;'>正确! </span>","null","","","","","","","","","","","","","","","","","","","","","","","feedback_test"
"","","","","","psychophysics","383","502646","0.0-13.0-2.0-1.0-0.1-0.86","1031","","f","","","","","","","","","","","","","key","f","16.666000000000086","720","446","f","true","img/T_ambi40.png","常人","simultaneous",""
"","","","","","html-keyboard-response","384","502951","0.0-13.0-2.0-1.0-0.1-1.86","null","<span style='color:GreenYellow; font-size: 70px;'>正确! </span>","null","","","","","","","","","","","","","","","","","","","","","","","feedback_test"
"","","","","","psychophysics","385","504762","0.0-13.0-2.0-1.0-0.1-0.87","803","","j","","","","","","","","","","","","","key","j","16.66600000000043","720","446","j","true","img/C_ambi40.png","坏人","simultaneous",""
"","","","","","html-keyboard-response","386","505072","0.0-13.0-2.0-1.0-0.1-1.87","null","<span style='color:GreenYellow; font-size: 70px;'>正确! </span>","null","","","","","","","","","","","","","","","","","","","","","","","feedback_test"
"","","","","","psychophysics","387","507002","0.0-13.0-2.0-1.0-0.1-0.88","921","","f","","","","","","","","","","","","","key","f","16.665999999999716","720","446","f","true","img/C_ambi40.png","常人","simultaneous",""
"","","","","","html-keyboard-response","388","507305","0.0-13.0-2.0-1.0-0.1-1.88","null","<span style='color:GreenYellow; font-size: 70px;'>正确! </span>","null","","","","","","","","","","","","","","","","","","","","","","","feedback_test"
"","","","","","psychophysics","389","509266","0.0-13.0-2.0-1.0-0.1-0.89","955","","f","","","","","","","","","","","","","key","f","16.666000000000174","720","446","j","false","img/C_ambi40.png","坏人","simultaneous",""
"","","","","","html-keyboard-response","390","509579","0.0-13.0-2.0-1.0-0.1-1.89","null","<span style='color:red; font-size: 70px;'>错误! </span>","null","","","","","","","","","","","","","","","","","","","","","","","feedback_test"
"","","","","","psychophysics","391","511821","0.0-13.0-2.0-1.0-0.1-0.90","1240","","f","","","","","","","","","","","","","key","f","16.666000000000047","720","446","f","true","img/C_ambi40.png","好人","simultaneous",""
"","","","","","html-keyboard-response","392","512131","0.0-13.0-2.0-1.0-0.1-1.90","null","<span style='color:GreenYellow; font-size: 70px;'>正确! </span>","null","","","","","","","","","","","","","","","","","","","","","","","feedback_test"
"","","","","","psychophysics","393","514420","0.0-13.0-2.0-1.0-0.1-0.91","1286","","j","","","","","","","","","","","","","key","j","16.666000000000007","720","446","j","true","img/T_ambi40.png","好人","simultaneous",""
"","","","","","html-keyboard-response","394","514731","0.0-13.0-2.0-1.0-0.1-1.91","null","<span style='color:GreenYellow; font-size: 70px;'>正确! </span>","null","","","","","","","","","","","","","","","","","","","","","","","feedback_test"
"","","","","","psychophysics","395","516513","0.0-13.0-2.0-1.0-0.1-0.92","779","","j","","","","","","","","","","","","","key","j","16.675095238095327","720","446","j","true","img/S_ambi40.png","常人","simultaneous",""
"","","","","","html-keyboard-response","396","516822","0.0-13.0-2.0-1.0-0.1-1.92","null","<span style='color:GreenYellow; font-size: 70px;'>正确! </span>","null","","","","","","","","","","","","","","","","","","","","","","","feedback_test"
"","","","","","psychophysics","397","518512","0.0-13.0-2.0-1.0-0.1-0.93","681","","f","","","","","","","","","","","","","key","f","16.665999999999766","720","446","f","true","img/S_ambi40.png","坏人","simultaneous",""
"","","","","","html-keyboard-response","398","518815","0.0-13.0-2.0-1.0-0.1-1.93","null","<span style='color:GreenYellow; font-size: 70px;'>正确! </span>","null","","","","","","","","","","","","","","","","","","","","","","","feedback_test"
"","","","","","psychophysics","399","520686","0.0-13.0-2.0-1.0-0.1-0.94","868","","f","","","","","","","","","","","","","key","f","16.665999999999798","720","446","f","true","img/S_ambi40.png","好人","simultaneous",""
"","","","","","html-keyboard-response","400","520993","0.0-13.0-2.0-1.0-0.1-1.94","null","<span style='color:GreenYellow; font-size: 70px;'>正确! </span>","null","","","","","","","","","","","","","","","","","","","","","","","feedback_test"
"","","","","","psychophysics","401","523192","0.0-13.0-2.0-1.0-0.1-0.95","1191","","f","","","","","","","","","","","","","key","f","16.665999999999883","720","446","f","true","img/T_ambi40.png","坏人","simultaneous",""
"","","","","","html-keyboard-response","402","523496","0.0-13.0-2.0-1.0-0.1-1.95","null","<span style='color:GreenYellow; font-size: 70px;'>正确! </span>","null","","","","","","","","","","","","","","","","","","","","","","","feedback_test"
"","","","","","psychophysics","403","525237","0.0-13.0-2.0-1.0-0.1-0.96","734","","j","","","","","","","","","","","","","key","j","16.665999999999677","720","446","j","true","img/T_ambi40.png","好人","simultaneous",""
"","","","","","html-keyboard-response","404","525546","0.0-13.0-2.0-1.0-0.1-1.96","null","<span style='color:GreenYellow; font-size: 70px;'>正确! </span>","null","","","","","","","","","","","","","","","","","","","","","","","feedback_test"
"","","","","","psychophysics","405","527440","0.0-13.0-2.0-1.0-0.1-0.97","891","","j","","","","","","","","","","","","","key","j","16.66599999999924","720","446","j","true","img/S_ambi40.png","常人","simultaneous",""
"","","","","","html-keyboard-response","406","527745","0.0-13.0-2.0-1.0-0.1-1.97","null","<span style='color:GreenYellow; font-size: 70px;'>正确! </span>","null","","","","","","","","","","","","","","","","","","","","","","","feedback_test"
"","","","","","psychophysics","407","529797","0.0-13.0-2.0-1.0-0.1-0.98","1036","","f","","","","","","","","","","","","","key","f","16.665999999999823","720","446","f","true","img/C_ambi40.png","好人","simultaneous",""
"","","","","","html-keyboard-response","408","530105","0.0-13.0-2.0-1.0-0.1-1.98","null","<span style='color:GreenYellow; font-size: 70px;'>正确! </span>","null","","","","","","","","","","","","","","","","","","","","","","","feedback_test"
"","","","","","psychophysics","409","531878","0.0-13.0-2.0-1.0-0.1-0.99","766","","f","","","","","","","","","","","","","key","f","16.666000000000487","720","446","f","true","img/C_ambi40.png","常人","simultaneous",""
"","","","","","html-keyboard-response","410","532185","0.0-13.0-2.0-1.0-0.1-1.99","null","<span style='color:GreenYellow; font-size: 70px;'>正确! </span>","null","","","","","","","","","","","","","","","","","","","","","","","feedback_test"
"","","","","","psychophysics","411","534060","0.0-13.0-2.0-1.0-0.1-0.100","870","","f","","","","","","","","","","","","","key","f","16.665999999999798","720","446","f","true","img/T_ambi40.png","坏人","simultaneous",""
"","","","","","html-keyboard-response","412","534369","0.0-13.0-2.0-1.0-0.1-1.100","null","<span style='color:GreenYellow; font-size: 70px;'>正确! </span>","null","","","","","","","","","","","","","","","","","","","","","","","feedback_test"
"","","","","","psychophysics","413","536236","0.0-13.0-2.0-1.0-0.1-0.101","861","","j","","","","","","","","","","","","","key","j","16.674486486486636","720","446","j","true","img/T_ambi40.png","好人","simultaneous",""
"","","","","","html-keyboard-response","414","536546","0.0-13.0-2.0-1.0-0.1-1.101","null","<span style='color:GreenYellow; font-size: 70px;'>正确! </span>","null","","","","","","","","","","","","","","","","","","","","","","","feedback_test"
"","","","","","psychophysics","415","538278","0.0-13.0-2.0-1.0-0.1-0.102","729","","f","","","","","","","","","","","","","key","f","16.665999999999983","720","446","f","true","img/T_ambi40.png","常人","simultaneous",""
"","","","","","html-keyboard-response","416","538587","0.0-13.0-2.0-1.0-0.1-1.102","null","<span style='color:GreenYellow; font-size: 70px;'>正确! </span>","null","","","","","","","","","","","","","","","","","","","","","","","feedback_test"
"","","","","","psychophysics","417","540669","0.0-13.0-2.0-1.0-0.1-0.103","1068","","f","","","","","","","","","","","","","key","f","16.666000000000516","720","446","f","true","img/S_ambi40.png","坏人","simultaneous",""
"","","","","","html-keyboard-response","418","540977","0.0-13.0-2.0-1.0-0.1-1.103","null","<span style='color:GreenYellow; font-size: 70px;'>正确! </span>","null","","","","","","","","","","","","","","","","","","","","","","","feedback_test"
"","","","","","psychophysics","419","542790","0.0-13.0-2.0-1.0-0.1-0.104","808","","j","","","","","","","","","","","","","key","j","16.666000000000672","720","446","j","true","img/S_ambi40.png","常人","simultaneous",""
"","","","","","html-keyboard-response","420","543096","0.0-13.0-2.0-1.0-0.1-1.104","null","<span style='color:GreenYellow; font-size: 70px;'>正确! </span>","null","","","","","","","","","","","","","","","","","","","","","","","feedback_test"
"","","","","","psychophysics","421","545119","0.0-13.0-2.0-1.0-0.1-0.105","1019","","f","","","","","","","","","","","","","key","f","16.666000000000086","720","446","f","true","img/S_ambi40.png","好人","simultaneous",""
"","","","","","html-keyboard-response","422","545427","0.0-13.0-2.0-1.0-0.1-1.105","null","<span style='color:GreenYellow; font-size: 70px;'>正确! </span>","null","","","","","","","","","","","","","","","","","","","","","","","feedback_test"
"","","","","","psychophysics","423","547408","0.0-13.0-2.0-1.0-0.1-0.106","976","","f","","","","","","","","","","","","","key","f","16.665999999999904","720","446","j","false","img/C_ambi40.png","坏人","simultaneous",""
"","","","","","html-keyboard-response","424","547723","0.0-13.0-2.0-1.0-0.1-1.106","null","<span style='color:red; font-size: 70px;'>错误! </span>","null","","","","","","","","","","","","","","","","","","","","","","","feedback_test"
"","","","","","psychophysics","425","549463","0.0-13.0-2.0-1.0-0.1-0.107","735","","j","","","","","","","","","","","","","key","j","16.665999999999983","720","446","j","true","img/C_ambi40.png","坏人","simultaneous",""
"","","","","","html-keyboard-response","426","549770","0.0-13.0-2.0-1.0-0.1-1.107","null","<span style='color:GreenYellow; font-size: 70px;'>正确! </span>","null","","","","","","","","","","","","","","","","","","","","","","","feedback_test"
"","","","","","psychophysics","427","551540","0.0-13.0-2.0-1.0-0.1-0.108","764","","f","","","","","","","","","","","","","key","f","16.66599999999938","720","446","f","true","img/T_ambi40.png","常人","simultaneous",""
"","","","","","html-keyboard-response","428","551851","0.0-13.0-2.0-1.0-0.1-1.108","null","<span style='color:GreenYellow; font-size: 70px;'>正确! </span>","null","","","","","","","","","","","","","","","","","","","","","","","feedback_test"
"","","","","","psychophysics","429","553926","0.0-13.0-2.0-1.0-0.1-0.109","1070","","f","","","","","","","","","","","","","key","f","16.665999999999567","720","446","f","true","img/S_ambi40.png","好人","simultaneous",""
"","","","","","html-keyboard-response","430","554241","0.0-13.0-2.0-1.0-0.1-1.109","null","<span style='color:GreenYellow; font-size: 70px;'>正确! </span>","null","","","","","","","","","","","","","","","","","","","","","","","feedback_test"
"","","","","","psychophysics","431","556105","0.0-13.0-2.0-1.0-0.1-0.110","857","","j","","","","","","","","","","","","","key","j","16.665999999999798","720","446","j","true","img/T_ambi40.png","好人","simultaneous",""
"","","","","","html-keyboard-response","432","556416","0.0-13.0-2.0-1.0-0.1-1.110","null","<span style='color:GreenYellow; font-size: 70px;'>正确! </span>","null","","","","","","","","","","","","","","","","","","","","","","","feedback_test"
"","","","","","psychophysics","433","558175","0.0-13.0-2.0-1.0-0.1-0.111","758","","f","","","","","","","","","","","","","key","f","16.675086538461844","720","446","j","false","img/C_ambi40.png","坏人","simultaneous",""
"","","","","","html-keyboard-response","434","558481","0.0-13.0-2.0-1.0-0.1-1.111","null","<span style='color:red; font-size: 70px;'>错误! </span>","null","","","","","","","","","","","","","","","","","","","","","","","feedback_test"
