"success","timeout","failed_images","failed_audio","failed_video","trial_type","trial_index","time_elapsed","internal_node_id","rt","stimulus","response","value","item_width_mm","item_height_mm","item_width_px","px2mm","view_dist_mm","item_width_deg","px2deg","scale_factor","win_width_deg","win_height_deg","view_history","response_type","key_press","avg_frame_time","center_x","center_y","correct_response","correct","Image","word","condition","screen_id"
"true","false","[]","[]","[]","preload","0","295","0.0-0.0","","","","","","","","","","","","","","","","","","","","","","","","","",""
"","","","","","html-keyboard-response","1","11488","0.0-1.0","11192","
     <p>您好，欢迎参加本次实验。</p>
     <p>为充分保障您的权利，请确保您已经知晓并同意《参与实验同意书》以及《数据公开知情同意书》。</p>
     <p>如果您未见过上述内容，请咨询实验员。</p>
     <p>如果您选择继续实验，则表示您已经清楚两份知情同意书的内容并同意。</p>
     <p> <div style = ""color: green""><按任意键至下页></div> </p>
     "," ","","","","","","","","","","","","","","","","","","","","","","",""
"","","","","","html-keyboard-response","2","15055","0.0-2.0","3567","
     <p>本实验首先需要您填写一些基本个人信息。</p>
     <p> <div style = ""color: green""><按任意键至下页></div></p>
     "," ","","","","","","","","","","","","","","","","","","","","","","",""
"","","","","","call-function","3","15055","0.0-3.0-0.0","","","","","","","","","","","","","","","","","","","","","","","","","",""
"","","","","","survey-html-form","4","19524","0.0-3.0-1.0","4465","","{""Q0"":""30""}","","","","","","","","","","","","","","","","","","","","","","",""
"","","","","","html-button-response","5","21423","0.0-3.0-2.0","1897","<p style = 'color : white'>您的性别</p>","1","","","","","","","","","","","","","","","","","","","","","","",""
"","","","","","survey-html-form","6","26521","0.0-3.0-3.0","5097","","{""Q0"":""2004""}","","","","","","","","","","","","","","","","","","","","","","",""
"","","","","","survey-html-form","7","30210","0.0-3.0-4.0","3689","","{""Q0"":""5""}","","","","","","","","","","","","","","","","","","","","","","",""
"","","","","","virtual-chinrest","8","86982","0.0-4.0","56770","","","","85.6","53.98","500.26070008280107","5.845743012203519","488.95","10.005214001656023","50","0.7116289565442105","24.66","12.02","","","","","","","","","","","",""
"true","","","","","fullscreen","9","91322","0.0-5.0","","","","","","","","","","","","","","","","","","","","","","","","","",""
"","","","","","instructions","10","184040","0.0-6.0","92717","","","","","","","","","","","","","","[{""page_index"":0,""viewing_time"":7657},{""page_index"":1,""viewing_time"":70075},{""page_index"":2,""viewing_time"":9715},{""page_index"":3,""viewing_time"":5271}]","","","","","","","","","","",""
"","","","","","psychophysics","11","185835","0.0-7.0-0.0-0.0","634","","f","","","","","","","","","","","","","key","f","16.652028301886705","640","356","f","true","img/S_ambi40.png","常人","prac_image_first",""
"","","","","","html-keyboard-response","12","186138","0.0-7.0-0.0-1.0","null","<span style='color:GreenYellow; font-size: 70px;'>正确! </span>","null","","","","","","","","","","","","","","","","","","","","","","","feedback_test"
"","","","","","psychophysics","13","187710","0.0-7.0-0.0-0.1","417","","j","","","","","","","","","","","","","key","j","16.66082795698919","640","356","j","true","img/S_ambi40.png","好人","prac_image_first",""
"","","","","","html-keyboard-response","14","188023","0.0-7.0-0.0-1.1","null","<span style='color:GreenYellow; font-size: 70px;'>正确! </span>","null","","","","","","","","","","","","","","","","","","","","","","","feedback_test"
"","","","","","psychophysics","15","189604","0.0-7.0-0.0-0.2","422","","j","","","","","","","","","","","","","key","j","16.651776595744913","640","356","j","true","img/T_ambi40.png","常人","prac_image_first",""
"","","","","","html-keyboard-response","16","189918","0.0-7.0-0.0-1.2","null","<span style='color:GreenYellow; font-size: 70px;'>正确! </span>","null","","","","","","","","","","","","","","","","","","","","","","","feedback_test"
"","","","","","psychophysics","17","191494","0.0-7.0-0.0-0.3","414","","j","","","","","","","","","","","","","key","j","16.637526881720206","640","356","j","true","img/S_ambi40.png","坏人","prac_image_first",""
"","","","","","html-keyboard-response","18","191796","0.0-7.0-0.0-1.3","null","<span style='color:GreenYellow; font-size: 70px;'>正确! </span>","null","","","","","","","","","","","","","","","","","","","","","","","feedback_test"
"","","","","","psychophysics","19","193436","0.0-7.0-0.0-0.4","490","","j","","","","","","","","","","","","","key","j","16.6608247422681","640","356","f","false","img/C_ambi40.png","好人","prac_image_first",""
"","","","","","html-keyboard-response","20","193751","0.0-7.0-0.0-1.4","null","<span style='color:red; font-size: 70px;'>错误! </span>","null","","","","","","","","","","","","","","","","","","","","","","","feedback_test"
"","","","","","psychophysics","21","195569","0.0-7.0-0.0-0.5","658","","j","","","","","","","","","","","","","key","j","16.656379629629587","640","356","f","false","img/S_ambi40.png","常人","prac_image_first",""
"","","","","","html-keyboard-response","22","195881","0.0-7.0-0.0-1.5","null","<span style='color:red; font-size: 70px;'>错误! </span>","null","","","","","","","","","","","","","","","","","","","","","","","feedback_test"
"","","","","","psychophysics","23","197876","0.0-7.0-0.0-0.6","833","","j","","","","","","","","","","","","","key","j","16.653117647058743","640","356","j","true","img/C_ambi40.png","常人","prac_image_first",""
"","","","","","html-keyboard-response","24","198181","0.0-7.0-0.0-1.6","null","<span style='color:GreenYellow; font-size: 70px;'>正确! </span>","null","","","","","","","","","","","","","","","","","","","","","","","feedback_test"
"","","","","","psychophysics","25","199762","0.0-7.0-0.0-0.7","420","","f","","","","","","","","","","","","","key","f","16.650063829787232","640","356","f","true","img/T_ambi40.png","坏人","prac_image_first",""
"","","","","","html-keyboard-response","26","200063","0.0-7.0-0.0-1.7","null","<span style='color:GreenYellow; font-size: 70px;'>正确! </span>","null","","","","","","","","","","","","","","","","","","","","","","","feedback_test"
"","","","","","psychophysics","27","201655","0.0-7.0-0.0-0.8","440","","j","","","","","","","","","","","","","key","j","16.65032978723398","640","356","f","false","img/T_ambi40.png","坏人","prac_image_first",""
"","","","","","html-keyboard-response","28","201960","0.0-7.0-0.0-1.8","null","<span style='color:red; font-size: 70px;'>错误! </span>","null","","","","","","","","","","","","","","","","","","","","","","","feedback_test"
"","","","","","psychophysics","29","203996","0.0-7.0-0.0-0.9","876","","f","","","","","","","","","","","","","key","f","16.65169421487612","640","356","f","true","img/C_ambi40.png","好人","prac_image_first",""
"","","","","","html-keyboard-response","30","204299","0.0-7.0-0.0-1.9","null","<span style='color:GreenYellow; font-size: 70px;'>正确! </span>","null","","","","","","","","","","","","","","","","","","","","","","","feedback_test"
"","","","","","psychophysics","31","206251","0.0-7.0-0.0-0.10","799","","j","","","","","","","","","","","","","key","j","16.65282758620692","640","356","j","true","img/C_ambi40.png","坏人","prac_image_first",""
"","","","","","html-keyboard-response","32","206560","0.0-7.0-0.0-1.10","null","<span style='color:GreenYellow; font-size: 70px;'>正确! </span>","null","","","","","","","","","","","","","","","","","","","","","","","feedback_test"
"","","","","","psychophysics","33","208223","0.0-7.0-0.0-0.11","506","","j","","","","","","","","","","","","","key","j","16.654888888888916","640","356","j","true","img/T_ambi40.png","好人","prac_image_first",""
"","","","","","html-keyboard-response","34","208532","0.0-7.0-0.0-1.11","null","<span style='color:GreenYellow; font-size: 70px;'>正确! </span>","null","","","","","","","","","","","","","","","","","","","","","","","feedback_test"
"","","","","","psychophysics","35","210421","0.0-7.0-0.0-0.12","738","","j","","","","","","","","","","","","","key","j","16.64330357142847","640","356","j","true","img/T_ambi40.png","好人","prac_image_first",""
"","","","","","html-keyboard-response","36","210726","0.0-7.0-0.0-1.12","null","<span style='color:GreenYellow; font-size: 70px;'>正确! </span>","null","","","","","","","","","","","","","","","","","","","","","","","feedback_test"
"","","","","","psychophysics","37","212710","0.0-7.0-0.0-0.13","831","","f","","","","","","","","","","","","","key","f","16.65292372881342","640","356","j","false","img/C_ambi40.png","常人","prac_image_first",""
"","","","","","html-keyboard-response","38","213016","0.0-7.0-0.0-1.13","null","<span style='color:red; font-size: 70px;'>错误! </span>","null","","","","","","","","","","","","","","","","","","","","","","","feedback_test"
"","","","","","psychophysics","39","215054","0.0-7.0-0.0-0.14","886","","f","","","","","","","","","","","","","key","f","16.640041322314108","640","356","f","true","img/C_ambi40.png","好人","prac_image_first",""
"","","","","","html-keyboard-response","40","215364","0.0-7.0-0.0-1.14","null","<span style='color:GreenYellow; font-size: 70px;'>正确! </span>","null","","","","","","","","","","","","","","","","","","","","","","","feedback_test"
"","","","","","psychophysics","41","217015","0.0-7.0-0.0-0.15","498","","j","","","","","","","","","","","","","key","j","16.651071428571356","640","356","j","true","img/S_ambi40.png","好人","prac_image_first",""
"","","","","","html-keyboard-response","42","217322","0.0-7.0-0.0-1.15","null","<span style='color:GreenYellow; font-size: 70px;'>正确! </span>","null","","","","","","","","","","","","","","","","","","","","","","","feedback_test"
"","","","","","psychophysics","43","219224","0.0-7.0-0.0-0.16","749","","j","","","","","","","","","","","","","key","j","16.65463716814148","640","356","f","false","img/T_ambi40.png","坏人","prac_image_first",""
"","","","","","html-keyboard-response","44","219530","0.0-7.0-0.0-1.16","null","<span style='color:red; font-size: 70px;'>错误! </span>","null","","","","","","","","","","","","","","","","","","","","","","","feedback_test"
"","","","","","psychophysics","45","222189","0.0-7.0-0.0-0.17","null","","null","","","","","","","","","","","","","key","null","16.645677215189828","640","356","f","false","img/S_ambi40.png","常人","prac_image_first",""
"","","","","","html-keyboard-response","46","222501","0.0-7.0-0.0-1.17","null","<span class='add_' style='color:yellow; font-size: 70px;'> 太慢! </span>","null","","","","","","","","","","","","","","","","","","","","","","","feedback_test"
"","","","","","psychophysics","47","224231","0.0-7.0-0.0-0.18","580","","j","","","","","","","","","","","","","key","j","16.65370873786403","640","356","j","true","img/T_ambi40.png","常人","prac_image_first",""
"","","","","","html-keyboard-response","48","224537","0.0-7.0-0.0-1.18","null","<span style='color:GreenYellow; font-size: 70px;'>正确! </span>","null","","","","","","","","","","","","","","","","","","","","","","","feedback_test"
"","","","","","psychophysics","49","226116","0.0-7.0-0.0-0.19","426","","f","","","","","","","","","","","","","key","f","16.65172043010769","640","356","f","true","img/S_ambi40.png","常人","prac_image_first",""
"","","","","","html-keyboard-response","50","226422","0.0-7.0-0.0-1.19","null","<span style='color:GreenYellow; font-size: 70px;'>正确! </span>","null","","","","","","","","","","","","","","","","","","","","","","","feedback_test"
"","","","","","psychophysics","51","228153","0.0-7.0-0.0-0.20","575","","j","","","","","","","","","","","","","key","j","16.653106796116404","640","356","j","true","img/S_ambi40.png","坏人","prac_image_first",""
"","","","","","html-keyboard-response","52","228466","0.0-7.0-0.0-1.20","null","<span style='color:GreenYellow; font-size: 70px;'>正确! </span>","null","","","","","","","","","","","","","","","","","","","","","","","feedback_test"
"","","","","","psychophysics","53","230469","0.0-7.0-0.0-0.21","853","","j","","","","","","","","","","","","","key","j","16.63979831932772","640","356","j","true","img/C_ambi40.png","坏人","prac_image_first",""
"","","","","","html-keyboard-response","54","230785","0.0-7.0-0.0-1.21","null","<span style='color:GreenYellow; font-size: 70px;'>正确! </span>","null","","","","","","","","","","","","","","","","","","","","","","","feedback_test"
"","","","","","psychophysics","55","232449","0.0-7.0-0.0-0.22","510","","j","","","","","","","","","","","","","key","j","16.65287878787859","640","356","f","false","img/T_ambi40.png","坏人","prac_image_first",""
"","","","","","html-keyboard-response","56","232764","0.0-7.0-0.0-1.22","null","<span style='color:red; font-size: 70px;'>错误! </span>","null","","","","","","","","","","","","","","","","","","","","","","","feedback_test"
"","","","","","psychophysics","57","234781","0.0-7.0-0.0-0.23","856","","f","","","","","","","","","","","","","key","f","16.652549999999852","640","356","f","true","img/C_ambi40.png","好人","prac_image_first",""
"","","","","","html-keyboard-response","58","235094","0.0-7.0-0.0-1.23","null","<span style='color:GreenYellow; font-size: 70px;'>正确! </span>","null","","","","","","","","","","","","","","","","","","","","","","","feedback_test"
"","","","","","html-keyboard-response","59","238556","0.0-8.0","3461","<style>.context{color:white; font-size: 35px; line-height:40px}</style>                              <div><p class='context'>您正确回答了71% 的试次。</p><p class='context'>您的平均反应时为631毫秒。</p><p class='context'>恭喜您完成这一阶段的练习。按任意键进入<span style='color: yellow;'>先文字后图形条件</span>的练习。</p></div>","j","","","","","","","","","","","","","","","","","","","","","","",""
"","","","","","psychophysics","60","240441","0.0-9.0-0.0-0.0","721","","j","","","","","","","","","","","","","key","j","16.65077876106195","640","356","j","true","img/T_ambi40.png","好人","prac_word_first",""
"","","","","","html-keyboard-response","61","240748","0.0-9.0-0.0-1.0","null","<span style='color:GreenYellow; font-size: 70px;'>正确! </span>","null","","","","","","","","","","","","","","","","","","","","","","","feedback_test"
"","","","","","psychophysics","62","242484","0.0-9.0-0.0-0.1","581","","f","","","","","","","","","","","","","key","f","16.64885436893199","640","356","f","true","img/C_ambi40.png","好人","prac_word_first",""
"","","","","","html-keyboard-response","63","242788","0.0-9.0-0.0-1.1","null","<span style='color:GreenYellow; font-size: 70px;'>正确! </span>","null","","","","","","","","","","","","","","","","","","","","","","","feedback_test"
"","","","","","psychophysics","64","244492","0.0-9.0-0.0-0.2","543","","j","","","","","","","","","","","","","key","j","16.65150495049501","640","356","j","true","img/T_ambi40.png","常人","prac_word_first",""
"","","","","","html-keyboard-response","65","244807","0.0-9.0-0.0-1.2","null","<span style='color:GreenYellow; font-size: 70px;'>正确! </span>","null","","","","","","","","","","","","","","","","","","","","","","","feedback_test"
"","","","","","psychophysics","66","246555","0.0-9.0-0.0-0.3","591","","j","","","","","","","","","","","","","key","j","16.65080769230749","640","356","j","true","img/C_ambi40.png","常人","prac_word_first",""
"","","","","","html-keyboard-response","67","246862","0.0-9.0-0.0-1.3","null","<span style='color:GreenYellow; font-size: 70px;'>正确! </span>","null","","","","","","","","","","","","","","","","","","","","","","","feedback_test"
"","","","","","psychophysics","68","248643","0.0-9.0-0.0-0.4","629","","f","","","","","","","","","","","","","key","f","16.626632075471516","640","356","f","true","img/T_ambi40.png","坏人","prac_word_first",""
"","","","","","html-keyboard-response","69","248946","0.0-9.0-0.0-1.4","null","<span style='color:GreenYellow; font-size: 70px;'>正确! </span>","null","","","","","","","","","","","","","","","","","","","","","","","feedback_test"
"","","","","","psychophysics","70","250658","0.0-9.0-0.0-0.5","559","","f","","","","","","","","","","","","","key","f","16.656911764705644","640","356","f","true","img/T_ambi40.png","坏人","prac_word_first",""
"","","","","","html-keyboard-response","71","250966","0.0-9.0-0.0-1.5","null","<span style='color:GreenYellow; font-size: 70px;'>正确! </span>","null","","","","","","","","","","","","","","","","","","","","","","","feedback_test"
"","","","","","psychophysics","72","252639","0.0-9.0-0.0-0.6","520","","f","","","","","","","","","","","","","key","f","16.643666666666647","640","356","f","true","img/C_ambi40.png","好人","prac_word_first",""
"","","","","","html-keyboard-response","73","252948","0.0-9.0-0.0-1.6","null","<span style='color:GreenYellow; font-size: 70px;'>正确! </span>","null","","","","","","","","","","","","","","","","","","","","","","","feedback_test"
"","","","","","psychophysics","74","254832","0.0-9.0-0.0-0.7","733","","j","","","","","","","","","","","","","key","j","16.650526785714256","640","356","j","true","img/S_ambi40.png","坏人","prac_word_first",""
"","","","","","html-keyboard-response","75","255139","0.0-9.0-0.0-1.7","null","<span style='color:GreenYellow; font-size: 70px;'>正确! </span>","null","","","","","","","","","","","","","","","","","","","","","","","feedback_test"
"","","","","","psychophysics","76","256848","0.0-9.0-0.0-0.8","555","","j","","","","","","","","","","","","","key","j","16.651705882353102","640","356","j","true","img/S_ambi40.png","好人","prac_word_first",""
"","","","","","html-keyboard-response","77","257164","0.0-9.0-0.0-1.8","null","<span style='color:GreenYellow; font-size: 70px;'>正确! </span>","null","","","","","","","","","","","","","","","","","","","","","","","feedback_test"
"","","","","","psychophysics","78","259233","0.0-9.0-0.0-0.9","908","","f","","","","","","","","","","","","","key","f","16.63579674796755","640","356","f","true","img/S_ambi40.png","常人","prac_word_first",""
"","","","","","html-keyboard-response","79","259550","0.0-9.0-0.0-1.9","null","<span style='color:GreenYellow; font-size: 70px;'>正确! </span>","null","","","","","","","","","","","","","","","","","","","","","","","feedback_test"
"","","","","","psychophysics","80","261143","0.0-9.0-0.0-0.10","438","","f","","","","","","","","","","","","","key","f","16.647252631578656","640","356","f","true","img/S_ambi40.png","常人","prac_word_first",""
"","","","","","html-keyboard-response","81","261449","0.0-9.0-0.0-1.10","null","<span style='color:GreenYellow; font-size: 70px;'>正确! </span>","null","","","","","","","","","","","","","","","","","","","","","","","feedback_test"
"","","","","","psychophysics","82","263240","0.0-9.0-0.0-0.11","636","","j","","","","","","","","","","","","","key","j","16.642981308411205","640","356","j","true","img/C_ambi40.png","坏人","prac_word_first",""
"","","","","","html-keyboard-response","83","263550","0.0-9.0-0.0-1.11","null","<span style='color:GreenYellow; font-size: 70px;'>正确! </span>","null","","","","","","","","","","","","","","","","","","","","","","","feedback_test"
"","","","","","psychophysics","84","265171","0.0-9.0-0.0-0.12","470","","f","","","","","","","","","","","","","key","f","16.649670103092596","640","356","f","true","img/S_ambi40.png","常人","prac_word_first",""
"","","","","","html-keyboard-response","85","265483","0.0-9.0-0.0-1.12","null","<span style='color:GreenYellow; font-size: 70px;'>正确! </span>","null","","","","","","","","","","","","","","","","","","","","","","","feedback_test"
"","","","","","psychophysics","86","267082","0.0-9.0-0.0-0.13","449","","j","","","","","","","","","","","","","key","j","16.653705263157423","640","356","j","true","img/T_ambi40.png","常人","prac_word_first",""
"","","","","","html-keyboard-response","87","267393","0.0-9.0-0.0-1.13","null","<span style='color:GreenYellow; font-size: 70px;'>正确! </span>","null","","","","","","","","","","","","","","","","","","","","","","","feedback_test"
"","","","","","psychophysics","88","269226","0.0-9.0-0.0-0.14","676","","f","","","","","","","","","","","","","key","f","16.64577981651389","640","356","f","true","img/T_ambi40.png","坏人","prac_word_first",""
"","","","","","html-keyboard-response","89","269537","0.0-9.0-0.0-1.14","null","<span style='color:GreenYellow; font-size: 70px;'>正确! </span>","null","","","","","","","","","","","","","","","","","","","","","","","feedback_test"
"","","","","","psychophysics","90","271227","0.0-9.0-0.0-0.15","537","","f","","","","","","","","","","","","","key","f","16.637300000000394","640","356","f","true","img/C_ambi40.png","好人","prac_word_first",""
"","","","","","html-keyboard-response","91","271543","0.0-9.0-0.0-1.15","null","<span style='color:GreenYellow; font-size: 70px;'>正确! </span>","null","","","","","","","","","","","","","","","","","","","","","","","feedback_test"
"","","","","","psychophysics","92","273260","0.0-9.0-0.0-0.16","564","","j","","","","","","","","","","","","","key","j","16.65814705882347","640","356","j","true","img/C_ambi40.png","常人","prac_word_first",""
"","","","","","html-keyboard-response","93","273565","0.0-9.0-0.0-1.16","null","<span style='color:GreenYellow; font-size: 70px;'>正确! </span>","null","","","","","","","","","","","","","","","","","","","","","","","feedback_test"
"","","","","","psychophysics","94","275386","0.0-9.0-0.0-0.17","659","","j","","","","","","","","","","","","","key","j","16.651370370370355","640","356","j","true","img/S_ambi40.png","坏人","prac_word_first",""
"","","","","","html-keyboard-response","95","275699","0.0-9.0-0.0-1.17","null","<span style='color:GreenYellow; font-size: 70px;'>正确! </span>","null","","","","","","","","","","","","","","","","","","","","","","","feedback_test"
"","","","","","psychophysics","96","277352","0.0-9.0-0.0-0.18","501","","j","","","","","","","","","","","","","key","j","16.654316326530832","640","356","j","true","img/S_ambi40.png","好人","prac_word_first",""
"","","","","","html-keyboard-response","97","277657","0.0-9.0-0.0-1.18","null","<span style='color:GreenYellow; font-size: 70px;'>正确! </span>","null","","","","","","","","","","","","","","","","","","","","","","","feedback_test"
"","","","","","psychophysics","98","279497","0.0-9.0-0.0-0.19","689","","j","","","","","","","","","","","","","key","j","16.526412844036837","640","356","j","true","img/C_ambi40.png","坏人","prac_word_first",""
"","","","","","html-keyboard-response","99","279805","0.0-9.0-0.0-1.19","null","<span style='color:GreenYellow; font-size: 70px;'>正确! </span>","null","","","","","","","","","","","","","","","","","","","","","","","feedback_test"
"","","","","","psychophysics","100","281476","0.0-9.0-0.0-0.20","519","","f","","","","","","","","","","","","","key","f","16.506111111110922","640","356","f","true","img/S_ambi40.png","常人","prac_word_first",""
"","","","","","html-keyboard-response","101","281783","0.0-9.0-0.0-1.20","null","<span style='color:GreenYellow; font-size: 70px;'>正确! </span>","null","","","","","","","","","","","","","","","","","","","","","","","feedback_test"
"","","","","","psychophysics","102","283495","0.0-9.0-0.0-0.21","558","","f","","","","","","","","","","","","","key","f","16.64759803921562","640","356","f","true","img/C_ambi40.png","好人","prac_word_first",""
"","","","","","html-keyboard-response","103","283809","0.0-9.0-0.0-1.21","null","<span style='color:GreenYellow; font-size: 70px;'>正确! </span>","null","","","","","","","","","","","","","","","","","","","","","","","feedback_test"
"","","","","","psychophysics","104","285503","0.0-9.0-0.0-0.22","534","","f","","","","","","","","","","","","","key","f","16.646217821782","640","356","f","true","img/T_ambi40.png","坏人","prac_word_first",""
"","","","","","html-keyboard-response","105","285810","0.0-9.0-0.0-1.22","null","<span style='color:GreenYellow; font-size: 70px;'>正确! </span>","null","","","","","","","","","","","","","","","","","","","","","","","feedback_test"
"","","","","","psychophysics","106","287430","0.0-9.0-0.0-0.23","459","","j","","","","","","","","","","","","","key","j","16.65081250000003","640","356","j","true","img/T_ambi40.png","好人","prac_word_first",""
"","","","","","html-keyboard-response","107","287740","0.0-9.0-0.0-1.23","null","<span style='color:GreenYellow; font-size: 70px;'>正确! </span>","null","","","","","","","","","","","","","","","","","","","","","","","feedback_test"
"","","","","","html-keyboard-response","108","292435","0.0-10.0","4694","<style>.context{color:white; font-size: 35px; line-height:40px}</style>                              <div><p class='context'>您正确回答了100% 的试次。</p><p class='context'>您的平均反应时为585毫秒。</p><p class='context'>恭喜您完成练习。按任意键进入<span style='color: yellow;'>图形和文字同时呈现条件</span>的练习。</p></div>","j","","","","","","","","","","","","","","","","","","","","","","",""
"","","","","","psychophysics","109","294343","0.0-11.0-0.0-0.0","898","","j","","","","","","","","","","","","","key","j","16.651628318584248","640","356","j","true","img/C_ambi40.png","坏人","prac_simultaneous",""
"","","","","","html-keyboard-response","110","294659","0.0-11.0-0.0-1.0","null","<span style='color:GreenYellow; font-size: 70px;'>正确! </span>","null","","","","","","","","","","","","","","","","","","","","","","","feedback_test"
"","","","","","psychophysics","111","296688","0.0-11.0-0.0-0.1","1027","","f","","","","","","","","","","","","","key","f","16.548033333333056","640","356","f","true","img/C_ambi40.png","好人","prac_simultaneous",""
"","","","","","html-keyboard-response","112","297004","0.0-11.0-0.0-1.1","null","<span style='color:GreenYellow; font-size: 70px;'>正确! </span>","null","","","","","","","","","","","","","","","","","","","","","","","feedback_test"
"","","","","","psychophysics","113","298619","0.0-11.0-0.0-0.2","610","","f","","","","","","","","","","","","","key","f","16.652427083333652","640","356","f","true","img/T_ambi40.png","坏人","prac_simultaneous",""
"","","","","","html-keyboard-response","114","298931","0.0-11.0-0.0-1.2","null","<span style='color:GreenYellow; font-size: 70px;'>正确! </span>","null","","","","","","","","","","","","","","","","","","","","","","","feedback_test"
"","","","","","psychophysics","115","300615","0.0-11.0-0.0-0.3","675","","f","","","","","","","","","","","","","key","f","16.654170000000157","640","356","f","true","img/S_ambi40.png","常人","prac_simultaneous",""
"","","","","","html-keyboard-response","116","300928","0.0-11.0-0.0-1.3","null","<span style='color:GreenYellow; font-size: 70px;'>正确! </span>","null","","","","","","","","","","","","","","","","","","","","","","","feedback_test"
"","","","","","psychophysics","117","302561","0.0-11.0-0.0-0.4","626","","j","","","","","","","","","","","","","key","j","16.64934020618591","640","356","j","true","img/T_ambi40.png","好人","prac_simultaneous",""
"","","","","","html-keyboard-response","118","302865","0.0-11.0-0.0-1.4","null","<span style='color:GreenYellow; font-size: 70px;'>正确! </span>","null","","","","","","","","","","","","","","","","","","","","","","","feedback_test"
"","","","","","psychophysics","119","304608","0.0-11.0-0.0-0.5","739","","j","","","","","","","","","","","","","key","j","16.65406730769274","640","356","j","true","img/S_ambi40.png","好人","prac_simultaneous",""
"","","","","","html-keyboard-response","120","304917","0.0-11.0-0.0-1.5","null","<span style='color:GreenYellow; font-size: 70px;'>正确! </span>","null","","","","","","","","","","","","","","","","","","","","","","","feedback_test"
"","","","","","psychophysics","121","306859","0.0-11.0-0.0-0.6","940","","f","","","","","","","","","","","","","key","f","16.64477586206892","640","356","f","true","img/S_ambi40.png","常人","prac_simultaneous",""
"","","","","","html-keyboard-response","122","307160","0.0-11.0-0.0-1.6","null","<span style='color:GreenYellow; font-size: 70px;'>正确! </span>","null","","","","","","","","","","","","","","","","","","","","","","","feedback_test"
"","","","","","psychophysics","123","308986","0.0-11.0-0.0-0.7","818","","j","","","","","","","","","","","","","key","j","16.650238532109995","640","356","j","true","img/C_ambi40.png","常人","prac_simultaneous",""
"","","","","","html-keyboard-response","124","309292","0.0-11.0-0.0-1.7","null","<span style='color:GreenYellow; font-size: 70px;'>正确! </span>","null","","","","","","","","","","","","","","","","","","","","","","","feedback_test"
"","","","","","psychophysics","125","310949","0.0-11.0-0.0-0.8","650","","j","","","","","","","","","","","","","key","j","16.65506060606085","640","356","f","false","img/C_ambi40.png","好人","prac_simultaneous",""
"","","","","","html-keyboard-response","126","311253","0.0-11.0-0.0-1.8","null","<span style='color:red; font-size: 70px;'>错误! </span>","null","","","","","","","","","","","","","","","","","","","","","","","feedback_test"
"","","","","","psychophysics","127","313012","0.0-11.0-0.0-0.9","749","","f","","","","","","","","","","","","","key","f","16.642673076922968","640","356","f","true","img/T_ambi40.png","坏人","prac_simultaneous",""
"","","","","","html-keyboard-response","128","313320","0.0-11.0-0.0-1.9","null","<span style='color:GreenYellow; font-size: 70px;'>正确! </span>","null","","","","","","","","","","","","","","","","","","","","","","","feedback_test"
"","","","","","psychophysics","129","315047","0.0-11.0-0.0-0.10","726","","j","","","","","","","","","","","","","key","j","16.652970873786348","640","356","j","true","img/S_ambi40.png","坏人","prac_simultaneous",""
"","","","","","html-keyboard-response","130","315350","0.0-11.0-0.0-1.10","null","<span style='color:GreenYellow; font-size: 70px;'>正确! </span>","null","","","","","","","","","","","","","","","","","","","","","","","feedback_test"
"","","","","","psychophysics","131","317039","0.0-11.0-0.0-0.11","680","","j","","","","","","","","","","","","","key","j","16.633360000000103","640","356","j","true","img/T_ambi40.png","常人","prac_simultaneous",""
"","","","","","html-keyboard-response","132","317346","0.0-11.0-0.0-1.11","null","<span style='color:GreenYellow; font-size: 70px;'>正确! </span>","null","","","","","","","","","","","","","","","","","","","","","","","feedback_test"
"","","","","","psychophysics","133","319254","0.0-11.0-0.0-0.12","896","","j","","","","","","","","","","","","","key","j","16.651115044247796","640","356","j","true","img/S_ambi40.png","好人","prac_simultaneous",""
"","","","","","html-keyboard-response","134","319556","0.0-11.0-0.0-1.12","null","<span style='color:GreenYellow; font-size: 70px;'>正确! </span>","null","","","","","","","","","","","","","","","","","","","","","","","feedback_test"
"","","","","","psychophysics","135","321562","0.0-11.0-0.0-0.13","1005","","j","","","","","","","","","","","","","key","j","16.536142857143158","640","356","j","true","img/S_ambi40.png","坏人","prac_simultaneous",""
"","","","","","html-keyboard-response","136","321875","0.0-11.0-0.0-1.13","null","<span style='color:GreenYellow; font-size: 70px;'>正确! </span>","null","","","","","","","","","","","","","","","","","","","","","","","feedback_test"
"","","","","","psychophysics","137","323685","0.0-11.0-0.0-0.14","797","","f","","","","","","","","","","","","","key","f","16.65498130841161","640","356","f","true","img/C_ambi40.png","好人","prac_simultaneous",""
"","","","","","html-keyboard-response","138","323993","0.0-11.0-0.0-1.14","null","<span style='color:GreenYellow; font-size: 70px;'>正确! </span>","null","","","","","","","","","","","","","","","","","","","","","","","feedback_test"
"","","","","","psychophysics","139","325745","0.0-11.0-0.0-0.15","746","","f","","","","","","","","","","","","","key","f","16.651721153845966","640","356","f","true","img/C_ambi40.png","好人","prac_simultaneous",""
"","","","","","html-keyboard-response","140","326059","0.0-11.0-0.0-1.15","null","<span style='color:GreenYellow; font-size: 70px;'>正确! </span>","null","","","","","","","","","","","","","","","","","","","","","","","feedback_test"
"","","","","","psychophysics","141","327758","0.0-11.0-0.0-0.16","690","","j","","","","","","","","","","","","","key","j","16.640326732672786","640","356","f","false","img/S_ambi40.png","常人","prac_simultaneous",""
"","","","","","html-keyboard-response","142","328064","0.0-11.0-0.0-1.16","null","<span style='color:red; font-size: 70px;'>错误! </span>","null","","","","","","","","","","","","","","","","","","","","","","","feedback_test"
"","","","","","psychophysics","143","329823","0.0-11.0-0.0-0.17","757","","j","","","","","","","","","","","","","key","j","16.64043809523795","640","356","j","true","img/C_ambi40.png","坏人","prac_simultaneous",""
"","","","","","html-keyboard-response","144","330126","0.0-11.0-0.0-1.17","null","<span style='color:GreenYellow; font-size: 70px;'>正确! </span>","null","","","","","","","","","","","","","","","","","","","","","","","feedback_test"
"","","","","","psychophysics","145","332360","0.0-11.0-0.0-0.18","1229","","f","","","","","","","","","","","","","key","f","16.652022556391284","640","356","f","true","img/T_ambi40.png","坏人","prac_simultaneous",""
"","","","","","html-keyboard-response","146","332671","0.0-11.0-0.0-1.18","null","<span style='color:GreenYellow; font-size: 70px;'>正确! </span>","null","","","","","","","","","","","","","","","","","","","","","","","feedback_test"
"","","","","","psychophysics","147","334399","0.0-11.0-0.0-0.19","724","","j","","","","","","","","","","","","","key","j","16.6508252427182","640","356","j","true","img/T_ambi40.png","常人","prac_simultaneous",""
"","","","","","html-keyboard-response","148","334704","0.0-11.0-0.0-1.19","null","<span style='color:GreenYellow; font-size: 70px;'>正确! </span>","null","","","","","","","","","","","","","","","","","","","","","","","feedback_test"
"","","","","","psychophysics","149","336312","0.0-11.0-0.0-0.20","601","","f","","","","","","","","","","","","","key","f","16.6527500000005","640","356","f","true","img/T_ambi40.png","坏人","prac_simultaneous",""
"","","","","","html-keyboard-response","150","336628","0.0-11.0-0.0-1.20","null","<span style='color:GreenYellow; font-size: 70px;'>正确! </span>","null","","","","","","","","","","","","","","","","","","","","","","","feedback_test"
"","","","","","psychophysics","151","338434","0.0-11.0-0.0-0.21","793","","j","","","","","","","","","","","","","key","j","16.653261682242764","640","356","j","true","img/C_ambi40.png","常人","prac_simultaneous",""
"","","","","","html-keyboard-response","152","338742","0.0-11.0-0.0-1.21","null","<span style='color:GreenYellow; font-size: 70px;'>正确! </span>","null","","","","","","","","","","","","","","","","","","","","","","","feedback_test"
"","","","","","psychophysics","153","340443","0.0-11.0-0.0-0.22","685","","j","","","","","","","","","","","","","key","j","16.651475247524743","640","356","j","true","img/T_ambi40.png","好人","prac_simultaneous",""
"","","","","","html-keyboard-response","154","340757","0.0-11.0-0.0-1.22","null","<span style='color:GreenYellow; font-size: 70px;'>正确! </span>","null","","","","","","","","","","","","","","","","","","","","","","","feedback_test"
"","","","","","psychophysics","155","342438","0.0-11.0-0.0-0.23","670","","f","","","","","","","","","","","","","key","f","16.649595959595935","640","356","f","true","img/S_ambi40.png","常人","prac_simultaneous",""
"","","","","","html-keyboard-response","156","342753","0.0-11.0-0.0-1.23","null","<span style='color:GreenYellow; font-size: 70px;'>正确! </span>","null","","","","","","","","","","","","","","","","","","","","","","","feedback_test"
"","","","","","html-keyboard-response","157","351031","0.0-12.0","8275","<style>.context{color:white; font-size: 35px; line-height:40px}</style>                              <div><p class='context'>您正确回答了92% 的试次。</p><p class='context'>您的平均反应时为791毫秒。</p><p class='context'>恭喜您完成练习。按任意键进入正式实验。</p><p class='footer' style='font-size: 35px; line-height:40px;'>请在进入正式实验实验之前将您的<span style='color: lightgreen;'>食指</span>放在电脑键盘的相应键位上进行按键。</p>","j","","","","","","","","","","","","","","","","","","","","","","",""
"","","","","","html-keyboard-response","158","354616","0.0-13.0-1.0-0.0","3583","
      <p>请您将手指放在按键上，准备进入呈现顺序为<span style='color: yellow;'>先文字后图形条件</span>的正式匹配任务</p>
      <p> <div style = ""color: green""><按任意键进入下一阶段的匹配任务></div></p>
      ","j","","","","","","","","","","","","","","","","","","","","","","",""
"","","","","","psychophysics","159","356471","0.0-13.0-1.0-1.0-0.0-0.0","694","","j","","","","","","","","","","","","","key","j","16.65115454545435","640","356","j","true","img/S_ambi40.png","坏人","word_first",""
"","","","","","html-keyboard-response","160","356775","0.0-13.0-1.0-1.0-0.0-1.0","null","<span style='color:GreenYellow; font-size: 70px;'>正确! </span>","null","","","","","","","","","","","","","","","","","","","","","","","feedback_test"
"","","","","","psychophysics","161","358513","0.0-13.0-1.0-1.0-0.0-0.1","588","","f","","","","","","","","","","","","","key","f","16.526650485436846","640","356","f","true","img/S_ambi40.png","常人","word_first",""
"","","","","","html-keyboard-response","162","358815","0.0-13.0-1.0-1.0-0.0-1.1","null","<span style='color:GreenYellow; font-size: 70px;'>正确! </span>","null","","","","","","","","","","","","","","","","","","","","","","","feedback_test"
"","","","","","psychophysics","163","360357","0.0-13.0-1.0-1.0-0.0-0.2","387","","f","","","","","","","","","","","","","key","f","16.65041304347814","640","356","f","true","img/S_ambi40.png","常人","word_first",""
"","","","","","html-keyboard-response","164","360666","0.0-13.0-1.0-1.0-0.0-1.2","null","<span style='color:GreenYellow; font-size: 70px;'>正确! </span>","null","","","","","","","","","","","","","","","","","","","","","","","feedback_test"
"","","","","","psychophysics","165","362348","0.0-13.0-1.0-1.0-0.0-0.3","529","","f","","","","","","","","","","","","","key","f","16.64984999999986","640","356","f","true","img/T_ambi40.png","坏人","word_first",""
"","","","","","html-keyboard-response","166","362660","0.0-13.0-1.0-1.0-0.0-1.3","null","<span style='color:GreenYellow; font-size: 70px;'>正确! </span>","null","","","","","","","","","","","","","","","","","","","","","","","feedback_test"
"","","","","","psychophysics","167","364369","0.0-13.0-1.0-1.0-0.0-0.4","549","","j","","","","","","","","","","","","","key","j","16.641198019801966","640","356","j","true","img/C_ambi40.png","常人","word_first",""
"","","","","","html-keyboard-response","168","364684","0.0-13.0-1.0-1.0-0.0-1.4","null","<span style='color:GreenYellow; font-size: 70px;'>正确! </span>","null","","","","","","","","","","","","","","","","","","","","","","","feedback_test"
"","","","","","psychophysics","169","366530","0.0-13.0-1.0-1.0-0.0-0.5","694","","j","","","","","","","","","","","","","key","j","16.654100000000007","640","356","j","true","img/S_ambi40.png","好人","word_first",""
"","","","","","html-keyboard-response","170","366846","0.0-13.0-1.0-1.0-0.0-1.5","null","<span style='color:GreenYellow; font-size: 70px;'>正确! </span>","null","","","","","","","","","","","","","","","","","","","","","","","feedback_test"
"","","","","","psychophysics","171","368479","0.0-13.0-1.0-1.0-0.0-0.6","482","","f","","","","","","","","","","","","","key","f","16.649288659794113","640","356","f","true","img/T_ambi40.png","坏人","word_first",""
"","","","","","html-keyboard-response","172","368791","0.0-13.0-1.0-1.0-0.0-1.6","null","<span style='color:GreenYellow; font-size: 70px;'>正确! </span>","null","","","","","","","","","","","","","","","","","","","","","","","feedback_test"
"","","","","","psychophysics","173","370559","0.0-13.0-1.0-1.0-0.0-0.7","616","","f","","","","","","","","","","","","","key","f","16.646076190476638","640","356","f","true","img/C_ambi40.png","好人","word_first",""
"","","","","","html-keyboard-response","174","370861","0.0-13.0-1.0-1.0-0.0-1.7","null","<span style='color:GreenYellow; font-size: 70px;'>正确! </span>","null","","","","","","","","","","","","","","","","","","","","","","","feedback_test"
"","","","","","psychophysics","175","372504","0.0-13.0-1.0-1.0-0.0-0.8","490","","j","","","","","","","","","","","","","key","j","16.652836734693906","640","356","j","true","img/T_ambi40.png","常人","word_first",""
"","","","","","html-keyboard-response","176","372808","0.0-13.0-1.0-1.0-0.0-1.8","null","<span style='color:GreenYellow; font-size: 70px;'>正确! </span>","null","","","","","","","","","","","","","","","","","","","","","","","feedback_test"
"","","","","","psychophysics","177","374627","0.0-13.0-1.0-1.0-0.0-0.9","664","","j","","","","","","","","","","","","","key","j","16.65076851851848","640","356","j","true","img/T_ambi40.png","好人","word_first",""
"","","","","","html-keyboard-response","178","374937","0.0-13.0-1.0-1.0-0.0-1.9","null","<span style='color:GreenYellow; font-size: 70px;'>正确! </span>","null","","","","","","","","","","","","","","","","","","","","","","","feedback_test"
"","","","","","psychophysics","179","376666","0.0-13.0-1.0-1.0-0.0-0.10","571","","j","","","","","","","","","","","","","key","j","16.656359223301354","640","356","j","true","img/C_ambi40.png","坏人","word_first",""
"","","","","","html-keyboard-response","180","376971","0.0-13.0-1.0-1.0-0.0-1.10","null","<span style='color:GreenYellow; font-size: 70px;'>正确! </span>","null","","","","","","","","","","","","","","","","","","","","","","","feedback_test"
"","","","","","psychophysics","181","378722","0.0-13.0-1.0-1.0-0.0-0.11","597","","f","","","","","","","","","","","","","key","f","16.652182692307598","640","356","f","true","img/C_ambi40.png","好人","word_first",""
"","","","","","html-keyboard-response","182","379027","0.0-13.0-1.0-1.0-0.0-1.11","null","<span style='color:GreenYellow; font-size: 70px;'>正确! </span>","null","","","","","","","","","","","","","","","","","","","","","","","feedback_test"
"","","","","","psychophysics","183","380682","0.0-13.0-1.0-1.0-0.0-0.12","503","","f","","","","","","","","","","","","","key","f","16.654234693877456","640","356","f","true","img/C_ambi40.png","好人","word_first",""
"","","","","","html-keyboard-response","184","380986","0.0-13.0-1.0-1.0-0.0-1.12","null","<span style='color:GreenYellow; font-size: 70px;'>正确! </span>","null","","","","","","","","","","","","","","","","","","","","","","","feedback_test"
"","","","","","psychophysics","185","382610","0.0-13.0-1.0-1.0-0.0-0.13","470","","j","","","","","","","","","","","","","key","j","16.652030927835384","640","356","j","true","img/S_ambi40.png","好人","word_first",""
"","","","","","html-keyboard-response","186","382916","0.0-13.0-1.0-1.0-0.0-1.13","null","<span style='color:GreenYellow; font-size: 70px;'>正确! </span>","null","","","","","","","","","","","","","","","","","","","","","","","feedback_test"
"","","","","","psychophysics","187","384694","0.0-13.0-1.0-1.0-0.0-0.14","622","","f","","","","","","","","","","","","","key","f","16.64050000000038","640","356","f","true","img/C_ambi40.png","好人","word_first",""
"","","","","","html-keyboard-response","188","385004","0.0-13.0-1.0-1.0-0.0-1.14","null","<span style='color:GreenYellow; font-size: 70px;'>正确! </span>","null","","","","","","","","","","","","","","","","","","","","","","","feedback_test"
"","","","","","psychophysics","189","386818","0.0-13.0-1.0-1.0-0.0-0.15","650","","j","","","","","","","","","","","","","key","j","16.654878504672762","640","356","j","true","img/S_ambi40.png","坏人","word_first",""
"","","","","","html-keyboard-response","190","387128","0.0-13.0-1.0-1.0-0.0-1.15","null","<span style='color:GreenYellow; font-size: 70px;'>正确! </span>","null","","","","","","","","","","","","","","","","","","","","","","","feedback_test"
"","","","","","psychophysics","191","388797","0.0-13.0-1.0-1.0-0.0-0.16","512","","f","","","","","","","","","","","","","key","f","16.652121212121187","640","356","f","true","img/T_ambi40.png","坏人","word_first",""
"","","","","","html-keyboard-response","192","389100","0.0-13.0-1.0-1.0-0.0-1.16","null","<span style='color:GreenYellow; font-size: 70px;'>正确! </span>","null","","","","","","","","","","","","","","","","","","","","","","","feedback_test"
"","","","","","psychophysics","193","390940","0.0-13.0-1.0-1.0-0.0-0.17","689","","j","","","","","","","","","","","","","key","j","16.649403669724535","640","356","j","true","img/T_ambi40.png","好人","word_first",""
"","","","","","html-keyboard-response","194","391242","0.0-13.0-1.0-1.0-0.0-1.17","null","<span style='color:GreenYellow; font-size: 70px;'>正确! </span>","null","","","","","","","","","","","","","","","","","","","","","","","feedback_test"
"","","","","","psychophysics","195","393106","0.0-13.0-1.0-1.0-0.0-0.18","709","","f","","","","","","","","","","","","","key","f","16.651702702702504","640","356","f","true","img/T_ambi40.png","坏人","word_first",""
"","","","","","html-keyboard-response","196","393408","0.0-13.0-1.0-1.0-0.0-1.18","null","<span style='color:GreenYellow; font-size: 70px;'>正确! </span>","null","","","","","","","","","","","","","","","","","","","","","","","feedback_test"
"","","","","","psychophysics","197","395053","0.0-13.0-1.0-1.0-0.0-0.19","493","","j","","","","","","","","","","","","","key","j","16.652102040815908","640","356","j","true","img/T_ambi40.png","常人","word_first",""
"","","","","","html-keyboard-response","198","395359","0.0-13.0-1.0-1.0-0.0-1.19","null","<span style='color:GreenYellow; font-size: 70px;'>正确! </span>","null","","","","","","","","","","","","","","","","","","","","","","","feedback_test"
"","","","","","psychophysics","199","397291","0.0-13.0-1.0-1.0-0.0-0.20","781","","j","","","","","","","","","","","","","key","j","16.65354782608692","640","356","j","true","img/C_ambi40.png","常人","word_first",""
"","","","","","html-keyboard-response","200","397595","0.0-13.0-1.0-1.0-0.0-1.20","null","<span style='color:GreenYellow; font-size: 70px;'>正确! </span>","null","","","","","","","","","","","","","","","","","","","","","","","feedback_test"
"","","","","","psychophysics","201","399379","0.0-13.0-1.0-1.0-0.0-0.21","619","","j","","","","","","","","","","","","","key","j","16.653188679245396","640","356","j","true","img/C_ambi40.png","坏人","word_first",""
"","","","","","html-keyboard-response","202","399692","0.0-13.0-1.0-1.0-0.0-1.21","null","<span style='color:GreenYellow; font-size: 70px;'>正确! </span>","null","","","","","","","","","","","","","","","","","","","","","","","feedback_test"
"","","","","","psychophysics","203","401452","0.0-13.0-1.0-1.0-0.0-0.22","606","","f","","","","","","","","","","","","","key","f","16.64542307692318","640","356","f","true","img/S_ambi40.png","常人","word_first",""
"","","","","","html-keyboard-response","204","401763","0.0-13.0-1.0-1.0-0.0-1.22","null","<span style='color:GreenYellow; font-size: 70px;'>正确! </span>","null","","","","","","","","","","","","","","","","","","","","","","","feedback_test"
"","","","","","psychophysics","205","403319","0.0-13.0-1.0-1.0-0.0-0.23","397","","f","","","","","","","","","","","","","key","f","16.6410543478256","640","356","f","true","img/S_ambi40.png","常人","word_first",""
"","","","","","html-keyboard-response","206","403630","0.0-13.0-1.0-1.0-0.0-1.23","null","<span style='color:GreenYellow; font-size: 70px;'>正确! </span>","null","","","","","","","","","","","","","","","","","","","","","","","feedback_test"
"","","","","","psychophysics","207","405415","0.0-13.0-1.0-1.0-0.0-0.24","634","","f","","","","","","","","","","","","","key","f","16.652066037735356","640","356","f","true","img/T_ambi40.png","坏人","word_first",""
"","","","","","html-keyboard-response","208","405729","0.0-13.0-1.0-1.0-0.0-1.24","null","<span style='color:GreenYellow; font-size: 70px;'>正确! </span>","null","","","","","","","","","","","","","","","","","","","","","","","feedback_test"
"","","","","","psychophysics","209","407503","0.0-13.0-1.0-1.0-0.0-0.25","618","","j","","","","","","","","","","","","","key","j","16.640849056603706","640","356","j","true","img/T_ambi40.png","好人","word_first",""
"","","","","","html-keyboard-response","210","407809","0.0-13.0-1.0-1.0-0.0-1.25","null","<span style='color:GreenYellow; font-size: 70px;'>正确! </span>","null","","","","","","","","","","","","","","","","","","","","","","","feedback_test"
"","","","","","psychophysics","211","409492","0.0-13.0-1.0-1.0-0.0-0.26","523","","j","","","","","","","","","","","","","key","j","16.647179999999935","640","356","j","true","img/S_ambi40.png","坏人","word_first",""
"","","","","","html-keyboard-response","212","409797","0.0-13.0-1.0-1.0-0.0-1.26","null","<span style='color:GreenYellow; font-size: 70px;'>正确! </span>","null","","","","","","","","","","","","","","","","","","","","","","","feedback_test"
"","","","","","psychophysics","213","411581","0.0-13.0-1.0-1.0-0.0-0.27","632","","j","","","","","","","","","","","","","key","j","16.643301886792475","640","356","j","true","img/C_ambi40.png","坏人","word_first",""
"","","","","","html-keyboard-response","214","411884","0.0-13.0-1.0-1.0-0.0-1.27","null","<span style='color:GreenYellow; font-size: 70px;'>正确! </span>","null","","","","","","","","","","","","","","","","","","","","","","","feedback_test"
"","","","","","psychophysics","215","413557","0.0-13.0-1.0-1.0-0.0-0.28","518","","f","","","","","","","","","","","","","key","f","16.635484848484854","640","356","f","true","img/S_ambi40.png","常人","word_first",""
"","","","","","html-keyboard-response","216","413862","0.0-13.0-1.0-1.0-0.0-1.28","null","<span style='color:GreenYellow; font-size: 70px;'>正确! </span>","null","","","","","","","","","","","","","","","","","","","","","","","feedback_test"
"","","","","","psychophysics","217","415541","0.0-13.0-1.0-1.0-0.0-0.29","528","","j","","","","","","","","","","","","","key","j","16.645839999999733","640","356","j","true","img/C_ambi40.png","常人","word_first",""
"","","","","","html-keyboard-response","218","415854","0.0-13.0-1.0-1.0-0.0-1.29","null","<span style='color:GreenYellow; font-size: 70px;'>正确! </span>","null","","","","","","","","","","","","","","","","","","","","","","","feedback_test"
"","","","","","psychophysics","219","417549","0.0-13.0-1.0-1.0-0.0-0.30","545","","j","","","","","","","","","","","","","key","j","16.651643564356927","640","356","j","true","img/S_ambi40.png","好人","word_first",""
"","","","","","html-keyboard-response","220","417860","0.0-13.0-1.0-1.0-0.0-1.30","null","<span style='color:GreenYellow; font-size: 70px;'>正确! </span>","null","","","","","","","","","","","","","","","","","","","","","","","feedback_test"
"","","","","","psychophysics","221","419536","0.0-13.0-1.0-1.0-0.0-0.31","512","","f","","","","","","","","","","","","","key","f","16.650383838384197","640","356","f","true","img/C_ambi40.png","好人","word_first",""
"","","","","","html-keyboard-response","222","419846","0.0-13.0-1.0-1.0-0.0-1.31","null","<span style='color:GreenYellow; font-size: 70px;'>正确! </span>","null","","","","","","","","","","","","","","","","","","","","","","","feedback_test"
"","","","","","psychophysics","223","421555","0.0-13.0-1.0-1.0-0.0-0.32","557","","f","","","","","","","","","","","","","key","f","16.65119801980206","640","356","f","true","img/T_ambi40.png","坏人","word_first",""
"","","","","","html-keyboard-response","224","421869","0.0-13.0-1.0-1.0-0.0-1.32","null","<span style='color:GreenYellow; font-size: 70px;'>正确! </span>","null","","","","","","","","","","","","","","","","","","","","","","","feedback_test"
"","","","","","psychophysics","225","423662","0.0-13.0-1.0-1.0-0.0-0.33","640","","j","","","","","","","","","","","","","key","j","16.65165420560706","640","356","f","false","img/C_ambi40.png","好人","word_first",""
"","","","","","html-keyboard-response","226","423968","0.0-13.0-1.0-1.0-0.0-1.33","null","<span style='color:red; font-size: 70px;'>错误! </span>","null","","","","","","","","","","","","","","","","","","","","","","","feedback_test"
"","","","","","psychophysics","227","425659","0.0-13.0-1.0-1.0-0.0-0.34","538","","j","","","","","","","","","","","","","key","j","16.655069306930805","640","356","j","true","img/T_ambi40.png","常人","word_first",""
"","","","","","html-keyboard-response","228","425961","0.0-13.0-1.0-1.0-0.0-1.34","null","<span style='color:GreenYellow; font-size: 70px;'>正确! </span>","null","","","","","","","","","","","","","","","","","","","","","","","feedback_test"
"","","","","","psychophysics","229","427851","0.0-13.0-1.0-1.0-0.0-0.35","739","","f","","","","","","","","","","","","","key","f","16.65353571428568","640","356","f","true","img/S_ambi40.png","常人","word_first",""
"","","","","","html-keyboard-response","230","428169","0.0-13.0-1.0-1.0-0.0-1.35","null","<span style='color:GreenYellow; font-size: 70px;'>正确! </span>","null","","","","","","","","","","","","","","","","","","","","","","","feedback_test"
"","","","","","psychophysics","231","429855","0.0-13.0-1.0-1.0-0.0-0.36","534","","f","","","","","","","","","","","","","key","f","16.653730000000213","640","356","f","true","img/S_ambi40.png","常人","word_first",""
"","","","","","html-keyboard-response","232","430165","0.0-13.0-1.0-1.0-0.0-1.36","null","<span style='color:GreenYellow; font-size: 70px;'>正确! </span>","null","","","","","","","","","","","","","","","","","","","","","","","feedback_test"
"","","","","","psychophysics","233","431933","0.0-13.0-1.0-1.0-0.0-0.37","614","","f","","","","","","","","","","","","","key","f","16.64273584905665","640","356","j","false","img/T_ambi40.png","好人","word_first",""
"","","","","","html-keyboard-response","234","432239","0.0-13.0-1.0-1.0-0.0-1.37","null","<span style='color:red; font-size: 70px;'>错误! </span>","null","","","","","","","","","","","","","","","","","","","","","","","feedback_test"
"","","","","","psychophysics","235","434373","0.0-13.0-1.0-1.0-0.0-0.38","977","","j","","","","","","","","","","","","","key","j","16.654496062992006","640","356","j","true","img/C_ambi40.png","常人","word_first",""
"","","","","","html-keyboard-response","236","434679","0.0-13.0-1.0-1.0-0.0-1.38","null","<span style='color:GreenYellow; font-size: 70px;'>正确! </span>","null","","","","","","","","","","","","","","","","","","","","","","","feedback_test"
"","","","","","psychophysics","237","436346","0.0-13.0-1.0-1.0-0.0-0.39","515","","j","","","","","","","","","","","","","key","j","16.652424242423912","640","356","f","false","img/C_ambi40.png","好人","word_first",""
"","","","","","html-keyboard-response","238","436651","0.0-13.0-1.0-1.0-0.0-1.39","null","<span style='color:red; font-size: 70px;'>错误! </span>","null","","","","","","","","","","","","","","","","","","","","","","","feedback_test"
"","","","","","psychophysics","239","438868","0.0-13.0-1.0-1.0-0.0-0.40","1057","","f","","","","","","","","","","","","","key","f","16.65253787878795","640","356","f","true","img/T_ambi40.png","坏人","word_first",""
"","","","","","html-keyboard-response","240","439175","0.0-13.0-1.0-1.0-0.0-1.40","null","<span style='color:GreenYellow; font-size: 70px;'>正确! </span>","null","","","","","","","","","","","","","","","","","","","","","","","feedback_test"
"","","","","","psychophysics","241","441028","0.0-13.0-1.0-1.0-0.0-0.41","702","","f","","","","","","","","","","","","","key","f","16.654518181818474","640","356","f","true","img/C_ambi40.png","好人","word_first",""
"","","","","","html-keyboard-response","242","441339","0.0-13.0-1.0-1.0-0.0-1.41","null","<span style='color:GreenYellow; font-size: 70px;'>正确! </span>","null","","","","","","","","","","","","","","","","","","","","","","","feedback_test"
"","","","","","psychophysics","243","443063","0.0-13.0-1.0-1.0-0.0-0.42","573","","f","","","","","","","","","","","","","key","f","16.51765686274488","640","356","f","true","img/T_ambi40.png","坏人","word_first",""
"","","","","","html-keyboard-response","244","443370","0.0-13.0-1.0-1.0-0.0-1.42","null","<span style='color:GreenYellow; font-size: 70px;'>正确! </span>","null","","","","","","","","","","","","","","","","","","","","","","","feedback_test"
"","","","","","psychophysics","245","445299","0.0-13.0-1.0-1.0-0.0-0.43","778","","j","","","","","","","","","","","","","key","j","16.6467304347827","640","356","j","true","img/C_ambi40.png","坏人","word_first",""
"","","","","","html-keyboard-response","246","445610","0.0-13.0-1.0-1.0-0.0-1.43","null","<span style='color:GreenYellow; font-size: 70px;'>正确! </span>","null","","","","","","","","","","","","","","","","","","","","","","","feedback_test"
"","","","","","psychophysics","247","447321","0.0-13.0-1.0-1.0-0.0-0.44","552","","f","","","","","","","","","","","","","key","f","16.654764705882","640","356","f","true","img/S_ambi40.png","常人","word_first",""
"","","","","","html-keyboard-response","248","447631","0.0-13.0-1.0-1.0-0.0-1.44","null","<span style='color:GreenYellow; font-size: 70px;'>正确! </span>","null","","","","","","","","","","","","","","","","","","","","","","","feedback_test"
"","","","","","psychophysics","249","449708","0.0-13.0-1.0-1.0-0.0-0.45","925","","j","","","","","","","","","","","","","key","j","16.648766129032612","640","356","j","true","img/S_ambi40.png","坏人","word_first",""
"","","","","","html-keyboard-response","250","450010","0.0-13.0-1.0-1.0-0.0-1.45","null","<span style='color:GreenYellow; font-size: 70px;'>正确! </span>","null","","","","","","","","","","","","","","","","","","","","","","","feedback_test"
"","","","","","psychophysics","251","451907","0.0-13.0-1.0-1.0-0.0-0.46","743","","j","","","","","","","","","","","","","key","j","16.650619469026715","640","356","j","true","img/S_ambi40.png","好人","word_first",""
"","","","","","html-keyboard-response","252","452219","0.0-13.0-1.0-1.0-0.0-1.46","null","<span style='color:GreenYellow; font-size: 70px;'>正确! </span>","null","","","","","","","","","","","","","","","","","","","","","","","feedback_test"
"","","","","","psychophysics","253","454161","0.0-13.0-1.0-1.0-0.0-0.47","787","","j","","","","","","","","","","","","","key","j","16.65294782608727","640","356","j","true","img/T_ambi40.png","常人","word_first",""
"","","","","","html-keyboard-response","254","454463","0.0-13.0-1.0-1.0-0.0-1.47","null","<span style='color:GreenYellow; font-size: 70px;'>正确! </span>","null","","","","","","","","","","","","","","","","","","","","","","","feedback_test"
"","","","","","psychophysics","255","456326","0.0-13.0-1.0-1.0-0.0-0.48","700","","j","","","","","","","","","","","","","key","j","16.651009090908868","640","356","j","true","img/C_ambi40.png","坏人","word_first",""
"","","","","","html-keyboard-response","256","456639","0.0-13.0-1.0-1.0-0.0-1.48","null","<span style='color:GreenYellow; font-size: 70px;'>正确! </span>","null","","","","","","","","","","","","","","","","","","","","","","","feedback_test"
"","","","","","psychophysics","257","458474","0.0-13.0-1.0-1.0-0.0-0.49","682","","j","","","","","","","","","","","","","key","j","16.6409816513764","640","356","j","true","img/S_ambi40.png","好人","word_first",""
"","","","","","html-keyboard-response","258","458782","0.0-13.0-1.0-1.0-0.0-1.49","null","<span style='color:GreenYellow; font-size: 70px;'>正确! </span>","null","","","","","","","","","","","","","","","","","","","","","","","feedback_test"
"","","","","","psychophysics","259","460515","0.0-13.0-1.0-1.0-0.0-0.50","573","","f","","","","","","","","","","","","","key","f","16.64963106796071","640","356","f","true","img/C_ambi40.png","好人","word_first",""
"","","","","","html-keyboard-response","260","460821","0.0-13.0-1.0-1.0-0.0-1.50","null","<span style='color:GreenYellow; font-size: 70px;'>正确! </span>","null","","","","","","","","","","","","","","","","","","","","","","","feedback_test"
"","","","","","psychophysics","261","462507","0.0-13.0-1.0-1.0-0.0-0.51","532","","j","","","","","","","","","","","","","key","j","16.637861386138603","640","356","j","true","img/T_ambi40.png","常人","word_first",""
"","","","","","html-keyboard-response","262","462818","0.0-13.0-1.0-1.0-0.0-1.51","null","<span style='color:GreenYellow; font-size: 70px;'>正确! </span>","null","","","","","","","","","","","","","","","","","","","","","","","feedback_test"
"","","","","","psychophysics","263","464544","0.0-13.0-1.0-1.0-0.0-0.52","573","","f","","","","","","","","","","","","","key","f","16.652796116504973","640","356","f","true","img/S_ambi40.png","常人","word_first",""
"","","","","","html-keyboard-response","264","464847","0.0-13.0-1.0-1.0-0.0-1.52","null","<span style='color:GreenYellow; font-size: 70px;'>正确! </span>","null","","","","","","","","","","","","","","","","","","","","","","","feedback_test"
"","","","","","psychophysics","265","466511","0.0-13.0-1.0-1.0-0.0-0.53","509","","j","","","","","","","","","","","","","key","j","16.6541515151515","640","356","j","true","img/C_ambi40.png","常人","word_first",""
"","","","","","html-keyboard-response","266","466828","0.0-13.0-1.0-1.0-0.0-1.53","null","<span style='color:GreenYellow; font-size: 70px;'>正确! </span>","null","","","","","","","","","","","","","","","","","","","","","","","feedback_test"
"","","","","","psychophysics","267","468469","0.0-13.0-1.0-1.0-0.0-0.54","484","","j","","","","","","","","","","","","","key","j","16.640969387755124","640","356","j","true","img/S_ambi40.png","坏人","word_first",""
"","","","","","html-keyboard-response","268","468781","0.0-13.0-1.0-1.0-0.0-1.54","null","<span style='color:GreenYellow; font-size: 70px;'>正确! </span>","null","","","","","","","","","","","","","","","","","","","","","","","feedback_test"
"","","","","","psychophysics","269","470509","0.0-13.0-1.0-1.0-0.0-0.55","576","","f","","","","","","","","","","","","","key","f","16.657048543689104","640","356","f","true","img/S_ambi40.png","常人","word_first",""
"","","","","","html-keyboard-response","270","470811","0.0-13.0-1.0-1.0-0.0-1.55","null","<span style='color:GreenYellow; font-size: 70px;'>正确! </span>","null","","","","","","","","","","","","","","","","","","","","","","","feedback_test"
"","","","","","psychophysics","271","472603","0.0-13.0-1.0-1.0-0.0-0.56","641","","f","","","","","","","","","","","","","key","f","16.65403738317774","640","356","f","true","img/T_ambi40.png","坏人","word_first",""
"","","","","","html-keyboard-response","272","472908","0.0-13.0-1.0-1.0-0.0-1.56","null","<span style='color:GreenYellow; font-size: 70px;'>正确! </span>","null","","","","","","","","","","","","","","","","","","","","","","","feedback_test"
"","","","","","psychophysics","273","474789","0.0-13.0-1.0-1.0-0.0-0.57","726","","f","","","","","","","","","","","","","key","f","16.63855357142893","640","356","f","true","img/C_ambi40.png","好人","word_first",""
"","","","","","html-keyboard-response","274","475101","0.0-13.0-1.0-1.0-0.0-1.57","null","<span style='color:GreenYellow; font-size: 70px;'>正确! </span>","null","","","","","","","","","","","","","","","","","","","","","","","feedback_test"
"","","","","","psychophysics","275","476889","0.0-13.0-1.0-1.0-0.0-0.58","629","","j","","","","","","","","","","","","","key","j","16.649867924528287","640","356","j","true","img/T_ambi40.png","好人","word_first",""
"","","","","","html-keyboard-response","276","477195","0.0-13.0-1.0-1.0-0.0-1.58","null","<span style='color:GreenYellow; font-size: 70px;'>正确! </span>","null","","","","","","","","","","","","","","","","","","","","","","","feedback_test"
"","","","","","psychophysics","277","479269","0.0-13.0-1.0-1.0-0.0-0.59","921","","f","","","","","","","","","","","","","key","f","16.651365853658675","640","356","f","true","img/T_ambi40.png","坏人","word_first",""
"","","","","","html-keyboard-response","278","479581","0.0-13.0-1.0-1.0-0.0-1.59","null","<span style='color:GreenYellow; font-size: 70px;'>正确! </span>","null","","","","","","","","","","","","","","","","","","","","","","","feedback_test"
"","","","","","html-keyboard-response","279","485502","0.0-13.0-1.0-1.0-1.0","5920","<style>.context{color:white; font-size: 35px; line-height:40px}</style>                              <div><p class='context'>您正确回答了95% 的试次。</p><p class='context'>您的平均反应时为622毫秒。</p><p class='context'>请按任意键进入休息</p></div>","unidentified","","","","","","","","","","","","","","","","","","","","","","",""
"","","","","","html-button-response","280","533537","0.0-13.0-1.0-1.0-2.0","48032","
                      <p>您当前还剩余3组实验</p>
                      <p>现在是休息时间，当您结束休息后，您可以点击 结束休息 按钮 继续</p>
                      <p>建议休息时间还剩余<span id=""iii"">60</span>秒</p>","0","","","","","","","","","","","","","","","","","","","","","","",""
"","","","","","psychophysics","281","535177","0.0-13.0-1.0-1.0-0.1-0.60","481","","j","","","","","","","","","","","","","key","j","16.654216494845688","640","356","j","true","img/C_ambi40.png","常人","word_first",""
"","","","","","html-keyboard-response","282","535485","0.0-13.0-1.0-1.0-0.1-1.60","null","<span style='color:GreenYellow; font-size: 70px;'>正确! </span>","null","","","","","","","","","","","","","","","","","","","","","","","feedback_test"
"","","","","","psychophysics","283","537143","0.0-13.0-1.0-1.0-0.1-0.61","497","","j","","","","","","","","","","","","","key","j","16.645214285713394","640","356","j","true","img/S_ambi40.png","好人","word_first",""
"","","","","","html-keyboard-response","284","537454","0.0-13.0-1.0-1.0-0.1-1.61","null","<span style='color:GreenYellow; font-size: 70px;'>正确! </span>","null","","","","","","","","","","","","","","","","","","","","","","","feedback_test"
"","","","","","psychophysics","285","539257","0.0-13.0-1.0-1.0-0.1-0.62","647","","f","","","","","","","","","","","","","key","f","16.643457943925014","640","356","f","true","img/T_ambi40.png","坏人","word_first",""
"","","","","","html-keyboard-response","286","539571","0.0-13.0-1.0-1.0-0.1-1.62","null","<span style='color:GreenYellow; font-size: 70px;'>正确! </span>","null","","","","","","","","","","","","","","","","","","","","","","","feedback_test"
"","","","","","psychophysics","287","541179","0.0-13.0-1.0-1.0-0.1-0.63","454","","j","","","","","","","","","","","","","key","j","16.64937499999966","640","356","j","true","img/T_ambi40.png","常人","word_first",""
"","","","","","html-keyboard-response","288","541482","0.0-13.0-1.0-1.0-0.1-1.63","null","<span style='color:GreenYellow; font-size: 70px;'>正确! </span>","null","","","","","","","","","","","","","","","","","","","","","","","feedback_test"
"","","","","","psychophysics","289","543194","0.0-13.0-1.0-1.0-0.1-0.64","561","","j","","","","","","","","","","","","","key","j","16.65220588235317","640","356","j","true","img/S_ambi40.png","坏人","word_first",""
"","","","","","html-keyboard-response","290","543504","0.0-13.0-1.0-1.0-0.1-1.64","null","<span style='color:GreenYellow; font-size: 70px;'>正确! </span>","null","","","","","","","","","","","","","","","","","","","","","","","feedback_test"
"","","","","","psychophysics","291","545353","0.0-13.0-1.0-1.0-0.1-0.65","698","","j","","","","","","","","","","","","","key","j","16.53000000000017","640","356","j","true","img/C_ambi40.png","坏人","word_first",""
"","","","","","html-keyboard-response","292","545666","0.0-13.0-1.0-1.0-0.1-1.65","null","<span style='color:GreenYellow; font-size: 70px;'>正确! </span>","null","","","","","","","","","","","","","","","","","","","","","","","feedback_test"
"","","","","","psychophysics","293","547434","0.0-13.0-1.0-1.0-0.1-0.66","616","","f","","","","","","","","","","","","","key","f","16.63802857142873","640","356","f","true","img/C_ambi40.png","好人","word_first",""
"","","","","","html-keyboard-response","294","547750","0.0-13.0-1.0-1.0-0.1-1.66","null","<span style='color:GreenYellow; font-size: 70px;'>正确! </span>","null","","","","","","","","","","","","","","","","","","","","","","","feedback_test"
"","","","","","psychophysics","295","549514","0.0-13.0-1.0-1.0-0.1-0.67","612","","f","","","","","","","","","","","","","key","f","16.65468571428653","640","356","f","true","img/S_ambi40.png","常人","word_first",""
"","","","","","html-keyboard-response","296","549821","0.0-13.0-1.0-1.0-0.1-1.67","null","<span style='color:GreenYellow; font-size: 70px;'>正确! </span>","null","","","","","","","","","","","","","","","","","","","","","","","feedback_test"
"","","","","","psychophysics","297","551385","0.0-13.0-1.0-1.0-0.1-0.68","412","","f","","","","","","","","","","","","","key","f","16.650634408602993","640","356","f","true","img/T_ambi40.png","坏人","word_first",""
"","","","","","html-keyboard-response","298","551688","0.0-13.0-1.0-1.0-0.1-1.68","null","<span style='color:GreenYellow; font-size: 70px;'>正确! </span>","null","","","","","","","","","","","","","","","","","","","","","","","feedback_test"
"","","","","","psychophysics","299","553321","0.0-13.0-1.0-1.0-0.1-0.69","474","","f","","","","","","","","","","","","","key","f","16.655154639174537","640","356","f","true","img/S_ambi40.png","常人","word_first",""
"","","","","","html-keyboard-response","300","553629","0.0-13.0-1.0-1.0-0.1-1.69","null","<span style='color:GreenYellow; font-size: 70px;'>正确! </span>","null","","","","","","","","","","","","","","","","","","","","","","","feedback_test"
"","","","","","psychophysics","301","555350","0.0-13.0-1.0-1.0-0.1-0.70","569","","f","","","","","","","","","","","","","key","f","16.5235196078429","640","356","f","true","img/C_ambi40.png","好人","word_first",""
"","","","","","html-keyboard-response","302","555666","0.0-13.0-1.0-1.0-0.1-1.70","null","<span style='color:GreenYellow; font-size: 70px;'>正确! </span>","null","","","","","","","","","","","","","","","","","","","","","","","feedback_test"
"","","","","","psychophysics","303","557261","0.0-13.0-1.0-1.0-0.1-0.71","440","","j","","","","","","","","","","","","","key","j","16.642287234042552","640","356","j","true","img/T_ambi40.png","好人","word_first",""
"","","","","","html-keyboard-response","304","557567","0.0-13.0-1.0-1.0-0.1-1.71","null","<span style='color:GreenYellow; font-size: 70px;'>正确! </span>","null","","","","","","","","","","","","","","","","","","","","","","","feedback_test"
"","","","","","psychophysics","305","559329","0.0-13.0-1.0-1.0-0.1-0.72","606","","f","","","","","","","","","","","","","key","f","16.642742857142974","640","356","f","true","img/C_ambi40.png","好人","word_first",""
"","","","","","html-keyboard-response","306","559639","0.0-13.0-1.0-1.0-0.1-1.72","null","<span style='color:GreenYellow; font-size: 70px;'>正确! </span>","null","","","","","","","","","","","","","","","","","","","","","","","feedback_test"
"","","","","","psychophysics","307","561399","0.0-13.0-1.0-1.0-0.1-0.73","607","","f","","","","","","","","","","","","","key","f","16.651153846153576","640","356","f","true","img/T_ambi40.png","坏人","word_first",""
"","","","","","html-keyboard-response","308","561711","0.0-13.0-1.0-1.0-0.1-1.73","null","<span style='color:GreenYellow; font-size: 70px;'>正确! </span>","null","","","","","","","","","","","","","","","","","","","","","","","feedback_test"
"","","","","","psychophysics","309","563444","0.0-13.0-1.0-1.0-0.1-0.74","570","","j","","","","","","","","","","","","","key","j","16.64097087378659","640","356","j","true","img/C_ambi40.png","常人","word_first",""
"","","","","","html-keyboard-response","310","563747","0.0-13.0-1.0-1.0-0.1-1.74","null","<span style='color:GreenYellow; font-size: 70px;'>正确! </span>","null","","","","","","","","","","","","","","","","","","","","","","","feedback_test"
"","","","","","psychophysics","311","565577","0.0-13.0-1.0-1.0-0.1-0.75","675","","j","","","","","","","","","","","","","key","j","16.65309174311958","640","356","j","true","img/T_ambi40.png","好人","word_first",""
"","","","","","html-keyboard-response","312","565883","0.0-13.0-1.0-1.0-0.1-1.75","null","<span style='color:GreenYellow; font-size: 70px;'>正确! </span>","null","","","","","","","","","","","","","","","","","","","","","","","feedback_test"
"","","","","","psychophysics","313","567568","0.0-13.0-1.0-1.0-0.1-0.76","532","","f","","","","","","","","","","","","","key","f","16.65521000000066","640","356","f","true","img/S_ambi40.png","常人","word_first",""
"","","","","","html-keyboard-response","314","567883","0.0-13.0-1.0-1.0-0.1-1.76","null","<span style='color:GreenYellow; font-size: 70px;'>正确! </span>","null","","","","","","","","","","","","","","","","","","","","","","","feedback_test"
"","","","","","psychophysics","315","569671","0.0-13.0-1.0-1.0-0.1-0.77","637","","j","","","","","","","","","","","","","key","j","16.65199065420485","640","356","j","true","img/S_ambi40.png","坏人","word_first",""
"","","","","","html-keyboard-response","316","569985","0.0-13.0-1.0-1.0-0.1-1.77","null","<span style='color:GreenYellow; font-size: 70px;'>正确! </span>","null","","","","","","","","","","","","","","","","","","","","","","","feedback_test"
"","","","","","psychophysics","317","571789","0.0-13.0-1.0-1.0-0.1-0.78","650","","j","","","","","","","","","","","","","key","j","16.644299065421126","640","356","j","true","img/T_ambi40.png","常人","word_first",""
"","","","","","html-keyboard-response","318","572104","0.0-13.0-1.0-1.0-0.1-1.78","null","<span style='color:GreenYellow; font-size: 70px;'>正确! </span>","null","","","","","","","","","","","","","","","","","","","","","","","feedback_test"
"","","","","","psychophysics","319","573887","0.0-13.0-1.0-1.0-0.1-0.79","622","","j","","","","","","","","","","","","","key","j","16.644424528301965","640","356","j","true","img/C_ambi40.png","坏人","word_first",""
"","","","","","html-keyboard-response","320","574199","0.0-13.0-1.0-1.0-0.1-1.79","null","<span style='color:GreenYellow; font-size: 70px;'>正确! </span>","null","","","","","","","","","","","","","","","","","","","","","","","feedback_test"
"","","","","","psychophysics","321","576073","0.0-13.0-1.0-1.0-0.1-0.80","723","","f","","","","","","","","","","","","","key","f","16.650774774775076","640","356","f","true","img/T_ambi40.png","坏人","word_first",""
"","","","","","html-keyboard-response","322","576380","0.0-13.0-1.0-1.0-0.1-1.80","null","<span style='color:GreenYellow; font-size: 70px;'>正确! </span>","null","","","","","","","","","","","","","","","","","","","","","","","feedback_test"
"","","","","","psychophysics","323","578028","0.0-13.0-1.0-1.0-0.1-0.81","497","","f","","","","","","","","","","","","","key","f","16.655773195876144","640","356","f","true","img/S_ambi40.png","常人","word_first",""
"","","","","","html-keyboard-response","324","578339","0.0-13.0-1.0-1.0-0.1-1.81","null","<span style='color:GreenYellow; font-size: 70px;'>正确! </span>","null","","","","","","","","","","","","","","","","","","","","","","","feedback_test"
"","","","","","psychophysics","325","579933","0.0-13.0-1.0-1.0-0.1-0.82","439","","j","","","","","","","","","","","","","key","j","16.656252631578152","640","356","j","true","img/S_ambi40.png","好人","word_first",""
"","","","","","html-keyboard-response","326","580248","0.0-13.0-1.0-1.0-0.1-1.82","null","<span style='color:GreenYellow; font-size: 70px;'>正确! </span>","null","","","","","","","","","","","","","","","","","","","","","","","feedback_test"
"","","","","","psychophysics","327","581933","0.0-13.0-1.0-1.0-0.1-0.83","530","","f","","","","","","","","","","","","","key","f","16.64113000000012","640","356","f","true","img/C_ambi40.png","好人","word_first",""
"","","","","","html-keyboard-response","328","582243","0.0-13.0-1.0-1.0-0.1-1.83","null","<span style='color:GreenYellow; font-size: 70px;'>正确! </span>","null","","","","","","","","","","","","","","","","","","","","","","","feedback_test"
"","","","","","psychophysics","329","583879","0.0-13.0-1.0-1.0-0.1-0.84","472","","f","","","","","","","","","","","","","key","f","16.641546391752385","640","356","f","true","img/S_ambi40.png","常人","word_first",""
"","","","","","html-keyboard-response","330","584186","0.0-13.0-1.0-1.0-0.1-1.84","null","<span style='color:GreenYellow; font-size: 70px;'>正确! </span>","null","","","","","","","","","","","","","","","","","","","","","","","feedback_test"
"","","","","","psychophysics","331","585815","0.0-13.0-1.0-1.0-0.1-0.85","477","","j","","","","","","","","","","","","","key","j","16.653958762886685","640","356","j","true","img/T_ambi40.png","常人","word_first",""
"","","","","","html-keyboard-response","332","586128","0.0-13.0-1.0-1.0-0.1-1.85","null","<span style='color:GreenYellow; font-size: 70px;'>正确! </span>","null","","","","","","","","","","","","","","","","","","","","","","","feedback_test"
"","","","","","psychophysics","333","587778","0.0-13.0-1.0-1.0-0.1-0.86","492","","j","","","","","","","","","","","","","key","j","16.643806122448915","640","356","j","true","img/S_ambi40.png","坏人","word_first",""
"","","","","","html-keyboard-response","334","588092","0.0-13.0-1.0-1.0-0.1-1.86","null","<span style='color:GreenYellow; font-size: 70px;'>正确! </span>","null","","","","","","","","","","","","","","","","","","","","","","","feedback_test"
"","","","","","psychophysics","335","589868","0.0-13.0-1.0-1.0-0.1-0.87","617","","j","","","","","","","","","","","","","key","j","16.642056603773216","640","356","j","true","img/C_ambi40.png","常人","word_first",""
"","","","","","html-keyboard-response","336","590177","0.0-13.0-1.0-1.0-0.1-1.87","null","<span style='color:GreenYellow; font-size: 70px;'>正确! </span>","null","","","","","","","","","","","","","","","","","","","","","","","feedback_test"
"","","","","","psychophysics","337","592003","0.0-13.0-1.0-1.0-0.1-0.88","671","","f","","","","","","","","","","","","","key","f","16.6394678899087","640","356","f","true","img/C_ambi40.png","好人","word_first",""
"","","","","","html-keyboard-response","338","592317","0.0-13.0-1.0-1.0-0.1-1.88","null","<span style='color:GreenYellow; font-size: 70px;'>正确! </span>","null","","","","","","","","","","","","","","","","","","","","","","","feedback_test"
"","","","","","psychophysics","339","594043","0.0-13.0-1.0-1.0-0.1-0.89","565","","j","","","","","","","","","","","","","key","j","16.65275490196084","640","356","j","true","img/C_ambi40.png","坏人","word_first",""
"","","","","","html-keyboard-response","340","594355","0.0-13.0-1.0-1.0-0.1-1.89","null","<span style='color:GreenYellow; font-size: 70px;'>正确! </span>","null","","","","","","","","","","","","","","","","","","","","","","","feedback_test"
"","","","","","psychophysics","341","596092","0.0-13.0-1.0-1.0-0.1-0.90","579","","f","","","","","","","","","","","","","key","f","16.649310679612366","640","356","f","true","img/C_ambi40.png","好人","word_first",""
"","","","","","html-keyboard-response","342","596405","0.0-13.0-1.0-1.0-0.1-1.90","null","<span style='color:GreenYellow; font-size: 70px;'>正确! </span>","null","","","","","","","","","","","","","","","","","","","","","","","feedback_test"
"","","","","","psychophysics","343","598066","0.0-13.0-1.0-1.0-0.1-0.91","511","","f","","","","","","","","","","","","","key","f","16.64078787878753","640","356","f","true","img/T_ambi40.png","坏人","word_first",""
"","","","","","html-keyboard-response","344","598380","0.0-13.0-1.0-1.0-0.1-1.91","null","<span style='color:GreenYellow; font-size: 70px;'>正确! </span>","null","","","","","","","","","","","","","","","","","","","","","","","feedback_test"
"","","","","","psychophysics","345","600147","0.0-13.0-1.0-1.0-0.1-0.92","604","","j","","","","","","","","","","","","","key","j","16.65293333333296","640","356","j","true","img/T_ambi40.png","好人","word_first",""
"","","","","","html-keyboard-response","346","600463","0.0-13.0-1.0-1.0-0.1-1.92","null","<span style='color:GreenYellow; font-size: 70px;'>正确! </span>","null","","","","","","","","","","","","","","","","","","","","","","","feedback_test"
"","","","","","psychophysics","347","602188","0.0-13.0-1.0-1.0-0.1-0.93","573","","j","","","","","","","","","","","","","key","j","16.652931372549467","640","356","j","true","img/S_ambi40.png","好人","word_first",""
"","","","","","html-keyboard-response","348","602500","0.0-13.0-1.0-1.0-0.1-1.93","null","<span style='color:GreenYellow; font-size: 70px;'>正确! </span>","null","","","","","","","","","","","","","","","","","","","","","","","feedback_test"
"","","","","","psychophysics","349","604379","0.0-13.0-1.0-1.0-0.1-0.94","724","","j","","","","","","","","","","","","","key","j","16.643473214285873","640","356","f","false","img/T_ambi40.png","坏人","word_first",""
"","","","","","html-keyboard-response","350","604693","0.0-13.0-1.0-1.0-0.1-1.94","null","<span style='color:red; font-size: 70px;'>错误! </span>","null","","","","","","","","","","","","","","","","","","","","","","","feedback_test"
"","","","","","psychophysics","351","606397","0.0-13.0-1.0-1.0-0.1-0.95","544","","f","","","","","","","","","","","","","key","f","16.64182178217844","640","356","f","true","img/S_ambi40.png","常人","word_first",""
"","","","","","html-keyboard-response","352","606699","0.0-13.0-1.0-1.0-0.1-1.95","null","<span style='color:GreenYellow; font-size: 70px;'>正确! </span>","null","","","","","","","","","","","","","","","","","","","","","","","feedback_test"
"","","","","","psychophysics","353","608375","0.0-13.0-1.0-1.0-0.1-0.96","522","","j","","","","","","","","","","","","","key","j","16.65423000000068","640","356","j","true","img/T_ambi40.png","常人","word_first",""
"","","","","","html-keyboard-response","354","608685","0.0-13.0-1.0-1.0-0.1-1.96","null","<span style='color:GreenYellow; font-size: 70px;'>正确! </span>","null","","","","","","","","","","","","","","","","","","","","","","","feedback_test"
"","","","","","psychophysics","355","610433","0.0-13.0-1.0-1.0-0.1-0.97","584","","f","","","","","","","","","","","","","key","f","16.643475728154687","640","356","f","true","img/S_ambi40.png","常人","word_first",""
"","","","","","html-keyboard-response","356","610737","0.0-13.0-1.0-1.0-0.1-1.97","null","<span style='color:GreenYellow; font-size: 70px;'>正确! </span>","null","","","","","","","","","","","","","","","","","","","","","","","feedback_test"
"","","","","","psychophysics","357","612364","0.0-13.0-1.0-1.0-0.1-0.98","464","","f","","","","","","","","","","","","","key","f","16.652312499999727","640","356","f","true","img/S_ambi40.png","常人","word_first",""
"","","","","","html-keyboard-response","358","612675","0.0-13.0-1.0-1.0-0.1-1.98","null","<span style='color:GreenYellow; font-size: 70px;'>正确! </span>","null","","","","","","","","","","","","","","","","","","","","","","","feedback_test"
"","","","","","psychophysics","359","614499","0.0-13.0-1.0-1.0-0.1-0.99","672","","j","","","","","","","","","","","","","key","j","16.65000917431108","640","356","j","true","img/C_ambi40.png","坏人","word_first",""
"","","","","","html-keyboard-response","360","614807","0.0-13.0-1.0-1.0-0.1-1.99","null","<span style='color:GreenYellow; font-size: 70px;'>正确! </span>","null","","","","","","","","","","","","","","","","","","","","","","","feedback_test"
"","","","","","psychophysics","361","616498","0.0-13.0-1.0-1.0-0.1-0.100","535","","f","","","","","","","","","","","","","key","f","16.648574257426258","640","356","f","true","img/C_ambi40.png","好人","word_first",""
"","","","","","html-keyboard-response","362","616810","0.0-13.0-1.0-1.0-0.1-1.100","null","<span style='color:GreenYellow; font-size: 70px;'>正确! </span>","null","","","","","","","","","","","","","","","","","","","","","","","feedback_test"
"","","","","","psychophysics","363","618597","0.0-13.0-1.0-1.0-0.1-0.101","634","","f","","","","","","","","","","","","","key","f","16.53196226415128","640","356","f","true","img/T_ambi40.png","坏人","word_first",""
"","","","","","html-keyboard-response","364","618898","0.0-13.0-1.0-1.0-0.1-1.101","null","<span style='color:GreenYellow; font-size: 70px;'>正确! </span>","null","","","","","","","","","","","","","","","","","","","","","","","feedback_test"
"","","","","","psychophysics","365","620547","0.0-13.0-1.0-1.0-0.1-0.102","488","","j","","","","","","","","","","","","","key","j","16.65075510204057","640","356","j","true","img/S_ambi40.png","坏人","word_first",""
"","","","","","html-keyboard-response","366","620854","0.0-13.0-1.0-1.0-0.1-1.102","null","<span style='color:GreenYellow; font-size: 70px;'>正确! </span>","null","","","","","","","","","","","","","","","","","","","","","","","feedback_test"
"","","","","","psychophysics","367","622754","0.0-13.0-1.0-1.0-0.1-0.103","748","","j","","","","","","","","","","","","","key","j","16.646469026548473","640","356","j","true","img/C_ambi40.png","常人","word_first",""
"","","","","","html-keyboard-response","368","623065","0.0-13.0-1.0-1.0-0.1-1.103","null","<span style='color:GreenYellow; font-size: 70px;'>正确! </span>","null","","","","","","","","","","","","","","","","","","","","","","","feedback_test"
"","","","","","psychophysics","369","624764","0.0-13.0-1.0-1.0-0.1-0.104","544","","j","","","","","","","","","","","","","key","j","16.641960396039494","640","356","j","true","img/S_ambi40.png","好人","word_first",""
"","","","","","html-keyboard-response","370","625072","0.0-13.0-1.0-1.0-0.1-1.104","null","<span style='color:GreenYellow; font-size: 70px;'>正确! </span>","null","","","","","","","","","","","","","","","","","","","","","","","feedback_test"
"","","","","","psychophysics","371","626973","0.0-13.0-1.0-1.0-0.1-0.105","750","","j","","","","","","","","","","","","","key","j","16.641823008850185","640","356","j","true","img/T_ambi40.png","好人","word_first",""
"","","","","","html-keyboard-response","372","627283","0.0-13.0-1.0-1.0-0.1-1.105","null","<span style='color:GreenYellow; font-size: 70px;'>正确! </span>","null","","","","","","","","","","","","","","","","","","","","","","","feedback_test"
"","","","","","psychophysics","373","628917","0.0-13.0-1.0-1.0-0.1-0.106","483","","f","","","","","","","","","","","","","key","f","16.654999999999134","640","356","f","true","img/C_ambi40.png","好人","word_first",""
"","","","","","html-keyboard-response","374","629228","0.0-13.0-1.0-1.0-0.1-1.106","null","<span style='color:GreenYellow; font-size: 70px;'>正确! </span>","null","","","","","","","","","","","","","","","","","","","","","","","feedback_test"
"","","","","","psychophysics","375","630955","0.0-13.0-1.0-1.0-0.1-0.107","575","","f","","","","","","","","","","","","","key","f","16.64554368932076","640","356","f","true","img/T_ambi40.png","坏人","word_first",""
"","","","","","html-keyboard-response","376","631270","0.0-13.0-1.0-1.0-0.1-1.107","null","<span style='color:GreenYellow; font-size: 70px;'>正确! </span>","null","","","","","","","","","","","","","","","","","","","","","","","feedback_test"
"","","","","","psychophysics","377","633061","0.0-13.0-1.0-1.0-0.1-0.108","640","","j","","","","","","","","","","","","","key","j","16.644141509434878","640","356","j","true","img/S_ambi40.png","坏人","word_first",""
"","","","","","html-keyboard-response","378","633374","0.0-13.0-1.0-1.0-0.1-1.108","null","<span style='color:GreenYellow; font-size: 70px;'>正确! </span>","null","","","","","","","","","","","","","","","","","","","","","","","feedback_test"
"","","","","","psychophysics","379","635159","0.0-13.0-1.0-1.0-0.1-0.109","630","","j","","","","","","","","","","","","","key","j","16.653820754717465","640","356","j","true","img/S_ambi40.png","好人","word_first",""
"","","","","","html-keyboard-response","380","635463","0.0-13.0-1.0-1.0-0.1-1.109","null","<span style='color:GreenYellow; font-size: 70px;'>正确! </span>","null","","","","","","","","","","","","","","","","","","","","","","","feedback_test"
"","","","","","psychophysics","381","637199","0.0-13.0-1.0-1.0-0.1-0.110","570","","j","","","","","","","","","","","","","key","j","16.65433009708689","640","356","j","true","img/C_ambi40.png","坏人","word_first",""
"","","","","","html-keyboard-response","382","637514","0.0-13.0-1.0-1.0-0.1-1.110","null","<span style='color:GreenYellow; font-size: 70px;'>正确! </span>","null","","","","","","","","","","","","","","","","","","","","","","","feedback_test"
"","","","","","psychophysics","383","639133","0.0-13.0-1.0-1.0-0.1-0.111","466","","f","","","","","","","","","","","","","key","f","16.64944791666615","640","356","f","true","img/S_ambi40.png","常人","word_first",""
"","","","","","html-keyboard-response","384","639445","0.0-13.0-1.0-1.0-0.1-1.111","null","<span style='color:GreenYellow; font-size: 70px;'>正确! </span>","null","","","","","","","","","","","","","","","","","","","","","","","feedback_test"
"","","","","","psychophysics","385","641191","0.0-13.0-1.0-1.0-0.1-0.112","583","","f","","","","","","","","","","","","","key","f","16.653291262135824","640","356","f","true","img/T_ambi40.png","坏人","word_first",""
"","","","","","html-keyboard-response","386","641496","0.0-13.0-1.0-1.0-0.1-1.112","null","<span style='color:GreenYellow; font-size: 70px;'>正确! </span>","null","","","","","","","","","","","","","","","","","","","","","","","feedback_test"
"","","","","","psychophysics","387","643113","0.0-13.0-1.0-1.0-0.1-0.113","461","","f","","","","","","","","","","","","","key","f","16.651583333333594","640","356","f","true","img/C_ambi40.png","好人","word_first",""
"","","","","","html-keyboard-response","388","643427","0.0-13.0-1.0-1.0-0.1-1.113","null","<span style='color:GreenYellow; font-size: 70px;'>正确! </span>","null","","","","","","","","","","","","","","","","","","","","","","","feedback_test"
"","","","","","psychophysics","389","645031","0.0-13.0-1.0-1.0-0.1-0.114","451","","j","","","","","","","","","","","","","key","j","16.63816842105313","640","356","j","true","img/T_ambi40.png","常人","word_first",""
"","","","","","html-keyboard-response","390","645344","0.0-13.0-1.0-1.0-0.1-1.114","null","<span style='color:GreenYellow; font-size: 70px;'>正确! </span>","null","","","","","","","","","","","","","","","","","","","","","","","feedback_test"
"","","","","","psychophysics","391","646992","0.0-13.0-1.0-1.0-0.1-0.115","498","","f","","","","","","","","","","","","","key","f","16.65153061224466","640","356","f","true","img/S_ambi40.png","常人","word_first",""
"","","","","","html-keyboard-response","392","647307","0.0-13.0-1.0-1.0-0.1-1.115","null","<span style='color:GreenYellow; font-size: 70px;'>正确! </span>","null","","","","","","","","","","","","","","","","","","","","","","","feedback_test"
"","","","","","psychophysics","393","649017","0.0-13.0-1.0-1.0-0.1-0.116","548","","f","","","","","","","","","","","","","key","f","16.640396039603313","640","356","f","true","img/T_ambi40.png","坏人","word_first",""
"","","","","","html-keyboard-response","394","649330","0.0-13.0-1.0-1.0-0.1-1.116","null","<span style='color:GreenYellow; font-size: 70px;'>正确! </span>","null","","","","","","","","","","","","","","","","","","","","","","","feedback_test"
"","","","","","psychophysics","395","651089","0.0-13.0-1.0-1.0-0.1-0.117","605","","f","","","","","","","","","","","","","key","f","16.652885714285297","640","356","f","true","img/C_ambi40.png","好人","word_first",""
"","","","","","html-keyboard-response","396","651396","0.0-13.0-1.0-1.0-0.1-1.117","null","<span style='color:GreenYellow; font-size: 70px;'>正确! </span>","null","","","","","","","","","","","","","","","","","","","","","","","feedback_test"
"","","","","","psychophysics","397","653292","0.0-13.0-1.0-1.0-0.1-0.118","744","","j","","","","","","","","","","","","","key","j","16.6517964601764","640","356","j","true","img/T_ambi40.png","好人","word_first",""
"","","","","","html-keyboard-response","398","653592","0.0-13.0-1.0-1.0-0.1-1.118","null","<span style='color:GreenYellow; font-size: 70px;'>正确! </span>","null","","","","","","","","","","","","","","","","","","","","","","","feedback_test"
"","","","","","psychophysics","399","655287","0.0-13.0-1.0-1.0-0.1-0.119","544","","j","","","","","","","","","","","","","key","j","16.653633663366264","640","356","j","true","img/C_ambi40.png","常人","word_first",""
"","","","","","html-keyboard-response","400","655599","0.0-13.0-1.0-1.0-0.1-1.119","null","<span style='color:GreenYellow; font-size: 70px;'>正确! </span>","null","","","","","","","","","","","","","","","","","","","","","","","feedback_test"
"","","","","","html-keyboard-response","401","657153","0.0-13.0-1.0-1.0-1.1","1552","<style>.context{color:white; font-size: 35px; line-height:40px}</style>                              <div><p class='context'>您正确回答了98% 的试次。</p><p class='context'>您的平均反应时为566毫秒。</p><p class='context'>请按任意键进入休息</p></div>","j","","","","","","","","","","","","","","","","","","","","","","",""
"","","","","","html-button-response","402","696053","0.0-13.0-1.0-1.0-2.1","38899","
                      <p>您当前还剩余2组实验</p>
                      <p>现在是休息时间，当您结束休息后，您可以点击 结束休息 按钮 继续</p>
                      <p>建议休息时间还剩余<span id=""iii"">60</span>秒</p>","0","","","","","","","","","","","","","","","","","","","","","","",""
"","","","","","psychophysics","403","697923","0.0-13.0-1.0-1.0-0.2-0.120","712","","f","","","","","","","","","","","","","key","f","16.650306306306383","640","356","f","true","img/S_ambi40.png","常人","word_first",""
"","","","","","html-keyboard-response","404","698238","0.0-13.0-1.0-1.0-0.2-1.120","null","<span style='color:GreenYellow; font-size: 70px;'>正确! </span>","null","","","","","","","","","","","","","","","","","","","","","","","feedback_test"
"","","","","","psychophysics","405","699971","0.0-13.0-1.0-1.0-0.2-0.121","578","","f","","","","","","","","","","","","","key","f","16.642194174757922","640","356","f","true","img/T_ambi40.png","坏人","word_first",""
"","","","","","html-keyboard-response","406","700282","0.0-13.0-1.0-1.0-0.2-1.121","null","<span style='color:GreenYellow; font-size: 70px;'>正确! </span>","null","","","","","","","","","","","","","","","","","","","","","","","feedback_test"
"","","","","","psychophysics","407","701979","0.0-13.0-1.0-1.0-0.2-0.122","537","","j","","","","","","","","","","","","","key","j","16.654217821782186","640","356","j","true","img/S_ambi40.png","好人","word_first",""
"","","","","","html-keyboard-response","408","702294","0.0-13.0-1.0-1.0-0.2-1.122","null","<span style='color:GreenYellow; font-size: 70px;'>正确! </span>","null","","","","","","","","","","","","","","","","","","","","","","","feedback_test"
"","","","","","psychophysics","409","703928","0.0-13.0-1.0-1.0-0.2-0.123","473","","f","","","","","","","","","","","","","key","f","16.638216494845427","640","356","f","true","img/C_ambi40.png","好人","word_first",""
"","","","","","html-keyboard-response","410","704232","0.0-13.0-1.0-1.0-0.2-1.123","null","<span style='color:GreenYellow; font-size: 70px;'>正确! </span>","null","","","","","","","","","","","","","","","","","","","","","","","feedback_test"
"","","","","","psychophysics","411","705839","0.0-13.0-1.0-1.0-0.2-0.124","451","","j","","","","","","","","","","","","","key","j","16.65290625000004","640","356","j","true","img/S_ambi40.png","坏人","word_first",""
"","","","","","html-keyboard-response","412","706155","0.0-13.0-1.0-1.0-0.2-1.124","null","<span style='color:GreenYellow; font-size: 70px;'>正确! </span>","null","","","","","","","","","","","","","","","","","","","","","","","feedback_test"
"","","","","","psychophysics","413","707946","0.0-13.0-1.0-1.0-0.2-0.125","628","","j","","","","","","","","","","","","","key","j","16.651679245282825","640","356","j","true","img/C_ambi40.png","常人","word_first",""
"","","","","","html-keyboard-response","414","708260","0.0-13.0-1.0-1.0-0.2-1.125","null","<span style='color:GreenYellow; font-size: 70px;'>正确! </span>","null","","","","","","","","","","","","","","","","","","","","","","","feedback_test"
"","","","","","psychophysics","415","709967","0.0-13.0-1.0-1.0-0.2-0.126","549","","f","","","","","","","","","","","","","key","f","16.643831683168337","640","356","f","true","img/T_ambi40.png","坏人","word_first",""
"","","","","","html-keyboard-response","416","710272","0.0-13.0-1.0-1.0-0.2-1.126","null","<span style='color:GreenYellow; font-size: 70px;'>正确! </span>","null","","","","","","","","","","","","","","","","","","","","","","","feedback_test"
"","","","","","psychophysics","417","712059","0.0-13.0-1.0-1.0-0.2-0.127","627","","j","","","","","","","","","","","","","key","j","16.644320754716524","640","356","j","true","img/C_ambi40.png","坏人","word_first",""
"","","","","","html-keyboard-response","418","712368","0.0-13.0-1.0-1.0-0.2-1.127","null","<span style='color:GreenYellow; font-size: 70px;'>正确! </span>","null","","","","","","","","","","","","","","","","","","","","","","","feedback_test"
"","","","","","psychophysics","419","714057","0.0-13.0-1.0-1.0-0.2-0.128","529","","f","","","","","","","","","","","","","key","f","16.65128000000026","640","356","f","true","img/C_ambi40.png","好人","word_first",""
"","","","","","html-keyboard-response","420","714369","0.0-13.0-1.0-1.0-0.2-1.128","null","<span style='color:GreenYellow; font-size: 70px;'>正确! </span>","null","","","","","","","","","","","","","","","","","","","","","","","feedback_test"
"","","","","","psychophysics","421","715995","0.0-13.0-1.0-1.0-0.2-0.129","475","","j","","","","","","","","","","","","","key","j","16.642062500000367","640","356","j","true","img/T_ambi40.png","常人","word_first",""
"","","","","","html-keyboard-response","422","716298","0.0-13.0-1.0-1.0-0.2-1.129","null","<span style='color:GreenYellow; font-size: 70px;'>正确! </span>","null","","","","","","","","","","","","","","","","","","","","","","","feedback_test"
"","","","","","psychophysics","423","718072","0.0-13.0-1.0-1.0-0.2-0.130","615","","j","","","","","","","","","","","","","key","j","16.649847619047033","640","356","j","true","img/T_ambi40.png","好人","word_first",""
"","","","","","html-keyboard-response","424","718378","0.0-13.0-1.0-1.0-0.2-1.130","null","<span style='color:GreenYellow; font-size: 70px;'>正确! </span>","null","","","","","","","","","","","","","","","","","","","","","","","feedback_test"
"","","","","","psychophysics","425","720204","0.0-13.0-1.0-1.0-0.2-0.131","666","","f","","","","","","","","","","","","","key","f","16.653287037036435","640","356","f","true","img/S_ambi40.png","常人","word_first",""
"","","","","","html-keyboard-response","426","720507","0.0-13.0-1.0-1.0-0.2-1.131","null","<span style='color:GreenYellow; font-size: 70px;'>正确! </span>","null","","","","","","","","","","","","","","","","","","","","","","","feedback_test"
"","","","","","psychophysics","427","722309","0.0-13.0-1.0-1.0-0.2-0.132","651","","j","","","","","","","","","","","","","key","j","16.65238888888874","640","356","j","true","img/S_ambi40.png","好人","word_first",""
"","","","","","html-keyboard-response","428","722618","0.0-13.0-1.0-1.0-0.2-1.132","null","<span style='color:GreenYellow; font-size: 70px;'>正确! </span>","null","","","","","","","","","","","","","","","","","","","","","","","feedback_test"
"","","","","","psychophysics","429","724420","0.0-13.0-1.0-1.0-0.2-0.133","648","","f","","","","","","","","","","","","","key","f","16.656691588784533","640","356","f","true","img/T_ambi40.png","坏人","word_first",""
"","","","","","html-keyboard-response","430","724726","0.0-13.0-1.0-1.0-0.2-1.133","null","<span style='color:GreenYellow; font-size: 70px;'>正确! </span>","null","","","","","","","","","","","","","","","","","","","","","","","feedback_test"
"","","","","","psychophysics","431","726327","0.0-13.0-1.0-1.0-0.2-0.134","439","","j","","","","","","","","","","","","","key","j","16.636252631579133","640","356","j","true","img/T_ambi40.png","常人","word_first",""
"","","","","","html-keyboard-response","432","726637","0.0-13.0-1.0-1.0-0.2-1.134","null","<span style='color:GreenYellow; font-size: 70px;'>正确! </span>","null","","","","","","","","","","","","","","","","","","","","","","","feedback_test"
