"success","timeout","failed_images","failed_audio","failed_video","trial_type","trial_index","time_elapsed","internal_node_id","rt","stimulus","response","value","item_width_mm","item_height_mm","item_width_px","px2mm","view_dist_mm","item_width_deg","px2deg","scale_factor","win_width_deg","win_height_deg","view_history","response_type","key_press","avg_frame_time","center_x","center_y","correct_response","correct","Image","word","condition","screen_id"
"true","false","[]","[]","[]","preload","0","1295","0.0-0.0","","","","","","","","","","","","","","","","","","","","","","","","","",""
"","","","","","html-keyboard-response","1","4323","0.0-1.0","3026","
     <p>您好，欢迎参加本次实验。</p>
     <p>为充分保障您的权利，请确保您已经知晓并同意《参与实验同意书》以及《数据公开知情同意书》。</p>
     <p>如果您未见过上述内容，请咨询实验员。</p>
     <p>如果您选择继续实验，则表示您已经清楚两份知情同意书的内容并同意。</p>
     <p> <div style = ""color: green""><按任意键至下页></div> </p>
     ","j","","","","","","","","","","","","","","","","","","","","","","",""
"","","","","","html-keyboard-response","2","5398","0.0-2.0","1075","
     <p>本实验首先需要您填写一些基本个人信息。</p>
     <p> <div style = ""color: green""><按任意键至下页></div></p>
     ","j","","","","","","","","","","","","","","","","","","","","","","",""
"","","","","","call-function","3","5400","0.0-3.0-0.0","","","","","","","","","","","","","","","","","","","","","","","","","",""
"","","","","","survey-html-form","4","45990","0.0-3.0-1.0","40583","","{""Q0"":""9""}","","","","","","","","","","","","","","","","","","","","","","",""
"","","","","","html-button-response","5","48218","0.0-3.0-2.0","2205","<p style = 'color : white'>您的性别</p>","0","","","","","","","","","","","","","","","","","","","","","","",""
"","","","","","survey-html-form","6","63419","0.0-3.0-3.0","15199","","{""Q0"":""2003""}","","","","","","","","","","","","","","","","","","","","","","",""
"","","","","","survey-html-form","7","66347","0.0-3.0-4.0","2922","","{""Q0"":""4""}","","","","","","","","","","","","","","","","","","","","","","",""
"","","","","","virtual-chinrest","8","113684","0.0-4.0","47330","","","","85.6","53.98","563.693072720291","6.592342714864419","433.63","11.273861454405818","50","0.6280013310996597","25.6","12.18","","","","","","","","","","","",""
"true","","","","","fullscreen","9","116000","0.0-5.0","","","","","","","","","","","","","","","","","","","","","","","","","",""
"","","","","","instructions","10","196827","0.0-6.0","80826","","","","","","","","","","","","","","[{""page_index"":0,""viewing_time"":10170},{""page_index"":1,""viewing_time"":54977},{""page_index"":2,""viewing_time"":10318},{""page_index"":3,""viewing_time"":5361}]","","","","","","","","","","",""
"","","","","","psychophysics","11","198971","0.0-7.0-0.0-0.0","975","","f","","","","","","","","","","","","","key","f","16.929454545454604","640","356","f","true","img/T_ambi40.png","常人","prac_image_first",""
"","","","","","html-keyboard-response","12","199282","0.0-7.0-0.0-1.0","null","<span style='color:GreenYellow; font-size: 70px;'>正确! </span>","null","","","","","","","","","","","","","","","","","","","","","","","feedback_test"
"","","","","","psychophysics","13","201321","0.0-7.0-0.0-0.1","882","","j","","","","","","","","","","","","","key","j","16.653834710743812","640","356","j","true","img/T_ambi40.png","好人","prac_image_first",""
"","","","","","html-keyboard-response","14","201642","0.0-7.0-0.0-1.1","null","<span style='color:GreenYellow; font-size: 70px;'>正确! </span>","null","","","","","","","","","","","","","","","","","","","","","","","feedback_test"
"","","","","","psychophysics","15","203730","0.0-7.0-0.0-0.2","936","","f","","","","","","","","","","","","","key","f","16.654806451612874","640","356","f","true","img/S_ambi40.png","常人","prac_image_first",""
"","","","","","html-keyboard-response","16","204045","0.0-7.0-0.0-1.2","null","<span style='color:GreenYellow; font-size: 70px;'>正确! </span>","null","","","","","","","","","","","","","","","","","","","","","","","feedback_test"
"","","","","","psychophysics","17","206198","0.0-7.0-0.0-0.3","999","","f","","","","","","","","","","","","","key","f","16.652648437500147","640","356","f","true","img/T_ambi40.png","坏人","prac_image_first",""
"","","","","","html-keyboard-response","18","206514","0.0-7.0-0.0-1.3","null","<span style='color:GreenYellow; font-size: 70px;'>正确! </span>","null","","","","","","","","","","","","","","","","","","","","","","","feedback_test"
"","","","","","psychophysics","19","208430","0.0-7.0-0.0-0.4","758","","j","","","","","","","","","","","","","key","j","16.65391228070177","640","356","j","true","img/C_ambi40.png","常人","prac_image_first",""
"","","","","","html-keyboard-response","20","208742","0.0-7.0-0.0-1.4","null","<span style='color:GreenYellow; font-size: 70px;'>正确! </span>","null","","","","","","","","","","","","","","","","","","","","","","","feedback_test"
"","","","","","psychophysics","21","210712","0.0-7.0-0.0-0.5","818","","f","","","","","","","","","","","","","key","f","16.65337606837588","640","356","f","true","img/S_ambi40.png","好人","prac_image_first",""
"","","","","","html-keyboard-response","22","211020","0.0-7.0-0.0-1.5","null","<span style='color:GreenYellow; font-size: 70px;'>正确! </span>","null","","","","","","","","","","","","","","","","","","","","","","","feedback_test"
"","","","","","psychophysics","23","213347","0.0-7.0-0.0-0.6","1173","","j","","","","","","","","","","","","","key","j","16.65357246376811","640","356","j","true","img/S_ambi40.png","坏人","prac_image_first",""
"","","","","","html-keyboard-response","24","213668","0.0-7.0-0.0-1.6","null","<span style='color:GreenYellow; font-size: 70px;'>正确! </span>","null","","","","","","","","","","","","","","","","","","","","","","","feedback_test"
"","","","","","psychophysics","25","215524","0.0-7.0-0.0-0.7","696","","j","","","","","","","","","","","","","key","j","16.65286363636366","640","356","j","true","img/S_ambi40.png","坏人","prac_image_first",""
"","","","","","html-keyboard-response","26","215840","0.0-7.0-0.0-1.7","null","<span style='color:GreenYellow; font-size: 70px;'>正确! </span>","null","","","","","","","","","","","","","","","","","","","","","","","feedback_test"
"","","","","","psychophysics","27","217721","0.0-7.0-0.0-0.8","722","","f","","","","","","","","","","","","","key","f","16.65414414414428","640","356","f","true","img/C_ambi40.png","好人","prac_image_first",""
"","","","","","html-keyboard-response","28","218043","0.0-7.0-0.0-1.8","null","<span style='color:GreenYellow; font-size: 70px;'>正确! </span>","null","","","","","","","","","","","","","","","","","","","","","","","feedback_test"
"","","","","","psychophysics","29","219840","0.0-7.0-0.0-0.9","641","","f","","","","","","","","","","","","","key","f","16.65339252336449","640","356","j","false","img/T_ambi40.png","好人","prac_image_first",""
"","","","","","html-keyboard-response","30","220144","0.0-7.0-0.0-1.9","null","<span style='color:red; font-size: 70px;'>错误! </span>","null","","","","","","","","","","","","","","","","","","","","","","","feedback_test"
"","","","","","psychophysics","31","222036","0.0-7.0-0.0-0.10","727","","j","","","","","","","","","","","","","key","j","16.653601769911408","640","356","j","true","img/C_ambi40.png","常人","prac_image_first",""
"","","","","","html-keyboard-response","32","222351","0.0-7.0-0.0-1.10","null","<span style='color:GreenYellow; font-size: 70px;'>正确! </span>","null","","","","","","","","","","","","","","","","","","","","","","","feedback_test"
"","","","","","psychophysics","33","224301","0.0-7.0-0.0-0.11","790","","f","","","","","","","","","","","","","key","f","16.65416379310346","640","356","f","true","img/C_ambi40.png","坏人","prac_image_first",""
"","","","","","html-keyboard-response","34","224619","0.0-7.0-0.0-1.11","null","<span style='color:GreenYellow; font-size: 70px;'>正确! </span>","null","","","","","","","","","","","","","","","","","","","","","","","feedback_test"
"","","","","","psychophysics","35","226647","0.0-7.0-0.0-0.12","873","","j","","","","","","","","","","","","","key","j","16.65330578512411","640","356","j","true","img/T_ambi40.png","好人","prac_image_first",""
"","","","","","html-keyboard-response","36","226957","0.0-7.0-0.0-1.12","null","<span style='color:GreenYellow; font-size: 70px;'>正确! </span>","null","","","","","","","","","","","","","","","","","","","","","","","feedback_test"
"","","","","","psychophysics","37","229031","0.0-7.0-0.0-0.13","913","","f","","","","","","","","","","","","","key","f","16.650642276422843","640","356","f","true","img/C_ambi40.png","好人","prac_image_first",""
"","","","","","html-keyboard-response","38","229344","0.0-7.0-0.0-1.13","null","<span style='color:GreenYellow; font-size: 70px;'>正确! </span>","null","","","","","","","","","","","","","","","","","","","","","","","feedback_test"
"","","","","","psychophysics","39","231245","0.0-7.0-0.0-0.14","743","","j","","","","","","","","","","","","","key","j","16.65297345132763","640","356","j","true","img/S_ambi40.png","坏人","prac_image_first",""
"","","","","","html-keyboard-response","40","231552","0.0-7.0-0.0-1.14","null","<span style='color:GreenYellow; font-size: 70px;'>正确! </span>","null","","","","","","","","","","","","","","","","","","","","","","","feedback_test"
"","","","","","psychophysics","41","233434","0.0-7.0-0.0-0.15","727","","f","","","","","","","","","","","","","key","f","16.529702702702625","640","356","j","false","img/S_ambi40.png","坏人","prac_image_first",""
"","","","","","html-keyboard-response","42","233748","0.0-7.0-0.0-1.15","null","<span style='color:red; font-size: 70px;'>错误! </span>","null","","","","","","","","","","","","","","","","","","","","","","","feedback_test"
"","","","","","psychophysics","43","235695","0.0-7.0-0.0-0.16","781","","f","","","","","","","","","","","","","key","f","16.653767241379306","640","356","f","true","img/T_ambi40.png","坏人","prac_image_first",""
"","","","","","html-keyboard-response","44","236003","0.0-7.0-0.0-1.16","null","<span style='color:GreenYellow; font-size: 70px;'>正确! </span>","null","","","","","","","","","","","","","","","","","","","","","","","feedback_test"
"","","","","","psychophysics","45","237970","0.0-7.0-0.0-0.17","798","","j","","","","","","","","","","","","","key","j","16.656344827586196","640","356","j","true","img/T_ambi40.png","好人","prac_image_first",""
"","","","","","html-keyboard-response","46","238280","0.0-7.0-0.0-1.17","null","<span style='color:GreenYellow; font-size: 70px;'>正确! </span>","null","","","","","","","","","","","","","","","","","","","","","","","feedback_test"
"","","","","","psychophysics","47","240257","0.0-7.0-0.0-0.18","825","","f","","","","","","","","","","","","","key","f","16.65270085470093","640","356","f","true","img/S_ambi40.png","常人","prac_image_first",""
"","","","","","html-keyboard-response","48","240559","0.0-7.0-0.0-1.18","null","<span style='color:GreenYellow; font-size: 70px;'>正确! </span>","null","","","","","","","","","","","","","","","","","","","","","","","feedback_test"
"","","","","","psychophysics","49","242709","0.0-7.0-0.0-0.19","982","","f","","","","","","","","","","","","","key","f","16.65129687500007","640","356","f","true","img/S_ambi40.png","好人","prac_image_first",""
"","","","","","html-keyboard-response","50","243015","0.0-7.0-0.0-1.19","null","<span style='color:GreenYellow; font-size: 70px;'>正确! </span>","null","","","","","","","","","","","","","","","","","","","","","","","feedback_test"
"","","","","","psychophysics","51","244939","0.0-7.0-0.0-0.20","765","","f","","","","","","","","","","","","","key","f","16.653219298245396","640","356","f","true","img/T_ambi40.png","常人","prac_image_first",""
"","","","","","html-keyboard-response","52","245261","0.0-7.0-0.0-1.20","null","<span style='color:GreenYellow; font-size: 70px;'>正确! </span>","null","","","","","","","","","","","","","","","","","","","","","","","feedback_test"
"","","","","","psychophysics","53","247221","0.0-7.0-0.0-0.21","803","","j","","","","","","","","","","","","","key","j","16.653025862068873","640","356","j","true","img/C_ambi40.png","常人","prac_image_first",""
"","","","","","html-keyboard-response","54","247526","0.0-7.0-0.0-1.21","null","<span style='color:GreenYellow; font-size: 70px;'>正确! </span>","null","","","","","","","","","","","","","","","","","","","","","","","feedback_test"
"","","","","","psychophysics","55","249303","0.0-7.0-0.0-0.22","624","","j","","","","","","","","","","","","","key","j","16.65056190476171","640","356","j","true","img/C_ambi40.png","常人","prac_image_first",""
"","","","","","html-keyboard-response","56","249610","0.0-7.0-0.0-1.22","null","<span style='color:GreenYellow; font-size: 70px;'>正确! </span>","null","","","","","","","","","","","","","","","","","","","","","","","feedback_test"
"","","","","","psychophysics","57","251336","0.0-7.0-0.0-0.23","569","","f","","","","","","","","","","","","","key","f","16.64997058823521","640","356","f","true","img/C_ambi40.png","坏人","prac_image_first",""
"","","","","","html-keyboard-response","58","251651","0.0-7.0-0.0-1.23","null","<span style='color:GreenYellow; font-size: 70px;'>正确! </span>","null","","","","","","","","","","","","","","","","","","","","","","","feedback_test"
"","","","","","html-keyboard-response","59","266417","0.0-8.0","14758","<style>.context{color:white; font-size: 35px; line-height:40px}</style>                              <div><p class='context'>您正确回答了92% 的试次。</p><p class='context'>您的平均反应时为825毫秒。</p><p class='context'>恭喜您完成这一阶段的练习。按任意键进入<span style='color: yellow;'>先文字后图形条件</span>的练习。</p></div>","j","","","","","","","","","","","","","","","","","","","","","","",""
"","","","","","psychophysics","60","268222","0.0-9.0-0.0-0.0","644","","f","","","","","","","","","","","","","key","f","16.653084112149575","640","356","j","false","img/T_ambi40.png","好人","prac_word_first",""
"","","","","","html-keyboard-response","61","268542","0.0-9.0-0.0-1.0","null","<span style='color:red; font-size: 70px;'>错误! </span>","null","","","","","","","","","","","","","","","","","","","","","","","feedback_test"
"","","","","","psychophysics","62","270620","0.0-9.0-0.0-0.1","918","","f","","","","","","","","","","","","","key","f","16.65380487804882","640","356","f","true","img/T_ambi40.png","坏人","prac_word_first",""
"","","","","","html-keyboard-response","63","270928","0.0-9.0-0.0-1.1","null","<span style='color:GreenYellow; font-size: 70px;'>正确! </span>","null","","","","","","","","","","","","","","","","","","","","","","","feedback_test"
"","","","","","psychophysics","64","272934","0.0-9.0-0.0-0.2","846","","f","","","","","","","","","","","","","key","f","16.648537815126353","640","356","f","true","img/C_ambi40.png","好人","prac_word_first",""
"","","","","","html-keyboard-response","65","273245","0.0-9.0-0.0-1.2","null","<span style='color:GreenYellow; font-size: 70px;'>正确! </span>","null","","","","","","","","","","","","","","","","","","","","","","","feedback_test"
"","","","","","psychophysics","66","274938","0.0-9.0-0.0-0.3","539","","j","","","","","","","","","","","","","key","j","16.648584158415677","640","356","j","true","img/C_ambi40.png","常人","prac_word_first",""
"","","","","","html-keyboard-response","67","275257","0.0-9.0-0.0-1.3","null","<span style='color:GreenYellow; font-size: 70px;'>正确! </span>","null","","","","","","","","","","","","","","","","","","","","","","","feedback_test"
"","","","","","psychophysics","68","276992","0.0-9.0-0.0-0.4","577","","f","","","","","","","","","","","","","key","f","16.65283495145601","640","356","f","true","img/S_ambi40.png","好人","prac_word_first",""
"","","","","","html-keyboard-response","69","277308","0.0-9.0-0.0-1.4","null","<span style='color:GreenYellow; font-size: 70px;'>正确! </span>","null","","","","","","","","","","","","","","","","","","","","","","","feedback_test"
"","","","","","psychophysics","70","279171","0.0-9.0-0.0-0.5","707","","f","","","","","","","","","","","","","key","f","16.653306306306764","640","356","f","true","img/C_ambi40.png","坏人","prac_word_first",""
"","","","","","html-keyboard-response","71","279479","0.0-9.0-0.0-1.5","null","<span style='color:GreenYellow; font-size: 70px;'>正确! </span>","null","","","","","","","","","","","","","","","","","","","","","","","feedback_test"
"","","","","","psychophysics","72","281320","0.0-9.0-0.0-0.6","689","","j","","","","","","","","","","","","","key","j","16.653100917430876","640","356","j","true","img/C_ambi40.png","常人","prac_word_first",""
"","","","","","html-keyboard-response","73","281625","0.0-9.0-0.0-1.6","null","<span style='color:GreenYellow; font-size: 70px;'>正确! </span>","null","","","","","","","","","","","","","","","","","","","","","","","feedback_test"
"","","","","","psychophysics","74","283600","0.0-9.0-0.0-0.7","822","","f","","","","","","","","","","","","","key","f","16.653101694915183","640","356","f","true","img/T_ambi40.png","常人","prac_word_first",""
"","","","","","html-keyboard-response","75","283924","0.0-9.0-0.0-1.7","null","<span style='color:GreenYellow; font-size: 70px;'>正确! </span>","null","","","","","","","","","","","","","","","","","","","","","","","feedback_test"
"","","","","","psychophysics","76","285701","0.0-9.0-0.0-0.8","620","","f","","","","","","","","","","","","","key","f","16.653433962263836","640","356","f","true","img/S_ambi40.png","常人","prac_word_first",""
"","","","","","html-keyboard-response","77","286019","0.0-9.0-0.0-1.8","null","<span style='color:GreenYellow; font-size: 70px;'>正确! </span>","null","","","","","","","","","","","","","","","","","","","","","","","feedback_test"
"","","","","","psychophysics","78","288099","0.0-9.0-0.0-0.9","925","","j","","","","","","","","","","","","","key","j","16.652593495935196","640","356","j","true","img/T_ambi40.png","好人","prac_word_first",""
"","","","","","html-keyboard-response","79","288419","0.0-9.0-0.0-1.9","null","<span style='color:GreenYellow; font-size: 70px;'>正确! </span>","null","","","","","","","","","","","","","","","","","","","","","","","feedback_test"
"","","","","","psychophysics","80","290089","0.0-9.0-0.0-0.10","516","","j","","","","","","","","","","","","","key","j","16.65455555555533","640","356","j","true","img/S_ambi40.png","坏人","prac_word_first",""
"","","","","","html-keyboard-response","81","290401","0.0-9.0-0.0-1.10","null","<span style='color:GreenYellow; font-size: 70px;'>正确! </span>","null","","","","","","","","","","","","","","","","","","","","","","","feedback_test"
"","","","","","psychophysics","82","292751","0.0-9.0-0.0-0.11","1191","","j","","","","","","","","","","","","","key","j","16.65281428571408","640","356","j","true","img/S_ambi40.png","坏人","prac_word_first",""
"","","","","","html-keyboard-response","83","293067","0.0-9.0-0.0-1.11","null","<span style='color:GreenYellow; font-size: 70px;'>正确! </span>","null","","","","","","","","","","","","","","","","","","","","","","","feedback_test"
"","","","","","psychophysics","84","294846","0.0-9.0-0.0-0.12","623","","f","","","","","","","","","","","","","key","f","16.65326415094325","640","356","f","true","img/T_ambi40.png","常人","prac_word_first",""
"","","","","","html-keyboard-response","85","295159","0.0-9.0-0.0-1.12","null","<span style='color:GreenYellow; font-size: 70px;'>正确! </span>","null","","","","","","","","","","","","","","","","","","","","","","","feedback_test"
"","","","","","psychophysics","86","296976","0.0-9.0-0.0-0.13","656","","j","","","","","","","","","","","","","key","j","17.634980392156685","640","356","j","true","img/T_ambi40.png","好人","prac_word_first",""
"","","","","","html-keyboard-response","87","297293","0.0-9.0-0.0-1.13","null","<span style='color:GreenYellow; font-size: 70px;'>正确! </span>","null","","","","","","","","","","","","","","","","","","","","","","","feedback_test"
"","","","","","psychophysics","88","299040","0.0-9.0-0.0-0.14","594","","f","","","","","","","","","","","","","key","f","16.653201923076548","640","356","f","true","img/T_ambi40.png","坏人","prac_word_first",""
"","","","","","html-keyboard-response","89","299343","0.0-9.0-0.0-1.14","null","<span style='color:GreenYellow; font-size: 70px;'>正确! </span>","null","","","","","","","","","","","","","","","","","","","","","","","feedback_test"
"","","","","","psychophysics","90","301161","0.0-9.0-0.0-0.15","662","","f","","","","","","","","","","","","","key","f","16.659962962962542","640","356","f","true","img/C_ambi40.png","坏人","prac_word_first",""
"","","","","","html-keyboard-response","91","301482","0.0-9.0-0.0-1.15","null","<span style='color:GreenYellow; font-size: 70px;'>正确! </span>","null","","","","","","","","","","","","","","","","","","","","","","","feedback_test"
"","","","","","psychophysics","92","303623","0.0-9.0-0.0-0.16","985","","f","","","","","","","","","","","","","key","f","16.653866141732493","640","356","f","true","img/S_ambi40.png","好人","prac_word_first",""
"","","","","","html-keyboard-response","93","303944","0.0-9.0-0.0-1.16","null","<span style='color:GreenYellow; font-size: 70px;'>正确! </span>","null","","","","","","","","","","","","","","","","","","","","","","","feedback_test"
"","","","","","psychophysics","94","305766","0.0-9.0-0.0-0.17","668","","j","","","","","","","","","","","","","key","j","16.644824074074105","640","356","j","true","img/S_ambi40.png","坏人","prac_word_first",""
"","","","","","html-keyboard-response","95","306084","0.0-9.0-0.0-1.17","null","<span style='color:GreenYellow; font-size: 70px;'>正确! </span>","null","","","","","","","","","","","","","","","","","","","","","","","feedback_test"
"","","","","","psychophysics","96","307881","0.0-9.0-0.0-0.18","642","","j","","","","","","","","","","","","","key","j","16.65374766355141","640","356","j","true","img/T_ambi40.png","好人","prac_word_first",""
"","","","","","html-keyboard-response","97","308200","0.0-9.0-0.0-1.18","null","<span style='color:GreenYellow; font-size: 70px;'>正确! </span>","null","","","","","","","","","","","","","","","","","","","","","","","feedback_test"
"","","","","","psychophysics","98","310187","0.0-9.0-0.0-0.19","819","","j","","","","","","","","","","","","","key","j","16.650254237287978","640","356","j","true","img/C_ambi40.png","常人","prac_word_first",""
"","","","","","html-keyboard-response","99","310502","0.0-9.0-0.0-1.19","null","<span style='color:GreenYellow; font-size: 70px;'>正确! </span>","null","","","","","","","","","","","","","","","","","","","","","","","feedback_test"
"","","","","","psychophysics","100","312563","0.0-9.0-0.0-0.20","905","","j","","","","","","","","","","","","","key","j","16.65343902439042","640","356","j","true","img/S_ambi40.png","坏人","prac_word_first",""
"","","","","","html-keyboard-response","101","312885","0.0-9.0-0.0-1.20","null","<span style='color:GreenYellow; font-size: 70px;'>正确! </span>","null","","","","","","","","","","","","","","","","","","","","","","","feedback_test"
"","","","","","psychophysics","102","314614","0.0-9.0-0.0-0.21","574","","j","","","","","","","","","","","","","key","j","16.651392156862556","640","356","j","true","img/C_ambi40.png","常人","prac_word_first",""
"","","","","","html-keyboard-response","103","314930","0.0-9.0-0.0-1.21","null","<span style='color:GreenYellow; font-size: 70px;'>正确! </span>","null","","","","","","","","","","","","","","","","","","","","","","","feedback_test"
"","","","","","psychophysics","104","316759","0.0-9.0-0.0-0.22","675","","f","","","","","","","","","","","","","key","f","16.65508256880716","640","356","f","true","img/C_ambi40.png","好人","prac_word_first",""
"","","","","","html-keyboard-response","105","317076","0.0-9.0-0.0-1.22","null","<span style='color:GreenYellow; font-size: 70px;'>正确! </span>","null","","","","","","","","","","","","","","","","","","","","","","","feedback_test"
"","","","","","psychophysics","106","319188","0.0-9.0-0.0-0.23","958","","f","","","","","","","","","","","","","key","f","16.65321428571423","640","356","f","true","img/S_ambi40.png","常人","prac_word_first",""
"","","","","","html-keyboard-response","107","319497","0.0-9.0-0.0-1.23","null","<span style='color:GreenYellow; font-size: 70px;'>正确! </span>","null","","","","","","","","","","","","","","","","","","","","","","","feedback_test"
"","","","","","html-keyboard-response","108","326459","0.0-10.0","6960","<style>.context{color:white; font-size: 35px; line-height:40px}</style>                              <div><p class='context'>您正确回答了96% 的试次。</p><p class='context'>您的平均反应时为744毫秒。</p><p class='context'>恭喜您完成练习。按任意键进入<span style='color: yellow;'>图形和文字同时呈现条件</span>的练习。</p></div>","j","","","","","","","","","","","","","","","","","","","","","","",""
"","","","","","psychophysics","109","328822","0.0-11.0-0.0-0.0","1351","","f","","","","","","","","","","","","","key","f","16.65327142857173","640","356","f","true","img/C_ambi40.png","坏人","prac_simultaneous",""
"","","","","","html-keyboard-response","110","329140","0.0-11.0-0.0-1.0","null","<span style='color:GreenYellow; font-size: 70px;'>正确! </span>","null","","","","","","","","","","","","","","","","","","","","","","","feedback_test"
"","","","","","psychophysics","111","331434","0.0-11.0-0.0-0.1","1291","","f","","","","","","","","","","","","","key","f","16.65680147058832","640","356","f","true","img/C_ambi40.png","好人","prac_simultaneous",""
"","","","","","html-keyboard-response","112","331745","0.0-11.0-0.0-1.1","null","<span style='color:GreenYellow; font-size: 70px;'>正确! </span>","null","","","","","","","","","","","","","","","","","","","","","","","feedback_test"
"","","","","","psychophysics","113","333576","0.0-11.0-0.0-0.2","826","","f","","","","","","","","","","","","","key","f","16.65159633027501","640","356","f","true","img/T_ambi40.png","常人","prac_simultaneous",""
"","","","","","html-keyboard-response","114","333878","0.0-11.0-0.0-1.2","null","<span style='color:GreenYellow; font-size: 70px;'>正确! </span>","null","","","","","","","","","","","","","","","","","","","","","","","feedback_test"
"","","","","","psychophysics","115","335667","0.0-11.0-0.0-0.3","778","","j","","","","","","","","","","","","","key","j","16.647018867924277","640","356","j","true","img/S_ambi40.png","坏人","prac_simultaneous",""
"","","","","","html-keyboard-response","116","335974","0.0-11.0-0.0-1.3","null","<span style='color:GreenYellow; font-size: 70px;'>正确! </span>","null","","","","","","","","","","","","","","","","","","","","","","","feedback_test"
"","","","","","psychophysics","117","337791","0.0-11.0-0.0-0.4","809","","f","","","","","","","","","","","","","key","f","16.65337962962965","640","356","f","true","img/S_ambi40.png","常人","prac_simultaneous",""
"","","","","","html-keyboard-response","118","338094","0.0-11.0-0.0-1.4","null","<span style='color:GreenYellow; font-size: 70px;'>正确! </span>","null","","","","","","","","","","","","","","","","","","","","","","","feedback_test"
"","","","","","psychophysics","119","340028","0.0-11.0-0.0-0.5","930","","f","","","","","","","","","","","","","key","f","16.653234782608468","640","356","f","true","img/S_ambi40.png","好人","prac_simultaneous",""
"","","","","","html-keyboard-response","120","340346","0.0-11.0-0.0-1.5","null","<span style='color:GreenYellow; font-size: 70px;'>正确! </span>","null","","","","","","","","","","","","","","","","","","","","","","","feedback_test"
"","","","","","psychophysics","121","342307","0.0-11.0-0.0-0.6","948","","f","","","","","","","","","","","","","key","f","16.531862068965484","640","356","f","true","img/T_ambi40.png","坏人","prac_simultaneous",""
"","","","","","html-keyboard-response","122","342622","0.0-11.0-0.0-1.6","null","<span style='color:GreenYellow; font-size: 70px;'>正确! </span>","null","","","","","","","","","","","","","","","","","","","","","","","feedback_test"
"","","","","","psychophysics","123","344521","0.0-11.0-0.0-0.7","893","","j","","","","","","","","","","","","","key","j","16.654336283185863","640","356","j","true","img/C_ambi40.png","常人","prac_simultaneous",""
"","","","","","html-keyboard-response","124","344825","0.0-11.0-0.0-1.7","null","<span style='color:GreenYellow; font-size: 70px;'>正确! </span>","null","","","","","","","","","","","","","","","","","","","","","","","feedback_test"
"","","","","","psychophysics","125","346854","0.0-11.0-0.0-0.8","1024","","j","","","","","","","","","","","","","key","j","16.545100000000094","640","356","j","true","img/T_ambi40.png","好人","prac_simultaneous",""
"","","","","","html-keyboard-response","126","347158","0.0-11.0-0.0-1.8","null","<span style='color:GreenYellow; font-size: 70px;'>正确! </span>","null","","","","","","","","","","","","","","","","","","","","","","","feedback_test"
"","","","","","psychophysics","127","348899","0.0-11.0-0.0-0.9","740","","j","","","","","","","","","","","","","key","j","16.653281553398063","640","356","j","true","img/S_ambi40.png","坏人","prac_simultaneous",""
"","","","","","html-keyboard-response","128","349216","0.0-11.0-0.0-1.9","null","<span style='color:GreenYellow; font-size: 70px;'>正确! </span>","null","","","","","","","","","","","","","","","","","","","","","","","feedback_test"
"","","","","","psychophysics","129","351182","0.0-11.0-0.0-0.10","959","","f","","","","","","","","","","","","","key","f","16.656293103448316","640","356","j","false","img/T_ambi40.png","好人","prac_simultaneous",""
"","","","","","html-keyboard-response","130","351492","0.0-11.0-0.0-1.10","null","<span style='color:red; font-size: 70px;'>错误! </span>","null","","","","","","","","","","","","","","","","","","","","","","","feedback_test"
"","","","","","psychophysics","131","353235","0.0-11.0-0.0-0.11","741","","j","","","","","","","","","","","","","key","j","16.6498737864081","640","356","j","true","img/C_ambi40.png","常人","prac_simultaneous",""
"","","","","","html-keyboard-response","132","353542","0.0-11.0-0.0-1.11","null","<span style='color:GreenYellow; font-size: 70px;'>正确! </span>","null","","","","","","","","","","","","","","","","","","","","","","","feedback_test"
"","","","","","psychophysics","133","355456","0.0-11.0-0.0-0.12","904","","j","","","","","","","","","","","","","key","j","16.648377192982274","640","356","j","true","img/C_ambi40.png","常人","prac_simultaneous",""
"","","","","","html-keyboard-response","134","355779","0.0-11.0-0.0-1.12","null","<span style='color:GreenYellow; font-size: 70px;'>正确! </span>","null","","","","","","","","","","","","","","","","","","","","","","","feedback_test"
"","","","","","psychophysics","135","357660","0.0-11.0-0.0-0.13","878","","f","","","","","","","","","","","","","key","f","16.65316071428606","640","356","f","true","img/C_ambi40.png","坏人","prac_simultaneous",""
"","","","","","html-keyboard-response","136","357971","0.0-11.0-0.0-1.13","null","<span style='color:GreenYellow; font-size: 70px;'>正确! </span>","null","","","","","","","","","","","","","","","","","","","","","","","feedback_test"
"","","","","","psychophysics","137","360039","0.0-11.0-0.0-0.14","1065","","j","","","","","","","","","","","","","key","j","16.65267479674781","640","356","j","true","img/C_ambi40.png","常人","prac_simultaneous",""
"","","","","","html-keyboard-response","138","360349","0.0-11.0-0.0-1.14","null","<span style='color:GreenYellow; font-size: 70px;'>正确! </span>","null","","","","","","","","","","","","","","","","","","","","","","","feedback_test"
"","","","","","psychophysics","139","362120","0.0-11.0-0.0-0.15","760","","j","","","","","","","","","","","","","key","j","16.653676190476176","640","356","j","true","img/S_ambi40.png","坏人","prac_simultaneous",""
"","","","","","html-keyboard-response","140","362427","0.0-11.0-0.0-1.15","null","<span style='color:GreenYellow; font-size: 70px;'>正确! </span>","null","","","","","","","","","","","","","","","","","","","","","","","feedback_test"
"","","","","","psychophysics","141","364374","0.0-11.0-0.0-0.16","944","","f","","","","","","","","","","","","","key","f","16.54272173913044","640","356","f","true","img/T_ambi40.png","常人","prac_simultaneous",""
"","","","","","html-keyboard-response","142","364690","0.0-11.0-0.0-1.16","null","<span style='color:GreenYellow; font-size: 70px;'>正确! </span>","null","","","","","","","","","","","","","","","","","","","","","","","feedback_test"
"","","","","","psychophysics","143","366563","0.0-11.0-0.0-0.17","869","","f","","","","","","","","","","","","","key","f","16.654080357142707","640","356","f","true","img/S_ambi40.png","常人","prac_simultaneous",""
"","","","","","html-keyboard-response","144","366881","0.0-11.0-0.0-1.17","null","<span style='color:GreenYellow; font-size: 70px;'>正确! </span>","null","","","","","","","","","","","","","","","","","","","","","","","feedback_test"
"","","","","","psychophysics","145","368900","0.0-11.0-0.0-0.18","1011","","f","","","","","","","","","","","","","key","f","16.65070833333302","640","356","f","true","img/T_ambi40.png","坏人","prac_simultaneous",""
"","","","","","html-keyboard-response","146","369211","0.0-11.0-0.0-1.18","null","<span style='color:GreenYellow; font-size: 70px;'>正确! </span>","null","","","","","","","","","","","","","","","","","","","","","","","feedback_test"
"","","","","","psychophysics","147","370997","0.0-11.0-0.0-0.19","783","","j","","","","","","","","","","","","","key","j","16.651396226415187","640","356","j","true","img/S_ambi40.png","坏人","prac_simultaneous",""
"","","","","","html-keyboard-response","148","371309","0.0-11.0-0.0-1.19","null","<span style='color:GreenYellow; font-size: 70px;'>正确! </span>","null","","","","","","","","","","","","","","","","","","","","","","","feedback_test"
"","","","","","psychophysics","149","373062","0.0-11.0-0.0-0.20","744","","f","","","","","","","","","","","","","key","f","16.653413461538058","640","356","f","true","img/S_ambi40.png","好人","prac_simultaneous",""
"","","","","","html-keyboard-response","150","373372","0.0-11.0-0.0-1.20","null","<span style='color:GreenYellow; font-size: 70px;'>正确! </span>","null","","","","","","","","","","","","","","","","","","","","","","","feedback_test"
"","","","","","psychophysics","151","375126","0.0-11.0-0.0-0.21","751","","f","","","","","","","","","","","","","key","f","16.6543173076923","640","356","f","true","img/C_ambi40.png","好人","prac_simultaneous",""
"","","","","","html-keyboard-response","152","375445","0.0-11.0-0.0-1.21","null","<span style='color:GreenYellow; font-size: 70px;'>正确! </span>","null","","","","","","","","","","","","","","","","","","","","","","","feedback_test"
"","","","","","psychophysics","153","377138","0.0-11.0-0.0-0.22","686","","j","","","","","","","","","","","","","key","j","16.648554455445698","640","356","j","true","img/T_ambi40.png","好人","prac_simultaneous",""
"","","","","","html-keyboard-response","154","377452","0.0-11.0-0.0-1.22","null","<span style='color:GreenYellow; font-size: 70px;'>正确! </span>","null","","","","","","","","","","","","","","","","","","","","","","","feedback_test"
"","","","","","psychophysics","155","379168","0.0-11.0-0.0-0.23","715","","j","","","","","","","","","","","","","key","j","16.653960396039487","640","356","j","true","img/T_ambi40.png","好人","prac_simultaneous",""
"","","","","","html-keyboard-response","156","379485","0.0-11.0-0.0-1.23","null","<span style='color:GreenYellow; font-size: 70px;'>正确! </span>","null","","","","","","","","","","","","","","","","","","","","","","","feedback_test"
"","","","","","html-keyboard-response","157","395614","0.0-12.0","16126","<style>.context{color:white; font-size: 35px; line-height:40px}</style>                              <div><p class='context'>您正确回答了96% 的试次。</p><p class='context'>您的平均反应时为889毫秒。</p><p class='context'>恭喜您完成练习。按任意键进入正式实验。</p><p class='footer' style='font-size: 35px; line-height:40px;'>请在进入正式实验实验之前将您的<span style='color: lightgreen;'>食指</span>放在电脑键盘的相应键位上进行按键。</p>","j","","","","","","","","","","","","","","","","","","","","","","",""
"","","","","","html-keyboard-response","158","399925","0.0-13.0-1.0-0.0","4302","
      <p>请您将手指放在按键上，准备进入呈现顺序为<span style='color: yellow;'>先文字后图形条件</span>的正式匹配任务</p>
      <p> <div style = ""color: green""><按任意键进入下一阶段的匹配任务></div></p>
      ","j","","","","","","","","","","","","","","","","","","","","","","",""
"","","","","","psychophysics","159","401922","0.0-13.0-1.0-1.0-0.0-0.0","842","","f","","","","","","","","","","","","","key","f","16.653075630252225","640","356","f","true","img/C_ambi40.png","坏人","word_first",""
"","","","","","html-keyboard-response","160","402240","0.0-13.0-1.0-1.0-0.0-1.0","null","<span style='color:GreenYellow; font-size: 70px;'>正确! </span>","null","","","","","","","","","","","","","","","","","","","","","","","feedback_test"
"","","","","","psychophysics","161","404385","0.0-13.0-1.0-1.0-0.0-0.1","990","","j","","","","","","","","","","","","","key","j","16.649828125000113","640","356","j","true","img/S_ambi40.png","坏人","word_first",""
"","","","","","html-keyboard-response","162","404693","0.0-13.0-1.0-1.0-0.0-1.1","null","<span style='color:GreenYellow; font-size: 70px;'>正确! </span>","null","","","","","","","","","","","","","","","","","","","","","","","feedback_test"
"","","","","","psychophysics","163","406552","0.0-13.0-1.0-1.0-0.0-0.2","701","","f","","","","","","","","","","","","","key","f","16.53623636363614","640","356","f","true","img/S_ambi40.png","好人","word_first",""
"","","","","","html-keyboard-response","164","406868","0.0-13.0-1.0-1.0-0.0-1.2","null","<span style='color:GreenYellow; font-size: 70px;'>正确! </span>","null","","","","","","","","","","","","","","","","","","","","","","","feedback_test"
"","","","","","psychophysics","165","408606","0.0-13.0-1.0-1.0-0.0-0.3","582","","j","","","","","","","","","","","","","key","j","16.65382524271828","640","356","j","true","img/C_ambi40.png","常人","word_first",""
"","","","","","html-keyboard-response","166","408914","0.0-13.0-1.0-1.0-0.0-1.3","null","<span style='color:GreenYellow; font-size: 70px;'>正确! </span>","null","","","","","","","","","","","","","","","","","","","","","","","feedback_test"
"","","","","","psychophysics","167","410883","0.0-13.0-1.0-1.0-0.0-0.4","813","","f","","","","","","","","","","","","","key","f","16.652162393162516","640","356","f","true","img/T_ambi40.png","坏人","word_first",""
"","","","","","html-keyboard-response","168","411199","0.0-13.0-1.0-1.0-0.0-1.4","null","<span style='color:GreenYellow; font-size: 70px;'>正确! </span>","null","","","","","","","","","","","","","","","","","","","","","","","feedback_test"
"","","","","","psychophysics","169","413152","0.0-13.0-1.0-1.0-0.0-0.5","793","","j","","","","","","","","","","","","","key","j","16.65125000000036","640","356","j","true","img/S_ambi40.png","坏人","word_first",""
"","","","","","html-keyboard-response","170","413463","0.0-13.0-1.0-1.0-0.0-1.5","null","<span style='color:GreenYellow; font-size: 70px;'>正确! </span>","null","","","","","","","","","","","","","","","","","","","","","","","feedback_test"
"","","","","","psychophysics","171","415167","0.0-13.0-1.0-1.0-0.0-0.6","542","","j","","","","","","","","","","","","","key","j","16.651138613861523","640","356","j","true","img/C_ambi40.png","常人","word_first",""
"","","","","","html-keyboard-response","172","415477","0.0-13.0-1.0-1.0-0.0-1.6","null","<span style='color:GreenYellow; font-size: 70px;'>正确! </span>","null","","","","","","","","","","","","","","","","","","","","","","","feedback_test"
"","","","","","psychophysics","173","417259","0.0-13.0-1.0-1.0-0.0-0.7","628","","f","","","","","","","","","","","","","key","f","16.654396226414907","640","356","f","true","img/S_ambi40.png","常人","word_first",""
"","","","","","html-keyboard-response","174","417569","0.0-13.0-1.0-1.0-0.0-1.7","null","<span style='color:GreenYellow; font-size: 70px;'>正确! </span>","null","","","","","","","","","","","","","","","","","","","","","","","feedback_test"
"","","","","","psychophysics","175","419773","0.0-13.0-1.0-1.0-0.0-0.8","1046","","j","","","","","","","","","","","","","key","j","16.652076335878018","640","356","j","true","img/T_ambi40.png","好人","word_first",""
"","","","","","html-keyboard-response","176","420088","0.0-13.0-1.0-1.0-0.0-1.8","null","<span style='color:GreenYellow; font-size: 70px;'>正确! </span>","null","","","","","","","","","","","","","","","","","","","","","","","feedback_test"
"","","","","","psychophysics","177","421846","0.0-13.0-1.0-1.0-0.0-0.9","599","","f","","","","","","","","","","","","","key","f","16.653288461538278","640","356","f","true","img/T_ambi40.png","常人","word_first",""
"","","","","","html-keyboard-response","178","422161","0.0-13.0-1.0-1.0-0.0-1.9","null","<span style='color:GreenYellow; font-size: 70px;'>正确! </span>","null","","","","","","","","","","","","","","","","","","","","","","","feedback_test"
"","","","","","psychophysics","179","424029","0.0-13.0-1.0-1.0-0.0-0.10","717","","f","","","","","","","","","","","","","key","f","16.653558558558412","640","356","f","true","img/C_ambi40.png","好人","word_first",""
"","","","","","html-keyboard-response","180","424346","0.0-13.0-1.0-1.0-0.0-1.10","null","<span style='color:GreenYellow; font-size: 70px;'>正确! </span>","null","","","","","","","","","","","","","","","","","","","","","","","feedback_test"
"","","","","","psychophysics","181","426251","0.0-13.0-1.0-1.0-0.0-0.11","748","","j","","","","","","","","","","","","","key","j","16.650743362831726","640","356","j","true","img/T_ambi40.png","好人","word_first",""
"","","","","","html-keyboard-response","182","426566","0.0-13.0-1.0-1.0-0.0-1.11","null","<span style='color:GreenYellow; font-size: 70px;'>正确! </span>","null","","","","","","","","","","","","","","","","","","","","","","","feedback_test"
"","","","","","psychophysics","183","428318","0.0-13.0-1.0-1.0-0.0-0.12","588","","j","","","","","","","","","","","","","key","j","16.81473786407772","640","356","j","true","img/T_ambi40.png","好人","word_first",""
"","","","","","html-keyboard-response","184","428630","0.0-13.0-1.0-1.0-0.0-1.12","null","<span style='color:GreenYellow; font-size: 70px;'>正确! </span>","null","","","","","","","","","","","","","","","","","","","","","","","feedback_test"
"","","","","","psychophysics","185","430536","0.0-13.0-1.0-1.0-0.0-0.13","745","","f","","","","","","","","","","","","","key","f","16.65152212389409","640","356","f","true","img/S_ambi40.png","好人","word_first",""
"","","","","","html-keyboard-response","186","430847","0.0-13.0-1.0-1.0-0.0-1.13","null","<span style='color:GreenYellow; font-size: 70px;'>正确! </span>","null","","","","","","","","","","","","","","","","","","","","","","","feedback_test"
"","","","","","psychophysics","187","432642","0.0-13.0-1.0-1.0-0.0-0.14","642","","f","","","","","","","","","","","","","key","f","16.65428971962581","640","356","f","true","img/C_ambi40.png","坏人","word_first",""
"","","","","","html-keyboard-response","188","432951","0.0-13.0-1.0-1.0-0.0-1.14","null","<span style='color:GreenYellow; font-size: 70px;'>正确! </span>","null","","","","","","","","","","","","","","","","","","","","","","","feedback_test"
"","","","","","psychophysics","189","434878","0.0-13.0-1.0-1.0-0.0-0.15","774","","f","","","","","","","","","","","","","key","f","16.654385964912077","640","356","f","true","img/S_ambi40.png","常人","word_first",""
"","","","","","html-keyboard-response","190","435182","0.0-13.0-1.0-1.0-0.0-1.15","null","<span style='color:GreenYellow; font-size: 70px;'>正确! </span>","null","","","","","","","","","","","","","","","","","","","","","","","feedback_test"
"","","","","","psychophysics","191","436940","0.0-13.0-1.0-1.0-0.0-0.16","604","","f","","","","","","","","","","","","","key","f","16.644695238095508","640","356","f","true","img/T_ambi40.png","常人","word_first",""
"","","","","","html-keyboard-response","192","437258","0.0-13.0-1.0-1.0-0.0-1.16","null","<span style='color:GreenYellow; font-size: 70px;'>正确! </span>","null","","","","","","","","","","","","","","","","","","","","","","","feedback_test"
"","","","","","psychophysics","193","439028","0.0-13.0-1.0-1.0-0.0-0.17","613","","j","","","","","","","","","","","","","key","j","16.65083809523799","640","356","j","true","img/S_ambi40.png","坏人","word_first",""
"","","","","","html-keyboard-response","194","439337","0.0-13.0-1.0-1.0-0.0-1.17","null","<span style='color:GreenYellow; font-size: 70px;'>正确! </span>","null","","","","","","","","","","","","","","","","","","","","","","","feedback_test"
"","","","","","psychophysics","195","441107","0.0-13.0-1.0-1.0-0.0-0.18","617","","j","","","","","","","","","","","","","key","j","16.6498095238099","640","356","j","true","img/C_ambi40.png","常人","word_first",""
"","","","","","html-keyboard-response","196","441427","0.0-13.0-1.0-1.0-0.0-1.18","null","<span style='color:GreenYellow; font-size: 70px;'>正确! </span>","null","","","","","","","","","","","","","","","","","","","","","","","feedback_test"
"","","","","","psychophysics","197","443091","0.0-13.0-1.0-1.0-0.0-0.19","508","","j","","","","","","","","","","","","","key","j","16.65352525252489","640","356","j","true","img/C_ambi40.png","常人","word_first",""
"","","","","","html-keyboard-response","198","443411","0.0-13.0-1.0-1.0-0.0-1.19","null","<span style='color:GreenYellow; font-size: 70px;'>正确! </span>","null","","","","","","","","","","","","","","","","","","","","","","","feedback_test"
"","","","","","psychophysics","199","445261","0.0-13.0-1.0-1.0-0.0-0.20","690","","f","","","","","","","","","","","","","key","f","16.654245454545492","640","356","f","true","img/C_ambi40.png","好人","word_first",""
"","","","","","html-keyboard-response","200","445571","0.0-13.0-1.0-1.0-0.0-1.20","null","<span style='color:GreenYellow; font-size: 70px;'>正确! </span>","null","","","","","","","","","","","","","","","","","","","","","","","feedback_test"
"","","","","","psychophysics","201","447469","0.0-13.0-1.0-1.0-0.0-0.21","740","","f","","","","","","","","","","","","","key","f","16.65032743362852","640","356","f","true","img/T_ambi40.png","坏人","word_first",""
"","","","","","html-keyboard-response","202","447777","0.0-13.0-1.0-1.0-0.0-1.21","null","<span style='color:GreenYellow; font-size: 70px;'>正确! </span>","null","","","","","","","","","","","","","","","","","","","","","","","feedback_test"
"","","","","","psychophysics","203","449854","0.0-13.0-1.0-1.0-0.0-0.22","925","","j","","","","","","","","","","","","","key","j","16.653934959349662","640","356","j","true","img/T_ambi40.png","好人","word_first",""
"","","","","","html-keyboard-response","204","450171","0.0-13.0-1.0-1.0-0.0-1.22","null","<span style='color:GreenYellow; font-size: 70px;'>正确! </span>","null","","","","","","","","","","","","","","","","","","","","","","","feedback_test"
"","","","","","psychophysics","205","451970","0.0-13.0-1.0-1.0-0.0-0.23","637","","j","","","","","","","","","","","","","key","j","16.653485981308503","640","356","j","true","img/S_ambi40.png","坏人","word_first",""
"","","","","","html-keyboard-response","206","452287","0.0-13.0-1.0-1.0-0.0-1.23","null","<span style='color:GreenYellow; font-size: 70px;'>正确! </span>","null","","","","","","","","","","","","","","","","","","","","","","","feedback_test"
"","","","","","psychophysics","207","454262","0.0-13.0-1.0-1.0-0.0-0.24","821","","f","","","","","","","","","","","","","key","f","16.545393162393548","640","356","f","true","img/T_ambi40.png","坏人","word_first",""
"","","","","","html-keyboard-response","208","454568","0.0-13.0-1.0-1.0-0.0-1.24","null","<span style='color:GreenYellow; font-size: 70px;'>正确! </span>","null","","","","","","","","","","","","","","","","","","","","","","","feedback_test"
"","","","","","psychophysics","209","456451","0.0-13.0-1.0-1.0-0.0-0.25","732","","f","","","","","","","","","","","","","key","f","16.65307142857169","640","356","f","true","img/C_ambi40.png","坏人","word_first",""
"","","","","","html-keyboard-response","210","456773","0.0-13.0-1.0-1.0-0.0-1.25","null","<span style='color:GreenYellow; font-size: 70px;'>正确! </span>","null","","","","","","","","","","","","","","","","","","","","","","","feedback_test"
"","","","","","psychophysics","211","458974","0.0-13.0-1.0-1.0-0.0-0.26","1046","","f","","","","","","","","","","","","","key","f","16.65310687022879","640","356","f","true","img/S_ambi40.png","常人","word_first",""
"","","","","","html-keyboard-response","212","459281","0.0-13.0-1.0-1.0-0.0-1.26","null","<span style='color:GreenYellow; font-size: 70px;'>正确! </span>","null","","","","","","","","","","","","","","","","","","","","","","","feedback_test"
"","","","","","psychophysics","213","461286","0.0-13.0-1.0-1.0-0.0-0.27","853","","j","","","","","","","","","","","","","key","j","16.65323529411753","640","356","j","true","img/S_ambi40.png","坏人","word_first",""
"","","","","","html-keyboard-response","214","461599","0.0-13.0-1.0-1.0-0.0-1.27","null","<span style='color:GreenYellow; font-size: 70px;'>正确! </span>","null","","","","","","","","","","","","","","","","","","","","","","","feedback_test"
"","","","","","psychophysics","215","463832","0.0-13.0-1.0-1.0-0.0-0.28","1081","","f","","","","","","","","","","","","","key","f","16.650819548872242","640","356","f","true","img/T_ambi40.png","常人","word_first",""
"","","","","","html-keyboard-response","216","464147","0.0-13.0-1.0-1.0-0.0-1.28","null","<span style='color:GreenYellow; font-size: 70px;'>正确! </span>","null","","","","","","","","","","","","","","","","","","","","","","","feedback_test"
"","","","","","psychophysics","217","466501","0.0-13.0-1.0-1.0-0.0-0.29","1203","","f","","","","","","","","","","","","","key","f","16.651078571428247","640","356","f","true","img/S_ambi40.png","好人","word_first",""
"","","","","","html-keyboard-response","218","466821","0.0-13.0-1.0-1.0-0.0-1.29","null","<span style='color:GreenYellow; font-size: 70px;'>正确! </span>","null","","","","","","","","","","","","","","","","","","","","","","","feedback_test"
"","","","","","psychophysics","219","468555","0.0-13.0-1.0-1.0-0.0-0.30","565","","j","","","","","","","","","","","","","key","j","16.654446601941707","640","356","j","true","img/T_ambi40.png","好人","word_first",""
"","","","","","html-keyboard-response","220","468864","0.0-13.0-1.0-1.0-0.0-1.30","null","<span style='color:GreenYellow; font-size: 70px;'>正确! </span>","null","","","","","","","","","","","","","","","","","","","","","","","feedback_test"
"","","","","","psychophysics","221","470823","0.0-13.0-1.0-1.0-0.0-0.31","801","","j","","","","","","","","","","","","","key","j","16.65087068965508","640","356","j","true","img/C_ambi40.png","常人","word_first",""
"","","","","","html-keyboard-response","222","471145","0.0-13.0-1.0-1.0-0.0-1.31","null","<span style='color:GreenYellow; font-size: 70px;'>正确! </span>","null","","","","","","","","","","","","","","","","","","","","","","","feedback_test"
"","","","","","psychophysics","223","472967","0.0-13.0-1.0-1.0-0.0-0.32","660","","j","","","","","","","","","","","","","key","j","16.64427777777773","640","356","j","true","img/C_ambi40.png","常人","word_first",""
"","","","","","html-keyboard-response","224","473285","0.0-13.0-1.0-1.0-0.0-1.32","null","<span style='color:GreenYellow; font-size: 70px;'>正确! </span>","null","","","","","","","","","","","","","","","","","","","","","","","feedback_test"
"","","","","","psychophysics","225","475101","0.0-13.0-1.0-1.0-0.0-0.33","654","","j","","","","","","","","","","","","","key","j","16.652750000000296","640","356","j","true","img/S_ambi40.png","坏人","word_first",""
"","","","","","html-keyboard-response","226","475415","0.0-13.0-1.0-1.0-0.0-1.33","null","<span style='color:GreenYellow; font-size: 70px;'>正确! </span>","null","","","","","","","","","","","","","","","","","","","","","","","feedback_test"
"","","","","","psychophysics","227","477331","0.0-13.0-1.0-1.0-0.0-0.34","764","","j","","","","","","","","","","","","","key","j","16.65296491228091","640","356","j","true","img/T_ambi40.png","好人","word_first",""
"","","","","","html-keyboard-response","228","477646","0.0-13.0-1.0-1.0-0.0-1.34","null","<span style='color:GreenYellow; font-size: 70px;'>正确! </span>","null","","","","","","","","","","","","","","","","","","","","","","","feedback_test"
"","","","","","psychophysics","229","479397","0.0-13.0-1.0-1.0-0.0-0.35","598","","f","","","","","","","","","","","","","key","f","16.653932692307883","640","356","f","true","img/C_ambi40.png","好人","word_first",""
"","","","","","html-keyboard-response","230","479709","0.0-13.0-1.0-1.0-0.0-1.35","null","<span style='color:GreenYellow; font-size: 70px;'>正确! </span>","null","","","","","","","","","","","","","","","","","","","","","","","feedback_test"
"","","","","","psychophysics","231","481393","0.0-13.0-1.0-1.0-0.0-0.36","530","","j","","","","","","","","","","","","","key","j","16.65359999999986","640","356","j","true","img/C_ambi40.png","常人","word_first",""
"","","","","","html-keyboard-response","232","481702","0.0-13.0-1.0-1.0-0.0-1.36","null","<span style='color:GreenYellow; font-size: 70px;'>正确! </span>","null","","","","","","","","","","","","","","","","","","","","","","","feedback_test"
"","","","","","psychophysics","233","483492","0.0-13.0-1.0-1.0-0.0-0.37","637","","f","","","","","","","","","","","","","key","f","16.652509433962514","640","356","f","true","img/C_ambi40.png","坏人","word_first",""
"","","","","","html-keyboard-response","234","483807","0.0-13.0-1.0-1.0-0.0-1.37","null","<span style='color:GreenYellow; font-size: 70px;'>正确! </span>","null","","","","","","","","","","","","","","","","","","","","","","","feedback_test"
"","","","","","psychophysics","235","485537","0.0-13.0-1.0-1.0-0.0-0.38","573","","j","","","","","","","","","","","","","key","j","16.653757281553393","640","356","j","true","img/T_ambi40.png","好人","word_first",""
"","","","","","html-keyboard-response","236","485847","0.0-13.0-1.0-1.0-0.0-1.38","null","<span style='color:GreenYellow; font-size: 70px;'>正确! </span>","null","","","","","","","","","","","","","","","","","","","","","","","feedback_test"
"","","","","","psychophysics","237","487515","0.0-13.0-1.0-1.0-0.0-0.39","516","","f","","","","","","","","","","","","","key","f","16.650898989899122","640","356","f","true","img/T_ambi40.png","常人","word_first",""
"","","","","","html-keyboard-response","238","487837","0.0-13.0-1.0-1.0-0.0-1.39","null","<span style='color:GreenYellow; font-size: 70px;'>正确! </span>","null","","","","","","","","","","","","","","","","","","","","","","","feedback_test"
"","","","","","psychophysics","239","489732","0.0-13.0-1.0-1.0-0.0-0.40","741","","f","","","","","","","","","","","","","key","f","16.65446017699139","640","356","f","true","img/C_ambi40.png","好人","word_first",""
"","","","","","html-keyboard-response","240","490038","0.0-13.0-1.0-1.0-0.0-1.40","null","<span style='color:GreenYellow; font-size: 70px;'>正确! </span>","null","","","","","","","","","","","","","","","","","","","","","","","feedback_test"
"","","","","","psychophysics","241","491832","0.0-13.0-1.0-1.0-0.0-0.41","643","","f","","","","","","","","","","","","","key","f","16.653560747663388","640","356","f","true","img/S_ambi40.png","常人","word_first",""
"","","","","","html-keyboard-response","242","492142","0.0-13.0-1.0-1.0-0.0-1.41","null","<span style='color:GreenYellow; font-size: 70px;'>正确! </span>","null","","","","","","","","","","","","","","","","","","","","","","","feedback_test"
"","","","","","psychophysics","243","494059","0.0-13.0-1.0-1.0-0.0-0.42","757","","f","","","","","","","","","","","","","key","f","16.652894736842043","640","356","f","true","img/T_ambi40.png","坏人","word_first",""
"","","","","","html-keyboard-response","244","494368","0.0-13.0-1.0-1.0-0.0-1.42","null","<span style='color:GreenYellow; font-size: 70px;'>正确! </span>","null","","","","","","","","","","","","","","","","","","","","","","","feedback_test"
"","","","","","psychophysics","245","496431","0.0-13.0-1.0-1.0-0.0-0.43","912","","j","","","","","","","","","","","","","key","j","16.653512195121817","640","356","j","true","img/C_ambi40.png","常人","word_first",""
"","","","","","html-keyboard-response","246","496736","0.0-13.0-1.0-1.0-0.0-1.43","null","<span style='color:GreenYellow; font-size: 70px;'>正确! </span>","null","","","","","","","","","","","","","","","","","","","","","","","feedback_test"
"","","","","","psychophysics","247","498552","0.0-13.0-1.0-1.0-0.0-0.44","649","","j","","","","","","","","","","","","","key","j","16.652672897196357","640","356","j","true","img/S_ambi40.png","坏人","word_first",""
"","","","","","html-keyboard-response","248","498870","0.0-13.0-1.0-1.0-0.0-1.44","null","<span style='color:GreenYellow; font-size: 70px;'>正确! </span>","null","","","","","","","","","","","","","","","","","","","","","","","feedback_test"
"","","","","","psychophysics","249","500549","0.0-13.0-1.0-1.0-0.0-0.45","519","","j","","","","","","","","","","","","","key","j","16.648616161616047","640","356","j","true","img/S_ambi40.png","坏人","word_first",""
"","","","","","html-keyboard-response","250","500861","0.0-13.0-1.0-1.0-0.0-1.45","null","<span style='color:GreenYellow; font-size: 70px;'>正确! </span>","null","","","","","","","","","","","","","","","","","","","","","","","feedback_test"
"","","","","","psychophysics","251","502687","0.0-13.0-1.0-1.0-0.0-0.46","664","","f","","","","","","","","","","","","","key","f","16.654157407407183","640","356","f","true","img/S_ambi40.png","好人","word_first",""
"","","","","","html-keyboard-response","252","502999","0.0-13.0-1.0-1.0-0.0-1.46","null","<span style='color:GreenYellow; font-size: 70px;'>正确! </span>","null","","","","","","","","","","","","","","","","","","","","","","","feedback_test"
"","","","","","psychophysics","253","504787","0.0-13.0-1.0-1.0-0.0-0.47","629","","j","","","","","","","","","","","","","key","j","16.65125471698164","640","356","j","true","img/T_ambi40.png","好人","word_first",""
"","","","","","html-keyboard-response","254","505097","0.0-13.0-1.0-1.0-0.0-1.47","null","<span style='color:GreenYellow; font-size: 70px;'>正确! </span>","null","","","","","","","","","","","","","","","","","","","","","","","feedback_test"
"","","","","","psychophysics","255","506907","0.0-13.0-1.0-1.0-0.0-0.48","653","","j","","","","","","","","","","","","","key","j","16.652943925233558","640","356","j","true","img/S_ambi40.png","坏人","word_first",""
"","","","","","html-keyboard-response","256","507216","0.0-13.0-1.0-1.0-0.0-1.48","null","<span style='color:GreenYellow; font-size: 70px;'>正确! </span>","null","","","","","","","","","","","","","","","","","","","","","","","feedback_test"
"","","","","","psychophysics","257","508884","0.0-13.0-1.0-1.0-0.0-0.49","510","","j","","","","","","","","","","","","","key","j","16.652808080808345","640","356","j","true","img/T_ambi40.png","好人","word_first",""
"","","","","","html-keyboard-response","258","509202","0.0-13.0-1.0-1.0-0.0-1.49","null","<span style='color:GreenYellow; font-size: 70px;'>正确! </span>","null","","","","","","","","","","","","","","","","","","","","","","","feedback_test"
"","","","","","psychophysics","259","511065","0.0-13.0-1.0-1.0-0.0-0.50","703","","f","","","","","","","","","","","","","key","f","16.653459459459324","640","356","f","true","img/C_ambi40.png","好人","word_first",""
"","","","","","html-keyboard-response","260","511377","0.0-13.0-1.0-1.0-0.0-1.50","null","<span style='color:GreenYellow; font-size: 70px;'>正确! </span>","null","","","","","","","","","","","","","","","","","","","","","","","feedback_test"
"","","","","","psychophysics","261","513103","0.0-13.0-1.0-1.0-0.0-0.51","569","","f","","","","","","","","","","","","","key","f","16.652431372549117","640","356","f","true","img/S_ambi40.png","好人","word_first",""
"","","","","","html-keyboard-response","262","513411","0.0-13.0-1.0-1.0-0.0-1.51","null","<span style='color:GreenYellow; font-size: 70px;'>正确! </span>","null","","","","","","","","","","","","","","","","","","","","","","","feedback_test"
"","","","","","psychophysics","263","515266","0.0-13.0-1.0-1.0-0.0-0.52","697","","f","","","","","","","","","","","","","key","f","16.651381818181836","640","356","f","true","img/C_ambi40.png","坏人","word_first",""
"","","","","","html-keyboard-response","264","515582","0.0-13.0-1.0-1.0-0.0-1.52","null","<span style='color:GreenYellow; font-size: 70px;'>正确! </span>","null","","","","","","","","","","","","","","","","","","","","","","","feedback_test"
"","","","","","psychophysics","265","517509","0.0-13.0-1.0-1.0-0.0-0.53","774","","j","","","","","","","","","","","","","key","j","16.654504347826435","640","356","j","true","img/S_ambi40.png","坏人","word_first",""
"","","","","","html-keyboard-response","266","517817","0.0-13.0-1.0-1.0-0.0-1.53","null","<span style='color:GreenYellow; font-size: 70px;'>正确! </span>","null","","","","","","","","","","","","","","","","","","","","","","","feedback_test"
"","","","","","psychophysics","267","519615","0.0-13.0-1.0-1.0-0.0-0.54","645","","f","","","","","","","","","","","","","key","f","16.524415094339517","640","356","f","true","img/S_ambi40.png","常人","word_first",""
"","","","","","html-keyboard-response","268","519930","0.0-13.0-1.0-1.0-0.0-1.54","null","<span style='color:GreenYellow; font-size: 70px;'>正确! </span>","null","","","","","","","","","","","","","","","","","","","","","","","feedback_test"
"","","","","","psychophysics","269","521689","0.0-13.0-1.0-1.0-0.0-0.55","605","","j","","","","","","","","","","","","","key","j","16.65373333333271","640","356","j","true","img/C_ambi40.png","常人","word_first",""
"","","","","","html-keyboard-response","270","522003","0.0-13.0-1.0-1.0-0.0-1.55","null","<span style='color:GreenYellow; font-size: 70px;'>正确! </span>","null","","","","","","","","","","","","","","","","","","","","","","","feedback_test"
"","","","","","psychophysics","271","523823","0.0-13.0-1.0-1.0-0.0-0.56","665","","j","","","","","","","","","","","","","key","j","16.651388888888672","640","356","j","true","img/C_ambi40.png","常人","word_first",""
"","","","","","html-keyboard-response","272","524141","0.0-13.0-1.0-1.0-0.0-1.56","null","<span style='color:GreenYellow; font-size: 70px;'>正确! </span>","null","","","","","","","","","","","","","","","","","","","","","","","feedback_test"
"","","","","","psychophysics","273","526400","0.0-13.0-1.0-1.0-0.0-0.57","1104","","f","","","","","","","","","","","","","key","f","16.655126865671726","640","356","f","true","img/T_ambi40.png","坏人","word_first",""
"","","","","","html-keyboard-response","274","526716","0.0-13.0-1.0-1.0-0.0-1.57","null","<span style='color:GreenYellow; font-size: 70px;'>正确! </span>","null","","","","","","","","","","","","","","","","","","","","","","","feedback_test"
"","","","","","psychophysics","275","528578","0.0-13.0-1.0-1.0-0.0-0.58","706","","f","","","","","","","","","","","","","key","f","16.65299999999962","640","356","j","false","img/T_ambi40.png","好人","word_first",""
"","","","","","html-keyboard-response","276","528888","0.0-13.0-1.0-1.0-0.0-1.58","null","<span style='color:red; font-size: 70px;'>错误! </span>","null","","","","","","","","","","","","","","","","","","","","","","","feedback_test"
"","","","","","psychophysics","277","530683","0.0-13.0-1.0-1.0-0.0-0.59","642","","f","","","","","","","","","","","","","key","f","16.653728971962824","640","356","f","true","img/T_ambi40.png","常人","word_first",""
"","","","","","html-keyboard-response","278","531000","0.0-13.0-1.0-1.0-0.0-1.59","null","<span style='color:GreenYellow; font-size: 70px;'>正确! </span>","null","","","","","","","","","","","","","","","","","","","","","","","feedback_test"
"","","","","","html-keyboard-response","279","534026","0.0-13.0-1.0-1.0-1.0","3024","<style>.context{color:white; font-size: 35px; line-height:40px}</style>                              <div><p class='context'>您正确回答了98% 的试次。</p><p class='context'>您的平均反应时为715毫秒。</p><p class='context'>请按任意键进入休息</p></div>","j","","","","","","","","","","","","","","","","","","","","","","",""
"","","","","","html-button-response","280","539037","0.0-13.0-1.0-1.0-2.0","5007","
                      <p>您当前还剩余3组实验</p>
                      <p>现在是休息时间，当您结束休息后，您可以点击 结束休息 按钮 继续</p>
                      <p>建议休息时间还剩余<span id=""iii"">60</span>秒</p>","0","","","","","","","","","","","","","","","","","","","","","","",""
"","","","","","psychophysics","281","540754","0.0-13.0-1.0-1.0-0.1-0.60","564","","f","","","","","","","","","","","","","key","f","16.65309900990088","640","356","f","true","img/T_ambi40.png","常人","word_first",""
"","","","","","html-keyboard-response","282","541077","0.0-13.0-1.0-1.0-0.1-1.60","null","<span style='color:GreenYellow; font-size: 70px;'>正确! </span>","null","","","","","","","","","","","","","","","","","","","","","","","feedback_test"
"","","","","","psychophysics","283","542773","0.0-13.0-1.0-1.0-0.1-0.61","543","","f","","","","","","","","","","","","","key","f","16.653326732673598","640","356","f","true","img/S_ambi40.png","常人","word_first",""
"","","","","","html-keyboard-response","284","543093","0.0-13.0-1.0-1.0-0.1-1.61","null","<span style='color:GreenYellow; font-size: 70px;'>正确! </span>","null","","","","","","","","","","","","","","","","","","","","","","","feedback_test"
"","","","","","psychophysics","285","545422","0.0-13.0-1.0-1.0-0.1-0.62","1176","","j","","","","","","","","","","","","","key","j","16.653748201439157","640","356","j","true","img/S_ambi40.png","坏人","word_first",""
"","","","","","html-keyboard-response","286","545741","0.0-13.0-1.0-1.0-0.1-1.62","null","<span style='color:GreenYellow; font-size: 70px;'>正确! </span>","null","","","","","","","","","","","","","","","","","","","","","","","feedback_test"
"","","","","","psychophysics","287","547476","0.0-13.0-1.0-1.0-0.1-0.63","582","","j","","","","","","","","","","","","","key","j","16.653825242718845","640","356","j","true","img/C_ambi40.png","常人","word_first",""
"","","","","","html-keyboard-response","288","547791","0.0-13.0-1.0-1.0-0.1-1.63","null","<span style='color:GreenYellow; font-size: 70px;'>正确! </span>","null","","","","","","","","","","","","","","","","","","","","","","","feedback_test"
"","","","","","psychophysics","289","549508","0.0-13.0-1.0-1.0-0.1-0.64","565","","f","","","","","","","","","","","","","key","f","16.527722772276537","640","356","f","true","img/C_ambi40.png","坏人","word_first",""
"","","","","","html-keyboard-response","290","549818","0.0-13.0-1.0-1.0-0.1-1.64","null","<span style='color:GreenYellow; font-size: 70px;'>正确! </span>","null","","","","","","","","","","","","","","","","","","","","","","","feedback_test"
"","","","","","psychophysics","291","551892","0.0-13.0-1.0-1.0-0.1-0.65","915","","f","","","","","","","","","","","","","key","f","16.65429268292685","640","356","j","false","img/S_ambi40.png","坏人","word_first",""
"","","","","","html-keyboard-response","292","552204","0.0-13.0-1.0-1.0-0.1-1.65","null","<span style='color:red; font-size: 70px;'>错误! </span>","null","","","","","","","","","","","","","","","","","","","","","","","feedback_test"
"","","","","","psychophysics","293","553980","0.0-13.0-1.0-1.0-0.1-0.66","615","","j","","","","","","","","","","","","","key","j","16.653905660377482","640","356","j","true","img/T_ambi40.png","好人","word_first",""
"","","","","","html-keyboard-response","294","554292","0.0-13.0-1.0-1.0-0.1-1.66","null","<span style='color:GreenYellow; font-size: 70px;'>正确! </span>","null","","","","","","","","","","","","","","","","","","","","","","","feedback_test"
"","","","","","psychophysics","295","556003","0.0-13.0-1.0-1.0-0.1-0.67","557","","j","","","","","","","","","","","","","key","j","16.651623762376367","640","356","j","true","img/C_ambi40.png","常人","word_first",""
"","","","","","html-keyboard-response","296","556319","0.0-13.0-1.0-1.0-0.1-1.67","null","<span style='color:GreenYellow; font-size: 70px;'>正确! </span>","null","","","","","","","","","","","","","","","","","","","","","","","feedback_test"
"","","","","","psychophysics","297","558224","0.0-13.0-1.0-1.0-0.1-0.68","752","","j","","","","","","","","","","","","","key","j","16.53919469026552","640","356","j","true","img/T_ambi40.png","好人","word_first",""
"","","","","","html-keyboard-response","298","558540","0.0-13.0-1.0-1.0-0.1-1.68","null","<span style='color:GreenYellow; font-size: 70px;'>正确! </span>","null","","","","","","","","","","","","","","","","","","","","","","","feedback_test"
"","","","","","psychophysics","299","560259","0.0-13.0-1.0-1.0-0.1-0.69","557","","f","","","","","","","","","","","","","key","f","16.654284313725142","640","356","f","true","img/S_ambi40.png","好人","word_first",""
"","","","","","html-keyboard-response","300","560566","0.0-13.0-1.0-1.0-0.1-1.69","null","<span style='color:GreenYellow; font-size: 70px;'>正确! </span>","null","","","","","","","","","","","","","","","","","","","","","","","feedback_test"
"","","","","","psychophysics","301","562290","0.0-13.0-1.0-1.0-0.1-0.70","572","","j","","","","","","","","","","","","","key","j","16.653627450980803","640","356","f","false","img/C_ambi40.png","好人","word_first",""
"","","","","","html-keyboard-response","302","562608","0.0-13.0-1.0-1.0-0.1-1.70","null","<span style='color:red; font-size: 70px;'>错误! </span>","null","","","","","","","","","","","","","","","","","","","","","","","feedback_test"
"","","","","","psychophysics","303","564524","0.0-13.0-1.0-1.0-0.1-0.71","759","","f","","","","","","","","","","","","","key","f","16.654254385964585","640","356","f","true","img/T_ambi40.png","坏人","word_first",""
"","","","","","html-keyboard-response","304","564837","0.0-13.0-1.0-1.0-0.1-1.71","null","<span style='color:GreenYellow; font-size: 70px;'>正确! </span>","null","","","","","","","","","","","","","","","","","","","","","","","feedback_test"
"","","","","","psychophysics","305","566499","0.0-13.0-1.0-1.0-0.1-0.72","504","","f","","","","","","","","","","","","","key","f","16.65387755101998","640","356","f","true","img/S_ambi40.png","好人","word_first",""
"","","","","","html-keyboard-response","306","566807","0.0-13.0-1.0-1.0-0.1-1.72","null","<span style='color:GreenYellow; font-size: 70px;'>正确! </span>","null","","","","","","","","","","","","","","","","","","","","","","","feedback_test"
"","","","","","psychophysics","307","568542","0.0-13.0-1.0-1.0-0.1-0.73","582","","f","","","","","","","","","","","","","key","f","16.653009708737954","640","356","f","true","img/C_ambi40.png","坏人","word_first",""
"","","","","","html-keyboard-response","308","568847","0.0-13.0-1.0-1.0-0.1-1.73","null","<span style='color:GreenYellow; font-size: 70px;'>正确! </span>","null","","","","","","","","","","","","","","","","","","","","","","","feedback_test"
"","","","","","psychophysics","309","570717","0.0-13.0-1.0-1.0-0.1-0.74","718","","f","","","","","","","","","","","","","key","f","16.654612612612713","640","356","f","true","img/S_ambi40.png","常人","word_first",""
"","","","","","html-keyboard-response","310","571030","0.0-13.0-1.0-1.0-0.1-1.74","null","<span style='color:GreenYellow; font-size: 70px;'>正确! </span>","null","","","","","","","","","","","","","","","","","","","","","","","feedback_test"
"","","","","","psychophysics","311","572851","0.0-13.0-1.0-1.0-0.1-0.75","659","","j","","","","","","","","","","","","","key","j","16.65383333333281","640","356","j","true","img/C_ambi40.png","常人","word_first",""
"","","","","","html-keyboard-response","312","573172","0.0-13.0-1.0-1.0-0.1-1.75","null","<span style='color:GreenYellow; font-size: 70px;'>正确! </span>","null","","","","","","","","","","","","","","","","","","","","","","","feedback_test"
"","","","","","psychophysics","313","574867","0.0-13.0-1.0-1.0-0.1-0.76","543","","j","","","","","","","","","","","","","key","j","16.504599999999627","640","356","j","true","img/C_ambi40.png","常人","word_first",""
"","","","","","html-keyboard-response","314","575182","0.0-13.0-1.0-1.0-0.1-1.76","null","<span style='color:GreenYellow; font-size: 70px;'>正确! </span>","null","","","","","","","","","","","","","","","","","","","","","","","feedback_test"
"","","","","","psychophysics","315","577019","0.0-13.0-1.0-1.0-0.1-0.77","684","","j","","","","","","","","","","","","","key","j","16.653871559633004","640","356","j","true","img/T_ambi40.png","好人","word_first",""
"","","","","","html-keyboard-response","316","577334","0.0-13.0-1.0-1.0-0.1-1.77","null","<span style='color:GreenYellow; font-size: 70px;'>正确! </span>","null","","","","","","","","","","","","","","","","","","","","","","","feedback_test"
"","","","","","psychophysics","317","579080","0.0-13.0-1.0-1.0-0.1-0.78","589","","f","","","","","","","","","","","","","key","f","16.65515384615439","640","356","f","true","img/T_ambi40.png","坏人","word_first",""
"","","","","","html-keyboard-response","318","579406","0.0-13.0-1.0-1.0-0.1-1.78","null","<span style='color:GreenYellow; font-size: 70px;'>正确! </span>","null","","","","","","","","","","","","","","","","","","","","","","","feedback_test"
"","","","","","psychophysics","319","581363","0.0-13.0-1.0-1.0-0.1-0.79","802","","j","","","","","","","","","","","","","key","j","16.65160869565266","640","356","j","true","img/S_ambi40.png","坏人","word_first",""
"","","","","","html-keyboard-response","320","581684","0.0-13.0-1.0-1.0-0.1-1.79","null","<span style='color:GreenYellow; font-size: 70px;'>正确! </span>","null","","","","","","","","","","","","","","","","","","","","","","","feedback_test"
"","","","","","psychophysics","321","583572","0.0-13.0-1.0-1.0-0.1-0.80","733","","f","","","","","","","","","","","","","key","f","16.652258928572078","640","356","f","true","img/C_ambi40.png","好人","word_first",""
"","","","","","html-keyboard-response","322","583881","0.0-13.0-1.0-1.0-0.1-1.80","null","<span style='color:GreenYellow; font-size: 70px;'>正确! </span>","null","","","","","","","","","","","","","","","","","","","","","","","feedback_test"
"","","","","","psychophysics","323","585903","0.0-13.0-1.0-1.0-0.1-0.81","871","","j","","","","","","","","","","","","","key","j","16.653341666667256","640","356","j","true","img/T_ambi40.png","好人","word_first",""
"","","","","","html-keyboard-response","324","586217","0.0-13.0-1.0-1.0-0.1-1.81","null","<span style='color:GreenYellow; font-size: 70px;'>正确! </span>","null","","","","","","","","","","","","","","","","","","","","","","","feedback_test"
"","","","","","psychophysics","325","587908","0.0-13.0-1.0-1.0-0.1-0.82","533","","f","","","","","","","","","","","","","key","f","16.65356000000029","640","356","f","true","img/T_ambi40.png","常人","word_first",""
"","","","","","html-keyboard-response","326","588236","0.0-13.0-1.0-1.0-0.1-1.82","null","<span style='color:GreenYellow; font-size: 70px;'>正确! </span>","null","","","","","","","","","","","","","","","","","","","","","","","feedback_test"
"","","","","","psychophysics","327","589964","0.0-13.0-1.0-1.0-0.1-0.83","573","","j","","","","","","","","","","","","","key","j","16.65346078431421","640","356","j","true","img/S_ambi40.png","坏人","word_first",""
"","","","","","html-keyboard-response","328","590281","0.0-13.0-1.0-1.0-0.1-1.83","null","<span style='color:GreenYellow; font-size: 70px;'>正确! </span>","null","","","","","","","","","","","","","","","","","","","","","","","feedback_test"
"","","","","","psychophysics","329","591933","0.0-13.0-1.0-1.0-0.1-0.84","499","","j","","","","","","","","","","","","","key","j","16.653397959183035","640","356","j","true","img/S_ambi40.png","坏人","word_first",""
"","","","","","html-keyboard-response","330","592243","0.0-13.0-1.0-1.0-0.1-1.84","null","<span style='color:GreenYellow; font-size: 70px;'>正确! </span>","null","","","","","","","","","","","","","","","","","","","","","","","feedback_test"
"","","","","","psychophysics","331","594072","0.0-13.0-1.0-1.0-0.1-0.85","673","","j","","","","","","","","","","","","","key","j","16.651157407406977","640","356","j","true","img/C_ambi40.png","常人","word_first",""
"","","","","","html-keyboard-response","332","594375","0.0-13.0-1.0-1.0-0.1-1.85","null","<span style='color:GreenYellow; font-size: 70px;'>正确! </span>","null","","","","","","","","","","","","","","","","","","","","","","","feedback_test"
"","","","","","psychophysics","333","596293","0.0-13.0-1.0-1.0-0.1-0.86","755","","f","","","","","","","","","","","","","key","f","16.650469026548905","640","356","f","true","img/C_ambi40.png","坏人","word_first",""
"","","","","","html-keyboard-response","334","596604","0.0-13.0-1.0-1.0-0.1-1.86","null","<span style='color:GreenYellow; font-size: 70px;'>正确! </span>","null","","","","","","","","","","","","","","","","","","","","","","","feedback_test"
"","","","","","psychophysics","335","598566","0.0-13.0-1.0-1.0-0.1-0.87","798","","j","","","","","","","","","","","","","key","j","16.653629310344794","640","356","j","true","img/C_ambi40.png","常人","word_first",""
"","","","","","html-keyboard-response","336","598874","0.0-13.0-1.0-1.0-0.1-1.87","null","<span style='color:GreenYellow; font-size: 70px;'>正确! </span>","null","","","","","","","","","","","","","","","","","","","","","","","feedback_test"
"","","","","","psychophysics","337","600590","0.0-13.0-1.0-1.0-0.1-0.88","558","","f","","","","","","","","","","","","","key","f","16.649411764705793","640","356","f","true","img/S_ambi40.png","常人","word_first",""
"","","","","","html-keyboard-response","338","600901","0.0-13.0-1.0-1.0-0.1-1.88","null","<span style='color:GreenYellow; font-size: 70px;'>正确! </span>","null","","","","","","","","","","","","","","","","","","","","","","","feedback_test"
"","","","","","psychophysics","339","602759","0.0-13.0-1.0-1.0-0.1-0.89","707","","f","","","","","","","","","","","","","key","f","16.6525181818182","640","356","f","true","img/C_ambi40.png","好人","word_first",""
"","","","","","html-keyboard-response","340","603073","0.0-13.0-1.0-1.0-0.1-1.89","null","<span style='color:GreenYellow; font-size: 70px;'>正确! </span>","null","","","","","","","","","","","","","","","","","","","","","","","feedback_test"
"","","","","","psychophysics","341","605371","0.0-13.0-1.0-1.0-0.1-0.90","1138","","j","","","","","","","","","","","","","key","j","16.65248175182492","640","356","f","false","img/S_ambi40.png","好人","word_first",""
"","","","","","html-keyboard-response","342","605689","0.0-13.0-1.0-1.0-0.1-1.90","null","<span style='color:red; font-size: 70px;'>错误! </span>","null","","","","","","","","","","","","","","","","","","","","","","","feedback_test"
"","","","","","psychophysics","343","607741","0.0-13.0-1.0-1.0-0.1-0.91","895","","j","","","","","","","","","","","","","key","j","16.653704918032613","640","356","j","true","img/T_ambi40.png","好人","word_first",""
"","","","","","html-keyboard-response","344","608049","0.0-13.0-1.0-1.0-0.1-1.91","null","<span style='color:GreenYellow; font-size: 70px;'>正确! </span>","null","","","","","","","","","","","","","","","","","","","","","","","feedback_test"
"","","","","","psychophysics","345","609761","0.0-13.0-1.0-1.0-0.1-0.92","553","","f","","","","","","","","","","","","","key","f","16.652207920792293","640","356","f","true","img/T_ambi40.png","常人","word_first",""
"","","","","","html-keyboard-response","346","610073","0.0-13.0-1.0-1.0-0.1-1.92","null","<span style='color:GreenYellow; font-size: 70px;'>正确! </span>","null","","","","","","","","","","","","","","","","","","","","","","","feedback_test"
"","","","","","psychophysics","347","611867","0.0-13.0-1.0-1.0-0.1-0.93","633","","j","","","","","","","","","","","","","key","j","16.653897196262264","640","356","j","true","img/T_ambi40.png","好人","word_first",""
"","","","","","html-keyboard-response","348","612181","0.0-13.0-1.0-1.0-0.1-1.93","null","<span style='color:GreenYellow; font-size: 70px;'>正确! </span>","null","","","","","","","","","","","","","","","","","","","","","","","feedback_test"
"","","","","","psychophysics","349","614025","0.0-13.0-1.0-1.0-0.1-0.94","690","","j","","","","","","","","","","","","","key","j","16.651372727272314","640","356","j","true","img/S_ambi40.png","坏人","word_first",""
"","","","","","html-keyboard-response","350","614346","0.0-13.0-1.0-1.0-0.1-1.94","null","<span style='color:GreenYellow; font-size: 70px;'>正确! </span>","null","","","","","","","","","","","","","","","","","","","","","","","feedback_test"
"","","","","","psychophysics","351","616297","0.0-13.0-1.0-1.0-0.1-0.95","795","","f","","","","","","","","","","","","","key","f","16.647672413793142","640","356","f","true","img/T_ambi40.png","坏人","word_first",""
"","","","","","html-keyboard-response","352","616613","0.0-13.0-1.0-1.0-0.1-1.95","null","<span style='color:GreenYellow; font-size: 70px;'>正确! </span>","null","","","","","","","","","","","","","","","","","","","","","","","feedback_test"
"","","","","","psychophysics","353","618526","0.0-13.0-1.0-1.0-0.1-0.96","760","","f","","","","","","","","","","","","","key","f","16.654412280701777","640","356","f","true","img/C_ambi40.png","好人","word_first",""
"","","","","","html-keyboard-response","354","618840","0.0-13.0-1.0-1.0-0.1-1.96","null","<span style='color:GreenYellow; font-size: 70px;'>正确! </span>","null","","","","","","","","","","","","","","","","","","","","","","","feedback_test"
"","","","","","psychophysics","355","620774","0.0-13.0-1.0-1.0-0.1-0.97","777","","f","","","","","","","","","","","","","key","f","16.650739130435472","640","356","f","true","img/C_ambi40.png","坏人","word_first",""
"","","","","","html-keyboard-response","356","621093","0.0-13.0-1.0-1.0-0.1-1.97","null","<span style='color:GreenYellow; font-size: 70px;'>正确! </span>","null","","","","","","","","","","","","","","","","","","","","","","","feedback_test"
"","","","","","psychophysics","357","622891","0.0-13.0-1.0-1.0-0.1-0.98","645","","j","","","","","","","","","","","","","key","j","16.653299065419933","640","356","j","true","img/T_ambi40.png","好人","word_first",""
"","","","","","html-keyboard-response","358","623199","0.0-13.0-1.0-1.0-0.1-1.98","null","<span style='color:GreenYellow; font-size: 70px;'>正确! </span>","null","","","","","","","","","","","","","","","","","","","","","","","feedback_test"
"","","","","","psychophysics","359","624922","0.0-13.0-1.0-1.0-0.1-0.99","568","","j","","","","","","","","","","","","","key","j","16.652088235294464","640","356","j","true","img/S_ambi40.png","坏人","word_first",""
"","","","","","html-keyboard-response","360","625240","0.0-13.0-1.0-1.0-0.1-1.99","null","<span style='color:GreenYellow; font-size: 70px;'>正确! </span>","null","","","","","","","","","","","","","","","","","","","","","","","feedback_test"
"","","","","","psychophysics","361","626933","0.0-13.0-1.0-1.0-0.1-0.100","537","","f","","","","","","","","","","","","","key","f","16.651257425742592","640","356","f","true","img/T_ambi40.png","常人","word_first",""
"","","","","","html-keyboard-response","362","627250","0.0-13.0-1.0-1.0-0.1-1.100","null","<span style='color:GreenYellow; font-size: 70px;'>正确! </span>","null","","","","","","","","","","","","","","","","","","","","","","","feedback_test"
"","","","","","psychophysics","363","629084","0.0-13.0-1.0-1.0-0.1-0.101","677","","j","","","","","","","","","","","","","key","j","16.65145871559598","640","356","j","true","img/T_ambi40.png","好人","word_first",""
"","","","","","html-keyboard-response","364","629404","0.0-13.0-1.0-1.0-0.1-1.101","null","<span style='color:GreenYellow; font-size: 70px;'>正确! </span>","null","","","","","","","","","","","","","","","","","","","","","","","feedback_test"
"","","","","","psychophysics","365","631135","0.0-13.0-1.0-1.0-0.1-0.102","577","","f","","","","","","","","","","","","","key","f","16.654650485436928","640","356","f","true","img/S_ambi40.png","常人","word_first",""
"","","","","","html-keyboard-response","366","631449","0.0-13.0-1.0-1.0-0.1-1.102","null","<span style='color:GreenYellow; font-size: 70px;'>正确! </span>","null","","","","","","","","","","","","","","","","","","","","","","","feedback_test"
"","","","","","psychophysics","367","633267","0.0-13.0-1.0-1.0-0.1-0.103","661","","f","","","","","","","","","","","","","key","f","16.650842592593378","640","356","f","true","img/S_ambi40.png","好人","word_first",""
"","","","","","html-keyboard-response","368","633576","0.0-13.0-1.0-1.0-0.1-1.103","null","<span style='color:GreenYellow; font-size: 70px;'>正确! </span>","null","","","","","","","","","","","","","","","","","","","","","","","feedback_test"
"","","","","","psychophysics","369","635330","0.0-13.0-1.0-1.0-0.1-0.104","602","","f","","","","","","","","","","","","","key","f","16.653307692307862","640","356","f","true","img/T_ambi40.png","坏人","word_first",""
"","","","","","html-keyboard-response","370","635646","0.0-13.0-1.0-1.0-0.1-1.104","null","<span style='color:GreenYellow; font-size: 70px;'>正确! </span>","null","","","","","","","","","","","","","","","","","","","","","","","feedback_test"
"","","","","","psychophysics","371","637398","0.0-13.0-1.0-1.0-0.1-0.105","599","","j","","","","","","","","","","","","","key","j","16.648163461538317","640","356","j","true","img/C_ambi40.png","常人","word_first",""
"","","","","","html-keyboard-response","372","637706","0.0-13.0-1.0-1.0-0.1-1.105","null","<span style='color:GreenYellow; font-size: 70px;'>正确! </span>","null","","","","","","","","","","","","","","","","","","","","","","","feedback_test"
"","","","","","psychophysics","373","639673","0.0-13.0-1.0-1.0-0.1-0.106","810","","j","","","","","","","","","","","","","key","j","16.651085470085686","640","356","j","true","img/C_ambi40.png","常人","word_first",""
"","","","","","html-keyboard-response","374","639986","0.0-13.0-1.0-1.0-0.1-1.106","null","<span style='color:GreenYellow; font-size: 70px;'>正确! </span>","null","","","","","","","","","","","","","","","","","","","","","","","feedback_test"
"","","","","","psychophysics","375","641994","0.0-13.0-1.0-1.0-0.1-0.107","850","","j","","","","","","","","","","","","","key","j","16.651957983193146","640","356","j","true","img/S_ambi40.png","坏人","word_first",""
"","","","","","html-keyboard-response","376","642310","0.0-13.0-1.0-1.0-0.1-1.107","null","<span style='color:GreenYellow; font-size: 70px;'>正确! </span>","null","","","","","","","","","","","","","","","","","","","","","","","feedback_test"
"","","","","","psychophysics","377","644056","0.0-13.0-1.0-1.0-0.1-0.108","593","","f","","","","","","","","","","","","","key","f","16.652826923077765","640","356","j","false","img/T_ambi40.png","好人","word_first",""
"","","","","","html-keyboard-response","378","644362","0.0-13.0-1.0-1.0-0.1-1.108","null","<span style='color:red; font-size: 70px;'>错误! </span>","null","","","","","","","","","","","","","","","","","","","","","","","feedback_test"
"","","","","","psychophysics","379","646200","0.0-13.0-1.0-1.0-0.1-0.109","687","","j","","","","","","","","","","","","","key","j","16.653220183486248","640","356","j","true","img/S_ambi40.png","坏人","word_first",""
"","","","","","html-keyboard-response","380","646513","0.0-13.0-1.0-1.0-0.1-1.109","null","<span style='color:GreenYellow; font-size: 70px;'>正确! </span>","null","","","","","","","","","","","","","","","","","","","","","","","feedback_test"
"","","","","","psychophysics","381","648810","0.0-13.0-1.0-1.0-0.1-0.110","1139","","j","","","","","","","","","","","","","key","j","16.653323529411438","640","356","f","false","img/T_ambi40.png","常人","word_first",""
"","","","","","html-keyboard-response","382","649121","0.0-13.0-1.0-1.0-0.1-1.110","null","<span style='color:red; font-size: 70px;'>错误! </span>","null","","","","","","","","","","","","","","","","","","","","","","","feedback_test"
"","","","","","psychophysics","383","651321","0.0-13.0-1.0-1.0-0.1-0.111","1038","","j","","","","","","","","","","","","","key","j","16.65367175572559","640","356","j","true","img/C_ambi40.png","常人","word_first",""
"","","","","","html-keyboard-response","384","651634","0.0-13.0-1.0-1.0-0.1-1.111","null","<span style='color:GreenYellow; font-size: 70px;'>正确! </span>","null","","","","","","","","","","","","","","","","","","","","","","","feedback_test"
"","","","","","psychophysics","385","653448","0.0-13.0-1.0-1.0-0.1-0.112","658","","f","","","","","","","","","","","","","key","f","16.651999999999706","640","356","f","true","img/C_ambi40.png","坏人","word_first",""
"","","","","","html-keyboard-response","386","653756","0.0-13.0-1.0-1.0-0.1-1.112","null","<span style='color:GreenYellow; font-size: 70px;'>正确! </span>","null","","","","","","","","","","","","","","","","","","","","","","","feedback_test"
"","","","","","psychophysics","387","655582","0.0-13.0-1.0-1.0-0.1-0.113","670","","f","","","","","","","","","","","","","key","f","16.518703703703878","640","356","f","true","img/S_ambi40.png","好人","word_first",""
"","","","","","html-keyboard-response","388","655899","0.0-13.0-1.0-1.0-0.1-1.113","null","<span style='color:GreenYellow; font-size: 70px;'>正确! </span>","null","","","","","","","","","","","","","","","","","","","","","","","feedback_test"
"","","","","","psychophysics","389","657828","0.0-13.0-1.0-1.0-0.1-0.114","774","","f","","","","","","","","","","","","","key","f","16.651365217391362","640","356","f","true","img/T_ambi40.png","坏人","word_first",""
"","","","","","html-keyboard-response","390","658149","0.0-13.0-1.0-1.0-0.1-1.114","null","<span style='color:GreenYellow; font-size: 70px;'>正确! </span>","null","","","","","","","","","","","","","","","","","","","","","","","feedback_test"
"","","","","","psychophysics","391","659860","0.0-13.0-1.0-1.0-0.1-0.115","558","","j","","","","","","","","","","","","","key","j","16.65297058823532","640","356","j","true","img/C_ambi40.png","常人","word_first",""
"","","","","","html-keyboard-response","392","660177","0.0-13.0-1.0-1.0-0.1-1.115","null","<span style='color:GreenYellow; font-size: 70px;'>正确! </span>","null","","","","","","","","","","","","","","","","","","","","","","","feedback_test"
"","","","","","psychophysics","393","661983","0.0-13.0-1.0-1.0-0.1-0.116","641","","j","","","","","","","","","","","","","key","j","16.653186915888426","640","356","j","true","img/T_ambi40.png","好人","word_first",""
"","","","","","html-keyboard-response","394","662287","0.0-13.0-1.0-1.0-0.1-1.116","null","<span style='color:GreenYellow; font-size: 70px;'>正确! </span>","null","","","","","","","","","","","","","","","","","","","","","","","feedback_test"
"","","","","","psychophysics","395","664195","0.0-13.0-1.0-1.0-0.1-0.117","754","","f","","","","","","","","","","","","","key","f","16.650336283185947","640","356","f","true","img/C_ambi40.png","好人","word_first",""
"","","","","","html-keyboard-response","396","664511","0.0-13.0-1.0-1.0-0.1-1.117","null","<span style='color:GreenYellow; font-size: 70px;'>正确! </span>","null","","","","","","","","","","","","","","","","","","","","","","","feedback_test"
"","","","","","psychophysics","397","666478","0.0-13.0-1.0-1.0-0.1-0.118","815","","j","","","","","","","","","","","","","key","j","16.65490598290558","640","356","j","true","img/S_ambi40.png","坏人","word_first",""
"","","","","","html-keyboard-response","398","666804","0.0-13.0-1.0-1.0-0.1-1.118","null","<span style='color:GreenYellow; font-size: 70px;'>正确! </span>","null","","","","","","","","","","","","","","","","","","","","","","","feedback_test"
"","","","","","psychophysics","399","668570","0.0-13.0-1.0-1.0-0.1-0.119","613","","f","","","","","","","","","","","","","key","f","16.654647619047733","640","356","f","true","img/S_ambi40.png","常人","word_first",""
"","","","","","html-keyboard-response","400","668890","0.0-13.0-1.0-1.0-0.1-1.119","null","<span style='color:GreenYellow; font-size: 70px;'>正确! </span>","null","","","","","","","","","","","","","","","","","","","","","","","feedback_test"
"","","","","","html-keyboard-response","401","671282","0.0-13.0-1.0-1.0-1.1","2390","<style>.context{color:white; font-size: 35px; line-height:40px}</style>                              <div><p class='context'>您正确回答了92% 的试次。</p><p class='context'>您的平均反应时为678毫秒。</p><p class='context'>请按任意键进入休息</p></div>","j","","","","","","","","","","","","","","","","","","","","","","",""
"","","","","","html-button-response","402","679764","0.0-13.0-1.0-1.0-2.1","8478","
                      <p>您当前还剩余2组实验</p>
                      <p>现在是休息时间，当您结束休息后，您可以点击 结束休息 按钮 继续</p>
                      <p>建议休息时间还剩余<span id=""iii"">60</span>秒</p>","0","","","","","","","","","","","","","","","","","","","","","","",""
"","","","","","psychophysics","403","681596","0.0-13.0-1.0-1.0-0.2-0.120","679","","j","","","","","","","","","","","","","key","j","16.650339449541175","640","356","j","true","img/C_ambi40.png","常人","word_first",""
"","","","","","html-keyboard-response","404","681912","0.0-13.0-1.0-1.0-0.2-1.120","null","<span style='color:GreenYellow; font-size: 70px;'>正确! </span>","null","","","","","","","","","","","","","","","","","","","","","","","feedback_test"
"","","","","","psychophysics","405","683572","0.0-13.0-1.0-1.0-0.2-0.121","506","","j","","","","","","","","","","","","","key","j","16.6532828282833","640","356","j","true","img/C_ambi40.png","常人","word_first",""
"","","","","","html-keyboard-response","406","683881","0.0-13.0-1.0-1.0-0.2-1.121","null","<span style='color:GreenYellow; font-size: 70px;'>正确! </span>","null","","","","","","","","","","","","","","","","","","","","","","","feedback_test"
"","","","","","psychophysics","407","685778","0.0-13.0-1.0-1.0-0.2-0.122","746","","f","","","","","","","","","","","","","key","f","16.53549999999918","640","356","j","false","img/S_ambi40.png","坏人","word_first",""
"","","","","","html-keyboard-response","408","686099","0.0-13.0-1.0-1.0-0.2-1.122","null","<span style='color:red; font-size: 70px;'>错误! </span>","null","","","","","","","","","","","","","","","","","","","","","","","feedback_test"
"","","","","","psychophysics","409","688234","0.0-13.0-1.0-1.0-0.2-0.123","982","","f","","","","","","","","","","","","","key","f","16.651519685039503","640","356","f","true","img/T_ambi40.png","常人","word_first",""
"","","","","","html-keyboard-response","410","688552","0.0-13.0-1.0-1.0-0.2-1.123","null","<span style='color:GreenYellow; font-size: 70px;'>正确! </span>","null","","","","","","","","","","","","","","","","","","","","","","","feedback_test"
"","","","","","psychophysics","411","690525","0.0-13.0-1.0-1.0-0.2-0.124","815","","f","","","","","","","","","","","","","key","f","16.651299145298566","640","356","f","true","img/C_ambi40.png","坏人","word_first",""
"","","","","","html-keyboard-response","412","690835","0.0-13.0-1.0-1.0-0.2-1.124","null","<span style='color:GreenYellow; font-size: 70px;'>正确! </span>","null","","","","","","","","","","","","","","","","","","","","","","","feedback_test"
"","","","","","psychophysics","413","692622","0.0-13.0-1.0-1.0-0.2-0.125","631","","j","","","","","","","","","","","","","key","j","16.65434905660409","640","356","j","true","img/T_ambi40.png","好人","word_first",""
"","","","","","html-keyboard-response","414","692936","0.0-13.0-1.0-1.0-0.2-1.125","null","<span style='color:GreenYellow; font-size: 70px;'>正确! </span>","null","","","","","","","","","","","","","","","","","","","","","","","feedback_test"
"","","","","","psychophysics","415","695021","0.0-13.0-1.0-1.0-0.2-0.126","931","","f","","","","","","","","","","","","","key","f","16.653193548386504","640","356","j","false","img/S_ambi40.png","坏人","word_first",""
"","","","","","html-keyboard-response","416","695332","0.0-13.0-1.0-1.0-0.2-1.126","null","<span style='color:red; font-size: 70px;'>错误! </span>","null","","","","","","","","","","","","","","","","","","","","","","","feedback_test"
"","","","","","psychophysics","417","697288","0.0-13.0-1.0-1.0-0.2-0.127","801","","f","","","","","","","","","","","","","key","f","16.652706896552036","640","356","f","true","img/S_ambi40.png","常人","word_first",""
"","","","","","html-keyboard-response","418","697604","0.0-13.0-1.0-1.0-0.2-1.127","null","<span style='color:GreenYellow; font-size: 70px;'>正确! </span>","null","","","","","","","","","","","","","","","","","","","","","","","feedback_test"
"","","","","","psychophysics","419","699358","0.0-13.0-1.0-1.0-0.2-0.128","600","","j","","","","","","","","","","","","","key","j","16.653009708736825","640","356","j","true","img/T_ambi40.png","好人","word_first",""
"","","","","","html-keyboard-response","420","699664","0.0-13.0-1.0-1.0-0.2-1.128","null","<span style='color:GreenYellow; font-size: 70px;'>正确! </span>","null","","","","","","","","","","","","","","","","","","","","","","","feedback_test"
"","","","","","psychophysics","421","701513","0.0-13.0-1.0-1.0-0.2-0.129","695","","f","","","","","","","","","","","","","key","f","16.654518181817945","640","356","f","true","img/T_ambi40.png","坏人","word_first",""
"","","","","","html-keyboard-response","422","701823","0.0-13.0-1.0-1.0-0.2-1.129","null","<span style='color:GreenYellow; font-size: 70px;'>正确! </span>","null","","","","","","","","","","","","","","","","","","","","","","","feedback_test"
"","","","","","psychophysics","423","703949","0.0-13.0-1.0-1.0-0.2-0.130","966","","f","","","","","","","","","","","","","key","f","16.65307936507983","640","356","f","true","img/C_ambi40.png","好人","word_first",""
"","","","","","html-keyboard-response","424","704256","0.0-13.0-1.0-1.0-0.2-1.130","null","<span style='color:GreenYellow; font-size: 70px;'>正确! </span>","null","","","","","","","","","","","","","","","","","","","","","","","feedback_test"
"","","","","","psychophysics","425","706453","0.0-13.0-1.0-1.0-0.2-0.131","1038","","f","","","","","","","","","","","","","key","f","16.653137404580054","640","356","f","true","img/S_ambi40.png","好人","word_first",""
"","","","","","html-keyboard-response","426","706762","0.0-13.0-1.0-1.0-0.2-1.131","null","<span style='color:GreenYellow; font-size: 70px;'>正确! </span>","null","","","","","","","","","","","","","","","","","","","","","","","feedback_test"
"","","","","","psychophysics","427","708919","0.0-13.0-1.0-1.0-0.2-0.132","996","","j","","","","","","","","","","","","","key","j","16.542273437500626","640","356","j","true","img/C_ambi40.png","常人","word_first",""
"","","","","","html-keyboard-response","428","709228","0.0-13.0-1.0-1.0-0.2-1.132","null","<span style='color:GreenYellow; font-size: 70px;'>正确! </span>","null","","","","","","","","","","","","","","","","","","","","","","","feedback_test"
"","","","","","psychophysics","429","711033","0.0-13.0-1.0-1.0-0.2-0.133","643","","j","","","","","","","","","","","","","key","j","16.65166981132011","640","356","j","true","img/S_ambi40.png","坏人","word_first",""
"","","","","","html-keyboard-response","430","711351","0.0-13.0-1.0-1.0-0.2-1.133","null","<span style='color:GreenYellow; font-size: 70px;'>正确! </span>","null","","","","","","","","","","","","","","","","","","","","","","","feedback_test"
"","","","","","psychophysics","431","713073","0.0-13.0-1.0-1.0-0.2-0.134","565","","f","","","","","","","","","","","","","key","f","16.650490196079346","640","356","f","true","img/T_ambi40.png","坏人","word_first",""
"","","","","","html-keyboard-response","432","713388","0.0-13.0-1.0-1.0-0.2-1.134","null","<span style='color:GreenYellow; font-size: 70px;'>正确! </span>","null","","","","","","","","","","","","","","","","","","","","","","","feedback_test"
