"success","timeout","failed_images","failed_audio","failed_video","trial_type","trial_index","time_elapsed","internal_node_id","rt","stimulus","response","value","item_width_mm","item_height_mm","item_width_px","px2mm","view_dist_mm","item_width_deg","px2deg","scale_factor","win_width_deg","win_height_deg","view_history","response_type","key_press","avg_frame_time","center_x","center_y","correct_response","correct","Image","word","condition","screen_id"
"true","false","[]","[]","[]","preload","0","1264","0.0-0.0","","","","","","","","","","","","","","","","","","","","","","","","","",""
"","","","","","html-keyboard-response","1","7644","0.0-1.0","6379","
     <p>您好，欢迎参加本次实验。</p>
     <p>为充分保障您的权利，请确保您已经知晓并同意《参与实验同意书》以及《数据公开知情同意书》。</p>
     <p>如果您未见过上述内容，请咨询实验员。</p>
     <p>如果您选择继续实验，则表示您已经清楚两份知情同意书的内容并同意。</p>
     <p> <div style = ""color: green""><按任意键至下页></div> </p>
     "," ","","","","","","","","","","","","","","","","","","","","","","",""
"","","","","","html-keyboard-response","2","8660","0.0-2.0","1015","
     <p>本实验首先需要您填写一些基本个人信息。</p>
     <p> <div style = ""color: green""><按任意键至下页></div></p>
     "," ","","","","","","","","","","","","","","","","","","","","","","",""
"","","","","","call-function","3","8661","0.0-3.0-0.0","","","","","","","","","","","","","","","","","","","","","","","","","",""
"","","","","","survey-html-form","4","13100","0.0-3.0-1.0","4435","","{""Q0"":""36""}","","","","","","","","","","","","","","","","","","","","","","",""
"","","","","","html-button-response","5","14440","0.0-3.0-2.0","1338","<p style = 'color : white'>您的性别</p>","0","","","","","","","","","","","","","","","","","","","","","","",""
"","","","","","survey-html-form","6","19554","0.0-3.0-3.0","5113","","{""Q0"":""2000""}","","","","","","","","","","","","","","","","","","","","","","",""
"","","","","","survey-html-form","7","22513","0.0-3.0-4.0","2959","","{""Q0"":""5""}","","","","","","","","","","","","","","","","","","","","","","",""
"","","","","","virtual-chinrest","8","78535","0.0-4.0","56011","","","","85.6","53.98","546.2563205067553","6.380047981112489","447.56","10.925126410135103","50","0.7084586218443841","30.72","14.92","","","","","","","","","","","",""
"true","","","","","fullscreen","9","82371","0.0-5.0","","","","","","","","","","","","","","","","","","","","","","","","","",""
"","","","","","instructions","10","146155","0.0-6.0","63797","","","","","","","","","","","","","","[{""page_index"":0,""viewing_time"":6032},{""page_index"":1,""viewing_time"":50508},{""page_index"":2,""viewing_time"":1880},{""page_index"":3,""viewing_time"":5377}]","","","","","","","","","","",""
"","","","","","psychophysics","11","148331","0.0-7.0-0.0-0.0","1020","","j","","","","","","","","","","","","","key","j","16.669077519379968","768","428","j","true","img/C_ambi40.png","常人","prac_image_first",""
"","","","","","html-keyboard-response","12","148639","0.0-7.0-0.0-1.0","null","<span style='color:GreenYellow; font-size: 70px;'>正确! </span>","null","","","","","","","","","","","","","","","","","","","","","","","feedback_test"
"","","","","","psychophysics","13","150558","0.0-7.0-0.0-0.1","762","","f","","","","","","","","","","","","","key","f","16.665561403508867","768","428","j","false","img/C_ambi40.png","坏人","prac_image_first",""
"","","","","","html-keyboard-response","14","150889","0.0-7.0-0.0-1.1","null","<span style='color:red; font-size: 70px;'>错误! </span>","null","","","","","","","","","","","","","","","","","","","","","","","feedback_test"
"","","","","","psychophysics","15","152836","0.0-7.0-0.0-0.2","206","","f","","","","","","","","","","","","","key","f","16.66556034482773","768","428","f","true","img/T_ambi40.png","坏人","prac_image_first",""
"","","","","","html-keyboard-response","16","153140","0.0-7.0-0.0-1.2","null","<span style='color:GreenYellow; font-size: 70px;'>正确! </span>","null","","","","","","","","","","","","","","","","","","","","","","","feedback_test"
"","","","","","psychophysics","17","155385","0.0-7.0-0.0-0.3","1089","","f","","","","","","","","","","","","","key","f","16.66831343283585","768","428","f","true","img/C_ambi40.png","好人","prac_image_first",""
"","","","","","html-keyboard-response","18","155687","0.0-7.0-0.0-1.3","null","<span style='color:GreenYellow; font-size: 70px;'>正确! </span>","null","","","","","","","","","","","","","","","","","","","","","","","feedback_test"
"","","","","","psychophysics","19","157602","0.0-7.0-0.0-0.4","758","","f","","","","","","","","","","","","","key","f","16.66923684210531","768","428","f","true","img/T_ambi40.png","坏人","prac_image_first",""
"","","","","","html-keyboard-response","20","158641","0.0-7.0-0.0-1.4","null","<span style='color:GreenYellow; font-size: 70px;'>正确! </span>","null","","","","","","","","","","","","","","","","","","","","","","","feedback_test"
"","","","","","psychophysics","21","161009","0.0-7.0-0.0-0.5","440","","f","","","","","","","","","","","","","key","f","16.66766666666669","768","428","f","true","img/C_ambi40.png","好人","prac_image_first",""
"","","","","","html-keyboard-response","22","161313","0.0-7.0-0.0-1.5","null","<span style='color:GreenYellow; font-size: 70px;'>正确! </span>","null","","","","","","","","","","","","","","","","","","","","","","","feedback_test"
"","","","","","psychophysics","23","163053","0.0-7.0-0.0-0.6","583","","f","","","","","","","","","","","","","key","f","16.667902912621305","768","428","f","true","img/S_ambi40.png","常人","prac_image_first",""
"","","","","","html-keyboard-response","24","163361","0.0-7.0-0.0-1.6","null","<span style='color:GreenYellow; font-size: 70px;'>正确! </span>","null","","","","","","","","","","","","","","","","","","","","","","","feedback_test"
"","","","","","psychophysics","25","165162","0.0-7.0-0.0-0.7","646","","f","","","","","","","","","","","","","key","f","16.667925233644798","768","428","f","true","img/S_ambi40.png","常人","prac_image_first",""
"","","","","","html-keyboard-response","26","165470","0.0-7.0-0.0-1.7","null","<span style='color:GreenYellow; font-size: 70px;'>正确! </span>","null","","","","","","","","","","","","","","","","","","","","","","","feedback_test"
"","","","","","psychophysics","27","167256","0.0-7.0-0.0-0.8","614","","j","","","","","","","","","","","","","key","j","16.668547169811408","768","428","j","true","img/S_ambi40.png","好人","prac_image_first",""
"","","","","","html-keyboard-response","28","167565","0.0-7.0-0.0-1.8","null","<span style='color:GreenYellow; font-size: 70px;'>正确! </span>","null","","","","","","","","","","","","","","","","","","","","","","","feedback_test"
"","","","","","psychophysics","29","169296","0.0-7.0-0.0-0.9","576","","j","","","","","","","","","","","","","key","j","16.66861165048542","768","428","j","true","img/T_ambi40.png","常人","prac_image_first",""
"","","","","","html-keyboard-response","30","169611","0.0-7.0-0.0-1.9","null","<span style='color:GreenYellow; font-size: 70px;'>正确! </span>","null","","","","","","","","","","","","","","","","","","","","","","","feedback_test"
"","","","","","psychophysics","31","171508","0.0-7.0-0.0-0.10","740","","j","","","","","","","","","","","","","key","j","16.66877876106182","768","428","j","true","img/T_ambi40.png","好人","prac_image_first",""
"","","","","","html-keyboard-response","32","171815","0.0-7.0-0.0-1.10","null","<span style='color:GreenYellow; font-size: 70px;'>正确! </span>","null","","","","","","","","","","","","","","","","","","","","","","","feedback_test"
"","","","","","psychophysics","33","173656","0.0-7.0-0.0-0.11","17","","j","","","","","","","","","","","","","key","j","16.66399090909108","768","428","j","true","img/S_ambi40.png","坏人","prac_image_first",""
"","","","","","html-keyboard-response","34","173971","0.0-7.0-0.0-1.11","null","<span style='color:yellow; font-size: 70px;'>过快! </span>","null","","","","","","","","","","","","","","","","","","","","","","","feedback_test"
"","","","","","psychophysics","35","175811","0.0-7.0-0.0-0.12","684","","f","","","","","","","","","","","","","key","f","16.664715596330257","768","428","f","true","img/T_ambi40.png","坏人","prac_image_first",""
"","","","","","html-keyboard-response","36","176113","0.0-7.0-0.0-1.12","null","<span style='color:GreenYellow; font-size: 70px;'>正确! </span>","null","","","","","","","","","","","","","","","","","","","","","","","feedback_test"
"","","","","","psychophysics","37","177923","0.0-7.0-0.0-0.13","655","","j","","","","","","","","","","","","","key","j","16.66833333333327","768","428","j","true","img/C_ambi40.png","常人","prac_image_first",""
"","","","","","html-keyboard-response","38","178237","0.0-7.0-0.0-1.13","null","<span style='color:GreenYellow; font-size: 70px;'>正确! </span>","null","","","","","","","","","","","","","","","","","","","","","","","feedback_test"
"","","","","","psychophysics","39","180125","0.0-7.0-0.0-0.14","482","","j","","","","","","","","","","","","","key","j","16.71827927927947","768","428","j","true","img/S_ambi40.png","好人","prac_image_first",""
"","","","","","html-keyboard-response","40","180441","0.0-7.0-0.0-1.14","null","<span style='color:GreenYellow; font-size: 70px;'>正确! </span>","null","","","","","","","","","","","","","","","","","","","","","","","feedback_test"
"","","","","","psychophysics","41","182573","0.0-7.0-0.0-0.15","976","","j","","","","","","","","","","","","","key","j","16.66825196850407","768","428","j","true","img/C_ambi40.png","坏人","prac_image_first",""
"","","","","","html-keyboard-response","42","182879","0.0-7.0-0.0-1.15","null","<span style='color:GreenYellow; font-size: 70px;'>正确! </span>","null","","","","","","","","","","","","","","","","","","","","","","","feedback_test"
"","","","","","psychophysics","43","184612","0.0-7.0-0.0-0.16","577","","j","","","","","","","","","","","","","key","j","16.667854368931938","768","428","j","true","img/T_ambi40.png","好人","prac_image_first",""
"","","","","","html-keyboard-response","44","184926","0.0-7.0-0.0-1.16","null","<span style='color:GreenYellow; font-size: 70px;'>正确! </span>","null","","","","","","","","","","","","","","","","","","","","","","","feedback_test"
"","","","","","psychophysics","45","186901","0.0-7.0-0.0-0.17","348","","f","","","","","","","","","","","","","key","f","16.6686837606838","768","428","f","true","img/T_ambi40.png","坏人","prac_image_first",""
"","","","","","html-keyboard-response","46","187228","0.0-7.0-0.0-1.17","null","<span style='color:GreenYellow; font-size: 70px;'>正确! </span>","null","","","","","","","","","","","","","","","","","","","","","","","feedback_test"
"","","","","","psychophysics","47","189060","0.0-7.0-0.0-0.18","676","","f","","","","","","","","","","","","","key","f","16.66955963302769","768","428","f","true","img/S_ambi40.png","常人","prac_image_first",""
"","","","","","html-keyboard-response","48","189369","0.0-7.0-0.0-1.18","null","<span style='color:GreenYellow; font-size: 70px;'>正确! </span>","null","","","","","","","","","","","","","","","","","","","","","","","feedback_test"
"","","","","","psychophysics","49","191095","0.0-7.0-0.0-0.19","570","","f","","","","","","","","","","","","","key","f","16.66859223300962","768","428","f","true","img/C_ambi40.png","好人","prac_image_first",""
"","","","","","html-keyboard-response","50","191401","0.0-7.0-0.0-1.19","null","<span style='color:GreenYellow; font-size: 70px;'>正确! </span>","null","","","","","","","","","","","","","","","","","","","","","","","feedback_test"
"","","","","","psychophysics","51","193085","0.0-7.0-0.0-0.20","450","","j","","","","","","","","","","","","","key","j","16.66890000000014","768","428","j","true","img/T_ambi40.png","常人","prac_image_first",""
"","","","","","html-keyboard-response","52","193401","0.0-7.0-0.0-1.20","null","<span style='color:GreenYellow; font-size: 70px;'>正确! </span>","null","","","","","","","","","","","","","","","","","","","","","","","feedback_test"
"","","","","","psychophysics","53","195316","0.0-7.0-0.0-0.21","759","","f","","","","","","","","","","","","","key","f","16.664999999999978","768","428","f","true","img/S_ambi40.png","常人","prac_image_first",""
"","","","","","html-keyboard-response","54","195620","0.0-7.0-0.0-1.21","null","<span style='color:GreenYellow; font-size: 70px;'>正确! </span>","null","","","","","","","","","","","","","","","","","","","","","","","feedback_test"
"","","","","","psychophysics","55","197262","0.0-7.0-0.0-0.22","486","","j","","","","","","","","","","","","","key","j","16.669061224489788","768","428","j","true","img/S_ambi40.png","坏人","prac_image_first",""
"","","","","","html-keyboard-response","56","197573","0.0-7.0-0.0-1.22","null","<span style='color:GreenYellow; font-size: 70px;'>正确! </span>","null","","","","","","","","","","","","","","","","","","","","","","","feedback_test"
"","","","","","psychophysics","57","199492","0.0-7.0-0.0-0.23","327","","f","","","","","","","","","","","","","key","f","16.667456140350847","768","428","f","true","img/C_ambi40.png","好人","prac_image_first",""
"","","","","","html-keyboard-response","58","199793","0.0-7.0-0.0-1.23","null","<span style='color:GreenYellow; font-size: 70px;'>正确! </span>","null","","","","","","","","","","","","","","","","","","","","","","","feedback_test"
"","","","","","html-keyboard-response","59","205904","0.0-8.0","6109","<style>.context{color:white; font-size: 35px; line-height:40px}</style>                              <div><p class='context'>您正确回答了96% 的试次。</p><p class='context'>您的平均反应时为595毫秒。</p><p class='context'>恭喜您完成这一阶段的练习。按任意键进入<span style='color: yellow;'>先文字后图形条件</span>的练习。</p></div>"," ","","","","","","","","","","","","","","","","","","","","","","",""
"","","","","","psychophysics","60","207618","0.0-9.0-0.0-0.0","559","","f","","","","","","","","","","","","","key","f","16.668784313725638","768","428","f","true","img/C_ambi40.png","好人","prac_word_first",""
"","","","","","html-keyboard-response","61","207919","0.0-9.0-0.0-1.0","null","<span style='color:GreenYellow; font-size: 70px;'>正确! </span>","null","","","","","","","","","","","","","","","","","","","","","","","feedback_test"
"","","","","","psychophysics","62","209629","0.0-9.0-0.0-0.1","554","","j","","","","","","","","","","","","","key","j","16.668823529411775","768","428","j","true","img/C_ambi40.png","常人","prac_word_first",""
"","","","","","html-keyboard-response","63","209934","0.0-9.0-0.0-1.1","null","<span style='color:GreenYellow; font-size: 70px;'>正确! </span>","null","","","","","","","","","","","","","","","","","","","","","","","feedback_test"
"","","","","","psychophysics","64","211669","0.0-9.0-0.0-0.2","31","","j","","","","","","","","","","","","","key","j","16.6680485436894","768","428","j","true","img/S_ambi40.png","好人","prac_word_first",""
"","","","","","html-keyboard-response","65","211982","0.0-9.0-0.0-1.2","null","<span style='color:yellow; font-size: 70px;'>过快! </span>","null","","","","","","","","","","","","","","","","","","","","","","","feedback_test"
"","","","","","psychophysics","66","213912","0.0-9.0-0.0-0.3","775","","j","","","","","","","","","","","","","key","j","16.66853913043489","768","428","j","true","img/S_ambi40.png","坏人","prac_word_first",""
"","","","","","html-keyboard-response","67","214232","0.0-9.0-0.0-1.3","null","<span style='color:GreenYellow; font-size: 70px;'>正确! </span>","null","","","","","","","","","","","","","","","","","","","","","","","feedback_test"
"","","","","","psychophysics","68","215868","0.0-9.0-0.0-0.4","480","","f","","","","","","","","","","","","","key","f","16.669494845360738","768","428","f","true","img/C_ambi40.png","好人","prac_word_first",""
"","","","","","html-keyboard-response","69","216185","0.0-9.0-0.0-1.4","null","<span style='color:GreenYellow; font-size: 70px;'>正确! </span>","null","","","","","","","","","","","","","","","","","","","","","","","feedback_test"
"","","","","","psychophysics","70","217904","0.0-9.0-0.0-0.5","266","","f","","","","","","","","","","","","","key","f","16.667745098039365","768","428","f","true","img/S_ambi40.png","常人","prac_word_first",""
"","","","","","html-keyboard-response","71","218217","0.0-9.0-0.0-1.5","null","<span style='color:GreenYellow; font-size: 70px;'>正确! </span>","null","","","","","","","","","","","","","","","","","","","","","","","feedback_test"
"","","","","","psychophysics","72","219853","0.0-9.0-0.0-0.6","480","","j","","","","","","","","","","","","","key","j","16.668402061855588","768","428","j","true","img/C_ambi40.png","坏人","prac_word_first",""
"","","","","","html-keyboard-response","73","220154","0.0-9.0-0.0-1.6","null","<span style='color:GreenYellow; font-size: 70px;'>正确! </span>","null","","","","","","","","","","","","","","","","","","","","","","","feedback_test"
"","","","","","psychophysics","74","221983","0.0-9.0-0.0-0.7","673","","f","","","","","","","","","","","","","key","f","16.66658715596353","768","428","f","true","img/S_ambi40.png","常人","prac_word_first",""
"","","","","","html-keyboard-response","75","222295","0.0-9.0-0.0-1.7","null","<span style='color:GreenYellow; font-size: 70px;'>正确! </span>","null","","","","","","","","","","","","","","","","","","","","","","","feedback_test"
"","","","","","psychophysics","76","224023","0.0-9.0-0.0-0.8","386","","f","","","","","","","","","","","","","key","f","16.667893203883263","768","428","f","true","img/T_ambi40.png","坏人","prac_word_first",""
"","","","","","html-keyboard-response","77","224328","0.0-9.0-0.0-1.8","null","<span style='color:GreenYellow; font-size: 70px;'>正确! </span>","null","","","","","","","","","","","","","","","","","","","","","","","feedback_test"
"","","","","","psychophysics","78","225952","0.0-9.0-0.0-0.9","469","","f","","","","","","","","","","","","","key","f","16.666597938144367","768","428","f","true","img/T_ambi40.png","坏人","prac_word_first",""
"","","","","","html-keyboard-response","79","226265","0.0-9.0-0.0-1.9","null","<span style='color:GreenYellow; font-size: 70px;'>正确! </span>","null","","","","","","","","","","","","","","","","","","","","","","","feedback_test"
"","","","","","psychophysics","80","227991","0.0-9.0-0.0-0.10","570","","j","","","","","","","","","","","","","key","j","16.66477669902921","768","428","j","true","img/T_ambi40.png","常人","prac_word_first",""
"","","","","","html-keyboard-response","81","228297","0.0-9.0-0.0-1.10","null","<span style='color:GreenYellow; font-size: 70px;'>正确! </span>","null","","","","","","","","","","","","","","","","","","","","","","","feedback_test"
"","","","","","psychophysics","82","230046","0.0-9.0-0.0-0.11","408","","j","","","","","","","","","","","","","key","j","16.665961538461627","768","428","j","true","img/T_ambi40.png","好人","prac_word_first",""
"","","","","","html-keyboard-response","83","230360","0.0-9.0-0.0-1.11","null","<span style='color:GreenYellow; font-size: 70px;'>正确! </span>","null","","","","","","","","","","","","","","","","","","","","","","","feedback_test"
"","","","","","psychophysics","84","232178","0.0-9.0-0.0-0.12","662","","f","","","","","","","","","","","","","key","f","16.66924999999982","768","428","f","true","img/T_ambi40.png","坏人","prac_word_first",""
"","","","","","html-keyboard-response","85","232485","0.0-9.0-0.0-1.12","null","<span style='color:GreenYellow; font-size: 70px;'>正确! </span>","null","","","","","","","","","","","","","","","","","","","","","","","feedback_test"
"","","","","","psychophysics","86","234308","0.0-9.0-0.0-0.13","667","","j","","","","","","","","","","","","","key","j","16.669287037036998","768","428","j","true","img/S_ambi40.png","好人","prac_word_first",""
"","","","","","html-keyboard-response","87","234625","0.0-9.0-0.0-1.13","null","<span style='color:GreenYellow; font-size: 70px;'>正确! </span>","null","","","","","","","","","","","","","","","","","","","","","","","feedback_test"
"","","","","","psychophysics","88","236815","0.0-9.0-0.0-0.14","326","","j","","","","","","","","","","","","","key","j","16.665876923076798","768","428","j","true","img/S_ambi40.png","坏人","prac_word_first",""
"","","","","","html-keyboard-response","89","237127","0.0-9.0-0.0-1.14","null","<span style='color:GreenYellow; font-size: 70px;'>正确! </span>","null","","","","","","","","","","","","","","","","","","","","","","","feedback_test"
"","","","","","psychophysics","90","238714","0.0-9.0-0.0-0.15","432","","f","","","","","","","","","","","","","key","f","16.668680851063826","768","428","j","false","img/T_ambi40.png","好人","prac_word_first",""
"","","","","","html-keyboard-response","91","239017","0.0-9.0-0.0-1.15","null","<span style='color:red; font-size: 70px;'>错误! </span>","null","","","","","","","","","","","","","","","","","","","","","","","feedback_test"
"","","","","","psychophysics","92","240662","0.0-9.0-0.0-0.16","489","","f","","","","","","","","","","","","","key","f","16.669857142857225","768","428","f","true","img/C_ambi40.png","好人","prac_word_first",""
"","","","","","html-keyboard-response","93","240971","0.0-9.0-0.0-1.16","null","<span style='color:GreenYellow; font-size: 70px;'>正确! </span>","null","","","","","","","","","","","","","","","","","","","","","","","feedback_test"
"","","","","","psychophysics","94","242947","0.0-9.0-0.0-0.17","333","","j","","","","","","","","","","","","","key","j","16.66751694915248","768","428","j","true","img/T_ambi40.png","常人","prac_word_first",""
"","","","","","html-keyboard-response","95","243253","0.0-9.0-0.0-1.17","null","<span style='color:GreenYellow; font-size: 70px;'>正确! </span>","null","","","","","","","","","","","","","","","","","","","","","","","feedback_test"
"","","","","","psychophysics","96","244978","0.0-9.0-0.0-0.18","571","","f","","","","","","","","","","","","","key","f","16.66814563106785","768","428","f","true","img/T_ambi40.png","坏人","prac_word_first",""
"","","","","","html-keyboard-response","97","245299","0.0-9.0-0.0-1.18","null","<span style='color:GreenYellow; font-size: 70px;'>正确! </span>","null","","","","","","","","","","","","","","","","","","","","","","","feedback_test"
"","","","","","psychophysics","98","247170","0.0-9.0-0.0-0.19","707","","f","","","","","","","","","","","","","key","f","16.66929729729744","768","428","j","false","img/C_ambi40.png","常人","prac_word_first",""
"","","","","","html-keyboard-response","99","247479","0.0-9.0-0.0-1.19","null","<span style='color:red; font-size: 70px;'>错误! </span>","null","","","","","","","","","","","","","","","","","","","","","","","feedback_test"
"","","","","","psychophysics","100","249383","0.0-9.0-0.0-0.20","732","","j","","","","","","","","","","","","","key","j","16.66890265486709","768","428","j","true","img/C_ambi40.png","坏人","prac_word_first",""
"","","","","","html-keyboard-response","101","249699","0.0-9.0-0.0-1.20","null","<span style='color:GreenYellow; font-size: 70px;'>正确! </span>","null","","","","","","","","","","","","","","","","","","","","","","","feedback_test"
"","","","","","psychophysics","102","251350","0.0-9.0-0.0-0.21","495","","f","","","","","","","","","","","","","key","f","16.666826530612415","768","428","f","true","img/S_ambi40.png","常人","prac_word_first",""
"","","","","","html-keyboard-response","103","251651","0.0-9.0-0.0-1.21","null","<span style='color:GreenYellow; font-size: 70px;'>正确! </span>","null","","","","","","","","","","","","","","","","","","","","","","","feedback_test"
"","","","","","psychophysics","104","253338","0.0-9.0-0.0-0.22","530","","f","","","","","","","","","","","","","key","f","16.665540000000036","768","428","f","true","img/S_ambi40.png","常人","prac_word_first",""
"","","","","","html-keyboard-response","105","253668","0.0-9.0-0.0-1.22","null","<span style='color:GreenYellow; font-size: 70px;'>正确! </span>","null","","","","","","","","","","","","","","","","","","","","","","","feedback_test"
"","","","","","psychophysics","106","255659","0.0-9.0-0.0-0.23","293","","f","","","","","","","","","","","","","key","f","16.664907563025057","768","428","f","true","img/C_ambi40.png","好人","prac_word_first",""
"","","","","","html-keyboard-response","107","255965","0.0-9.0-0.0-1.23","null","<span style='color:GreenYellow; font-size: 70px;'>正确! </span>","null","","","","","","","","","","","","","","","","","","","","","","","feedback_test"
"","","","","","html-keyboard-response","108","264137","0.0-10.0","8170","<style>.context{color:white; font-size: 35px; line-height:40px}</style>                              <div><p class='context'>您正确回答了92% 的试次。</p><p class='context'>您的平均反应时为489毫秒。</p><p class='context'>恭喜您完成练习。按任意键进入<span style='color: yellow;'>图形和文字同时呈现条件</span>的练习。</p></div>"," ","","","","","","","","","","","","","","","","","","","","","","",""
"","","","","","psychophysics","109","266229","0.0-11.0-0.0-0.0","1085","","f","","","","","","","","","","","","","key","f","16.668871999999975","768","428","f","true","img/S_ambi40.png","常人","prac_simultaneous",""
"","","","","","html-keyboard-response","110","266559","0.0-11.0-0.0-1.0","null","<span style='color:GreenYellow; font-size: 70px;'>正确! </span>","null","","","","","","","","","","","","","","","","","","","","","","","feedback_test"
"","","","","","psychophysics","111","268318","0.0-11.0-0.0-0.1","752","","j","","","","","","","","","","","","","key","j","16.666371428571818","768","428","j","true","img/C_ambi40.png","常人","prac_simultaneous",""
"","","","","","html-keyboard-response","112","268623","0.0-11.0-0.0-1.1","null","<span style='color:GreenYellow; font-size: 70px;'>正确! </span>","null","","","","","","","","","","","","","","","","","","","","","","","feedback_test"
"","","","","","psychophysics","113","270304","0.0-11.0-0.0-0.2","656","","f","","","","","","","","","","","","","key","f","16.667600000000093","768","428","j","false","img/T_ambi40.png","好人","prac_simultaneous",""
"","","","","","html-keyboard-response","114","270607","0.0-11.0-0.0-1.2","null","<span style='color:red; font-size: 70px;'>错误! </span>","null","","","","","","","","","","","","","","","","","","","","","","","feedback_test"
"","","","","","psychophysics","115","272109","0.0-11.0-0.0-0.3","494","","f","","","","","","","","","","","","","key","f","16.669337078651644","768","428","f","true","img/C_ambi40.png","好人","prac_simultaneous",""
"","","","","","html-keyboard-response","116","272421","0.0-11.0-0.0-1.3","null","<span style='color:GreenYellow; font-size: 70px;'>正确! </span>","null","","","","","","","","","","","","","","","","","","","","","","","feedback_test"
"","","","","","psychophysics","117","274365","0.0-11.0-0.0-0.4","937","","j","","","","","","","","","","","","","key","j","16.668439655172325","768","428","j","true","img/S_ambi40.png","坏人","prac_simultaneous",""
"","","","","","html-keyboard-response","118","274671","0.0-11.0-0.0-1.4","null","<span style='color:GreenYellow; font-size: 70px;'>正确! </span>","null","","","","","","","","","","","","","","","","","","","","","","","feedback_test"
"","","","","","psychophysics","119","276781","0.0-11.0-0.0-0.5","356","","f","","","","","","","","","","","","","key","f","16.668063492063776","768","428","f","true","img/S_ambi40.png","常人","prac_simultaneous",""
"","","","","","html-keyboard-response","120","277093","0.0-11.0-0.0-1.5","null","<span style='color:GreenYellow; font-size: 70px;'>正确! </span>","null","","","","","","","","","","","","","","","","","","","","","","","feedback_test"
"","","","","","psychophysics","121","278788","0.0-11.0-0.0-0.6","689","","f","","","","","","","","","","","","","key","f","16.666287128713286","768","428","f","true","img/C_ambi40.png","好人","prac_simultaneous",""
"","","","","","html-keyboard-response","122","279093","0.0-11.0-0.0-1.6","null","<span style='color:GreenYellow; font-size: 70px;'>正确! </span>","null","","","","","","","","","","","","","","","","","","","","","","","feedback_test"
"","","","","","psychophysics","123","280822","0.0-11.0-0.0-0.7","721","","j","","","","","","","","","","","","","key","j","16.66923300970913","768","428","j","true","img/S_ambi40.png","好人","prac_simultaneous",""
"","","","","","html-keyboard-response","124","281125","0.0-11.0-0.0-1.7","null","<span style='color:GreenYellow; font-size: 70px;'>正确! </span>","null","","","","","","","","","","","","","","","","","","","","","","","feedback_test"
"","","","","","psychophysics","125","282690","0.0-11.0-0.0-0.8","42","","f","","","","","","","","","","","","","key","f","16.669473118279555","768","428","f","true","img/T_ambi40.png","坏人","prac_simultaneous",""
"","","","","","html-keyboard-response","126","283000","0.0-11.0-0.0-1.8","null","<span style='color:yellow; font-size: 70px;'>过快! </span>","null","","","","","","","","","","","","","","","","","","","","","","","feedback_test"
"","","","","","psychophysics","127","284726","0.0-11.0-0.0-0.9","718","","j","","","","","","","","","","","","","key","j","16.66643689320427","768","428","j","true","img/C_ambi40.png","坏人","prac_simultaneous",""
"","","","","","html-keyboard-response","128","285031","0.0-11.0-0.0-1.9","null","<span style='color:GreenYellow; font-size: 70px;'>正确! </span>","null","","","","","","","","","","","","","","","","","","","","","","","feedback_test"
"","","","","","psychophysics","129","286840","0.0-11.0-0.0-0.10","802","","j","","","","","","","","","","","","","key","j","16.66635185185199","768","428","j","true","img/T_ambi40.png","常人","prac_simultaneous",""
"","","","","","html-keyboard-response","130","287142","0.0-11.0-0.0-1.10","null","<span style='color:GreenYellow; font-size: 70px;'>正确! </span>","null","","","","","","","","","","","","","","","","","","","","","","","feedback_test"
"","","","","","psychophysics","131","288716","0.0-11.0-0.0-0.11","67","","j","","","","","","","","","","","","","key","j","16.667053191489142","768","428","f","false","img/T_ambi40.png","坏人","prac_simultaneous",""
"","","","","","html-keyboard-response","132","289032","0.0-11.0-0.0-1.11","null","<span style='color:yellow; font-size: 70px;'>过快! </span>","null","","","","","","","","","","","","","","","","","","","","","","","feedback_test"
"","","","","","psychophysics","133","290691","0.0-11.0-0.0-0.12","651","","j","","","","","","","","","","","","","key","j","16.667404040403785","768","428","j","true","img/C_ambi40.png","常人","prac_simultaneous",""
"","","","","","html-keyboard-response","134","291001","0.0-11.0-0.0-1.12","null","<span style='color:GreenYellow; font-size: 70px;'>正确! </span>","null","","","","","","","","","","","","","","","","","","","","","","","feedback_test"
"","","","","","psychophysics","135","292601","0.0-11.0-0.0-0.13","592","","j","","","","","","","","","","","","","key","j","16.668063157894895","768","428","j","true","img/C_ambi40.png","坏人","prac_simultaneous",""
"","","","","","html-keyboard-response","136","292908","0.0-11.0-0.0-1.13","null","<span style='color:GreenYellow; font-size: 70px;'>正确! </span>","null","","","","","","","","","","","","","","","","","","","","","","","feedback_test"
"","","","","","psychophysics","137","294977","0.0-11.0-0.0-0.14","347","","j","","","","","","","","","","","","","key","j","16.664845528455388","768","428","j","true","img/S_ambi40.png","好人","prac_simultaneous",""
"","","","","","html-keyboard-response","138","295284","0.0-11.0-0.0-1.14","null","<span style='color:GreenYellow; font-size: 70px;'>正确! </span>","null","","","","","","","","","","","","","","","","","","","","","","","feedback_test"
"","","","","","psychophysics","139","297080","0.0-11.0-0.0-0.15","788","","j","","","","","","","","","","","","","key","j","16.6684672897192","768","428","f","false","img/C_ambi40.png","好人","prac_simultaneous",""
"","","","","","html-keyboard-response","140","297394","0.0-11.0-0.0-1.15","null","<span style='color:red; font-size: 70px;'>错误! </span>","null","","","","","","","","","","","","","","","","","","","","","","","feedback_test"
"","","","","","psychophysics","141","298997","0.0-11.0-0.0-0.16","595","","f","","","","","","","","","","","","","key","f","16.66887368421058","768","428","f","true","img/C_ambi40.png","好人","prac_simultaneous",""
"","","","","","html-keyboard-response","142","299301","0.0-11.0-0.0-1.16","null","<span style='color:GreenYellow; font-size: 70px;'>正确! </span>","null","","","","","","","","","","","","","","","","","","","","","","","feedback_test"
"","","","","","psychophysics","143","300866","0.0-11.0-0.0-0.17","223","","j","","","","","","","","","","","","","key","j","16.669258064515915","768","428","j","true","img/T_ambi40.png","好人","prac_simultaneous",""
"","","","","","html-keyboard-response","144","301177","0.0-11.0-0.0-1.17","null","<span style='color:GreenYellow; font-size: 70px;'>正确! </span>","null","","","","","","","","","","","","","","","","","","","","","","","feedback_test"
"","","","","","psychophysics","145","302891","0.0-11.0-0.0-0.18","707","","f","","","","","","","","","","","","","key","f","16.6680882352943","768","428","f","true","img/S_ambi40.png","常人","prac_simultaneous",""
"","","","","","html-keyboard-response","146","303193","0.0-11.0-0.0-1.18","null","<span style='color:GreenYellow; font-size: 70px;'>正确! </span>","null","","","","","","","","","","","","","","","","","","","","","","","feedback_test"
"","","","","","psychophysics","147","304804","0.0-11.0-0.0-0.19","603","","j","","","","","","","","","","","","","key","j","16.669218749999953","768","428","f","false","img/T_ambi40.png","坏人","prac_simultaneous",""
"","","","","","html-keyboard-response","148","305115","0.0-11.0-0.0-1.19","null","<span style='color:red; font-size: 70px;'>错误! </span>","null","","","","","","","","","","","","","","","","","","","","","","","feedback_test"
"","","","","","psychophysics","149","306996","0.0-11.0-0.0-0.20","362","","j","","","","","","","","","","","","","key","j","16.66614159292014","768","428","j","true","img/T_ambi40.png","常人","prac_simultaneous",""
"","","","","","html-keyboard-response","150","307307","0.0-11.0-0.0-1.20","null","<span style='color:GreenYellow; font-size: 70px;'>正确! </span>","null","","","","","","","","","","","","","","","","","","","","","","","feedback_test"
"","","","","","psychophysics","151","309143","0.0-11.0-0.0-0.21","829","","f","","","","","","","","","","","","","key","f","16.668449541284712","768","428","f","true","img/S_ambi40.png","常人","prac_simultaneous",""
"","","","","","html-keyboard-response","152","309463","0.0-11.0-0.0-1.21","null","<span style='color:GreenYellow; font-size: 70px;'>正确! </span>","null","","","","","","","","","","","","","","","","","","","","","","","feedback_test"
"","","","","","psychophysics","153","311147","0.0-11.0-0.0-0.22","677","","f","","","","","","","","","","","","","key","f","16.666969999999857","768","428","f","true","img/T_ambi40.png","坏人","prac_simultaneous",""
"","","","","","html-keyboard-response","154","311463","0.0-11.0-0.0-1.22","null","<span style='color:GreenYellow; font-size: 70px;'>正确! </span>","null","","","","","","","","","","","","","","","","","","","","","","","feedback_test"
"","","","","","psychophysics","155","313735","0.0-11.0-0.0-0.23","1100","","j","","","","","","","","","","","","","key","j","16.66791111111115","768","428","j","true","img/S_ambi40.png","坏人","prac_simultaneous",""
"","","","","","html-keyboard-response","156","314042","0.0-11.0-0.0-1.23","null","<span style='color:GreenYellow; font-size: 70px;'>正确! </span>","null","","","","","","","","","","","","","","","","","","","","","","","feedback_test"
"","","","","","html-keyboard-response","157","318025","0.0-12.0","3980","<style>.context{color:white; font-size: 35px; line-height:40px}</style>                              <div><p class='context'>您正确回答了83% 的试次。</p><p class='context'>您的平均反应时为634毫秒。</p><p class='context'>恭喜您完成练习。按任意键进入正式实验。</p><p class='footer' style='font-size: 35px; line-height:40px;'>请在进入正式实验实验之前将您的<span style='color: lightgreen;'>食指</span>放在电脑键盘的相应键位上进行按键。</p>"," ","","","","","","","","","","","","","","","","","","","","","","",""
"","","","","","html-keyboard-response","158","319602","0.0-13.0-2.0-0.0","1574","
      <p>请您将手指放在按键上，准备进入呈现顺序为<span style='color: yellow;'>图形和文字同时呈现条件</span>的正式匹配任务</p>
      <p> <div style = ""color: green""><按任意键进入下一阶段的匹配任务></div></p>
      "," ","","","","","","","","","","","","","","","","","","","","","","",""
"","","","","","psychophysics","159","321327","0.0-13.0-2.0-1.0-0.0-0.0","722","","f","","","","","","","","","","","","","key","f","16.667349514562762","768","428","f","true","img/C_ambi40.png","好人","simultaneous",""
"","","","","","html-keyboard-response","160","321637","0.0-13.0-2.0-1.0-0.0-1.0","null","<span style='color:GreenYellow; font-size: 70px;'>正确! </span>","null","","","","","","","","","","","","","","","","","","","","","","","feedback_test"
"","","","","","psychophysics","161","323256","0.0-13.0-2.0-1.0-0.0-0.1","612","","f","","","","","","","","","","","","","key","f","16.66538541666705","768","428","f","true","img/T_ambi40.png","坏人","simultaneous",""
"","","","","","html-keyboard-response","162","323559","0.0-13.0-2.0-1.0-0.0-1.1","null","<span style='color:GreenYellow; font-size: 70px;'>正确! </span>","null","","","","","","","","","","","","","","","","","","","","","","","feedback_test"
"","","","","","psychophysics","163","325089","0.0-13.0-2.0-1.0-0.0-0.2","523","","f","","","","","","","","","","","","","key","f","16.66673626373637","768","428","f","true","img/S_ambi40.png","常人","simultaneous",""
"","","","","","html-keyboard-response","164","325403","0.0-13.0-2.0-1.0-0.0-1.2","null","<span style='color:GreenYellow; font-size: 70px;'>正确! </span>","null","","","","","","","","","","","","","","","","","","","","","","","feedback_test"
"","","","","","psychophysics","165","327004","0.0-13.0-2.0-1.0-0.0-0.3","594","","j","","","","","","","","","","","","","key","j","16.668642105263242","768","428","j","true","img/C_ambi40.png","坏人","simultaneous",""
"","","","","","html-keyboard-response","166","327310","0.0-13.0-2.0-1.0-0.0-1.3","null","<span style='color:GreenYellow; font-size: 70px;'>正确! </span>","null","","","","","","","","","","","","","","","","","","","","","","","feedback_test"
"","","","","","psychophysics","167","328812","0.0-13.0-2.0-1.0-0.0-0.4","494","","f","","","","","","","","","","","","","key","f","16.66958426966285","768","428","f","true","img/C_ambi40.png","好人","simultaneous",""
"","","","","","html-keyboard-response","168","329123","0.0-13.0-2.0-1.0-0.0-1.4","null","<span style='color:GreenYellow; font-size: 70px;'>正确! </span>","null","","","","","","","","","","","","","","","","","","","","","","","feedback_test"
"","","","","","psychophysics","169","330693","0.0-13.0-2.0-1.0-0.0-0.5","62","","f","","","","","","","","","","","","","key","f","16.66972043010737","768","428","f","true","img/S_ambi40.png","常人","simultaneous",""
"","","","","","html-keyboard-response","170","330998","0.0-13.0-2.0-1.0-0.0-1.5","null","<span style='color:yellow; font-size: 70px;'>过快! </span>","null","","","","","","","","","","","","","","","","","","","","","","","feedback_test"
"","","","","","psychophysics","171","332657","0.0-13.0-2.0-1.0-0.0-0.6","652","","j","","","","","","","","","","","","","key","j","16.667949494949866","768","428","j","true","img/T_ambi40.png","常人","simultaneous",""
"","","","","","html-keyboard-response","172","332968","0.0-13.0-2.0-1.0-0.0-1.6","null","<span style='color:GreenYellow; font-size: 70px;'>正确! </span>","null","","","","","","","","","","","","","","","","","","","","","","","feedback_test"
"","","","","","psychophysics","173","334757","0.0-13.0-2.0-1.0-0.0-0.7","782","","j","","","","","","","","","","","","","key","j","16.668650943396024","768","428","j","true","img/C_ambi40.png","常人","simultaneous",""
"","","","","","html-keyboard-response","174","335077","0.0-13.0-2.0-1.0-0.0-1.7","null","<span style='color:GreenYellow; font-size: 70px;'>正确! </span>","null","","","","","","","","","","","","","","","","","","","","","","","feedback_test"
"","","","","","psychophysics","175","336720","0.0-13.0-2.0-1.0-0.0-0.8","86","","f","","","","","","","","","","","","","key","f","16.6698469387757","768","428","f","true","img/T_ambi40.png","坏人","simultaneous",""
"","","","","","html-keyboard-response","176","337030","0.0-13.0-2.0-1.0-0.0-1.8","null","<span style='color:yellow; font-size: 70px;'>过快! </span>","null","","","","","","","","","","","","","","","","","","","","","","","feedback_test"
"","","","","","psychophysics","177","338841","0.0-13.0-2.0-1.0-0.0-0.9","803","","j","","","","","","","","","","","","","key","j","16.6691203703705","768","428","j","true","img/S_ambi40.png","坏人","simultaneous",""
"","","","","","html-keyboard-response","178","339171","0.0-13.0-2.0-1.0-0.0-1.9","null","<span style='color:GreenYellow; font-size: 70px;'>正确! </span>","null","","","","","","","","","","","","","","","","","","","","","","","feedback_test"
"","","","","","psychophysics","179","340781","0.0-13.0-2.0-1.0-0.0-0.10","604","","f","","","","","","","","","","","","","key","f","16.670354166666584","768","428","j","false","img/S_ambi40.png","好人","simultaneous",""
"","","","","","html-keyboard-response","180","341094","0.0-13.0-2.0-1.0-0.0-1.10","null","<span style='color:red; font-size: 70px;'>错误! </span>","null","","","","","","","","","","","","","","","","","","","","","","","feedback_test"
"","","","","","psychophysics","181","342799","0.0-13.0-2.0-1.0-0.0-0.11","164","","j","","","","","","","","","","","","","key","j","16.668405940593683","768","428","j","true","img/T_ambi40.png","好人","simultaneous",""
"","","","","","html-keyboard-response","182","343110","0.0-13.0-2.0-1.0-0.0-1.11","null","<span style='color:yellow; font-size: 70px;'>过快! </span>","null","","","","","","","","","","","","","","","","","","","","","","","feedback_test"
"","","","","","psychophysics","183","345120","0.0-13.0-2.0-1.0-0.0-0.12","1002","","j","","","","","","","","","","","","","key","j","16.668191666666342","768","428","j","true","img/C_ambi40.png","坏人","simultaneous",""
"","","","","","html-keyboard-response","184","345423","0.0-13.0-2.0-1.0-0.0-1.12","null","<span style='color:GreenYellow; font-size: 70px;'>正确! </span>","null","","","","","","","","","","","","","","","","","","","","","","","feedback_test"
"","","","","","psychophysics","185","347081","0.0-13.0-2.0-1.0-0.0-0.13","651","","j","","","","","","","","","","","","","key","j","16.665585858585676","768","428","j","true","img/T_ambi40.png","常人","simultaneous",""
"","","","","","html-keyboard-response","186","347407","0.0-13.0-2.0-1.0-0.0-1.13","null","<span style='color:GreenYellow; font-size: 70px;'>正确! </span>","null","","","","","","","","","","","","","","","","","","","","","","","feedback_test"
"","","","","","psychophysics","187","349112","0.0-13.0-2.0-1.0-0.0-0.14","481","","f","","","","","","","","","","","","","key","f","16.66814851485156","768","428","f","true","img/C_ambi40.png","好人","simultaneous",""
"","","","","","html-keyboard-response","188","349423","0.0-13.0-2.0-1.0-0.0-1.14","null","<span style='color:GreenYellow; font-size: 70px;'>正确! </span>","null","","","","","","","","","","","","","","","","","","","","","","","feedback_test"
"","","","","","psychophysics","189","351032","0.0-13.0-2.0-1.0-0.0-0.15","602","","j","","","","","","","","","","","","","key","j","16.66891666666682","768","428","j","true","img/S_ambi40.png","坏人","simultaneous",""
"","","","","","html-keyboard-response","190","351345","0.0-13.0-2.0-1.0-0.0-1.15","null","<span style='color:GreenYellow; font-size: 70px;'>正确! </span>","null","","","","","","","","","","","","","","","","","","","","","","","feedback_test"
"","","","","","psychophysics","191","353398","0.0-13.0-2.0-1.0-0.0-0.16","1046","","f","","","","","","","","","","","","","key","f","16.666114754098388","768","428","f","true","img/S_ambi40.png","常人","simultaneous",""
"","","","","","html-keyboard-response","192","353705","0.0-13.0-2.0-1.0-0.0-1.16","null","<span style='color:GreenYellow; font-size: 70px;'>正确! </span>","null","","","","","","","","","","","","","","","","","","","","","","","feedback_test"
"","","","","","psychophysics","193","355739","0.0-13.0-2.0-1.0-0.0-0.17","336","","j","","","","","","","","","","","","","key","j","16.668537190082976","768","428","j","true","img/S_ambi40.png","好人","simultaneous",""
"","","","","","html-keyboard-response","194","356048","0.0-13.0-2.0-1.0-0.0-1.17","null","<span style='color:GreenYellow; font-size: 70px;'>正确! </span>","null","","","","","","","","","","","","","","","","","","","","","","","feedback_test"
"","","","","","psychophysics","195","357733","0.0-13.0-2.0-1.0-0.0-0.18","674","","f","","","","","","","","","","","","","key","f","16.66853000000003","768","428","f","true","img/T_ambi40.png","坏人","simultaneous",""
"","","","","","html-keyboard-response","196","358064","0.0-13.0-2.0-1.0-0.0-1.18","null","<span style='color:GreenYellow; font-size: 70px;'>正确! </span>","null","","","","","","","","","","","","","","","","","","","","","","","feedback_test"
"","","","","","psychophysics","197","359848","0.0-13.0-2.0-1.0-0.0-0.19","775","","j","","","","","","","","","","","","","key","j","16.656990566037766","768","428","f","false","img/T_ambi40.png","坏人","simultaneous",""
"","","","","","html-keyboard-response","198","360158","0.0-13.0-2.0-1.0-0.0-1.19","null","<span style='color:red; font-size: 70px;'>错误! </span>","null","","","","","","","","","","","","","","","","","","","","","","","feedback_test"
"","","","","","psychophysics","199","362207","0.0-13.0-2.0-1.0-0.0-0.20","575","","j","","","","","","","","","","","","","key","j","16.665704918032432","768","428","j","true","img/C_ambi40.png","常人","simultaneous",""
"","","","","","html-keyboard-response","200","362518","0.0-13.0-2.0-1.0-0.0-1.20","null","<span style='color:GreenYellow; font-size: 70px;'>正确! </span>","null","","","","","","","","","","","","","","","","","","","","","","","feedback_test"
"","","","","","psychophysics","201","364152","0.0-13.0-2.0-1.0-0.0-0.21","626","","f","","","","","","","","","","","","","key","f","16.668206185566923","768","428","f","true","img/C_ambi40.png","好人","simultaneous",""
"","","","","","html-keyboard-response","202","364456","0.0-13.0-2.0-1.0-0.0-1.21","null","<span style='color:GreenYellow; font-size: 70px;'>正确! </span>","null","","","","","","","","","","","","","","","","","","","","","","","feedback_test"
"","","","","","psychophysics","203","366432","0.0-13.0-2.0-1.0-0.0-0.22","969","","j","","","","","","","","","","","","","key","j","16.663550847457618","768","428","j","true","img/T_ambi40.png","好人","simultaneous",""
"","","","","","html-keyboard-response","204","366752","0.0-13.0-2.0-1.0-0.0-1.22","null","<span style='color:GreenYellow; font-size: 70px;'>正确! </span>","null","","","","","","","","","","","","","","","","","","","","","","","feedback_test"
"","","","","","psychophysics","205","368903","0.0-13.0-2.0-1.0-0.0-0.23","343","","f","","","","","","","","","","","","","key","f","16.6691484375001","768","428","f","true","img/S_ambi40.png","常人","simultaneous",""
"","","","","","html-keyboard-response","206","369206","0.0-13.0-2.0-1.0-0.0-1.23","null","<span style='color:GreenYellow; font-size: 70px;'>正确! </span>","null","","","","","","","","","","","","","","","","","","","","","","","feedback_test"
"","","","","","psychophysics","207","370886","0.0-13.0-2.0-1.0-0.0-0.24","672","","j","","","","","","","","","","","","","key","j","16.667420000000273","768","428","j","true","img/T_ambi40.png","常人","simultaneous",""
"","","","","","html-keyboard-response","208","371190","0.0-13.0-2.0-1.0-0.0-1.24","null","<span style='color:GreenYellow; font-size: 70px;'>正确! </span>","null","","","","","","","","","","","","","","","","","","","","","","","feedback_test"
"","","","","","psychophysics","209","372787","0.0-13.0-2.0-1.0-0.0-0.25","589","","f","","","","","","","","","","","","","key","f","16.670052631578628","768","428","f","true","img/T_ambi40.png","坏人","simultaneous",""
"","","","","","html-keyboard-response","210","373096","0.0-13.0-2.0-1.0-0.0-1.25","null","<span style='color:GreenYellow; font-size: 70px;'>正确! </span>","null","","","","","","","","","","","","","","","","","","","","","","","feedback_test"
"","","","","","psychophysics","211","374745","0.0-13.0-2.0-1.0-0.0-0.26","92","","j","","","","","","","","","","","","","key","j","16.66918367346896","768","428","j","true","img/C_ambi40.png","坏人","simultaneous",""
"","","","","","html-keyboard-response","212","375050","0.0-13.0-2.0-1.0-0.0-1.26","null","<span style='color:yellow; font-size: 70px;'>过快! </span>","null","","","","","","","","","","","","","","","","","","","","","","","feedback_test"
"","","","","","psychophysics","213","376666","0.0-13.0-2.0-1.0-0.0-0.27","609","","j","","","","","","","","","","","","","key","j","16.669135416666904","768","428","j","true","img/S_ambi40.png","坏人","simultaneous",""
"","","","","","html-keyboard-response","214","376972","0.0-13.0-2.0-1.0-0.0-1.27","null","<span style='color:GreenYellow; font-size: 70px;'>正确! </span>","null","","","","","","","","","","","","","","","","","","","","","","","feedback_test"
"","","","","","psychophysics","215","378695","0.0-13.0-2.0-1.0-0.0-0.28","716","","j","","","","","","","","","","","","","key","j","16.665970588235332","768","428","j","true","img/T_ambi40.png","好人","simultaneous",""
"","","","","","html-keyboard-response","216","379018","0.0-13.0-2.0-1.0-0.0-1.28","null","<span style='color:GreenYellow; font-size: 70px;'>正确! </span>","null","","","","","","","","","","","","","","","","","","","","","","","feedback_test"
"","","","","","psychophysics","217","380769","0.0-13.0-2.0-1.0-0.0-0.29","126","","f","","","","","","","","","","","","","key","f","16.668817307692034","768","428","f","true","img/T_ambi40.png","坏人","simultaneous",""
"","","","","","html-keyboard-response","218","381082","0.0-13.0-2.0-1.0-0.0-1.29","null","<span style='color:yellow; font-size: 70px;'>过快! </span>","null","","","","","","","","","","","","","","","","","","","","","","","feedback_test"
"","","","","","psychophysics","219","382717","0.0-13.0-2.0-1.0-0.0-0.30","627","","j","","","","","","","","","","","","","key","j","16.669268041237057","768","428","j","true","img/S_ambi40.png","好人","simultaneous",""
"","","","","","html-keyboard-response","220","383020","0.0-13.0-2.0-1.0-0.0-1.30","null","<span style='color:GreenYellow; font-size: 70px;'>正确! </span>","null","","","","","","","","","","","","","","","","","","","","","","","feedback_test"
"","","","","","psychophysics","221","384633","0.0-13.0-2.0-1.0-0.0-0.31","606","","f","","","","","","","","","","","","","key","f","16.666677083333827","768","428","f","true","img/C_ambi40.png","好人","simultaneous",""
"","","","","","html-keyboard-response","222","384942","0.0-13.0-2.0-1.0-0.0-1.31","null","<span style='color:GreenYellow; font-size: 70px;'>正确! </span>","null","","","","","","","","","","","","","","","","","","","","","","","feedback_test"
"","","","","","psychophysics","223","386892","0.0-13.0-2.0-1.0-0.0-0.32","340","","f","","","","","","","","","","","","","key","f","16.667637931034452","768","428","f","true","img/C_ambi40.png","好人","simultaneous",""
"","","","","","html-keyboard-response","224","387208","0.0-13.0-2.0-1.0-0.0-1.32","null","<span style='color:GreenYellow; font-size: 70px;'>正确! </span>","null","","","","","","","","","","","","","","","","","","","","","","","feedback_test"
"","","","","","psychophysics","225","389114","0.0-13.0-2.0-1.0-0.0-0.33","898","","f","","","","","","","","","","","","","key","f","16.668070796459904","768","428","f","true","img/S_ambi40.png","常人","simultaneous",""
"","","","","","html-keyboard-response","226","389442","0.0-13.0-2.0-1.0-0.0-1.33","null","<span style='color:GreenYellow; font-size: 70px;'>正确! </span>","null","","","","","","","","","","","","","","","","","","","","","","","feedback_test"
"","","","","","psychophysics","227","390975","0.0-13.0-2.0-1.0-0.0-0.34","526","","f","","","","","","","","","","","","","key","f","16.66867032967083","768","428","f","true","img/S_ambi40.png","常人","simultaneous",""
"","","","","","html-keyboard-response","228","391286","0.0-13.0-2.0-1.0-0.0-1.34","null","<span style='color:GreenYellow; font-size: 70px;'>正确! </span>","null","","","","","","","","","","","","","","","","","","","","","","","feedback_test"
"","","","","","psychophysics","229","393207","0.0-13.0-2.0-1.0-0.0-0.35","564","","j","","","","","","","","","","","","","key","j","16.668675438596424","768","428","j","true","img/C_ambi40.png","常人","simultaneous",""
"","","","","","html-keyboard-response","230","393536","0.0-13.0-2.0-1.0-0.0-1.35","null","<span style='color:GreenYellow; font-size: 70px;'>正确! </span>","null","","","","","","","","","","","","","","","","","","","","","","","feedback_test"
"","","","","","psychophysics","231","395204","0.0-13.0-2.0-1.0-0.0-0.36","661","","j","","","","","","","","","","","","","key","j","16.666737373737792","768","428","j","true","img/S_ambi40.png","坏人","simultaneous",""
"","","","","","html-keyboard-response","232","395506","0.0-13.0-2.0-1.0-0.0-1.36","null","<span style='color:GreenYellow; font-size: 70px;'>正确! </span>","null","","","","","","","","","","","","","","","","","","","","","","","feedback_test"
"","","","","","psychophysics","233","397161","0.0-13.0-2.0-1.0-0.0-0.37","647","","j","","","","","","","","","","","","","key","j","16.66897959183671","768","428","j","true","img/C_ambi40.png","坏人","simultaneous",""
"","","","","","html-keyboard-response","234","397490","0.0-13.0-2.0-1.0-0.0-1.37","null","<span style='color:GreenYellow; font-size: 70px;'>正确! </span>","null","","","","","","","","","","","","","","","","","","","","","","","feedback_test"
"","","","","","psychophysics","235","399129","0.0-13.0-2.0-1.0-0.0-0.38","482","","f","","","","","","","","","","","","","key","f","16.6696391752579","768","428","j","false","img/S_ambi40.png","好人","simultaneous",""
"","","","","","html-keyboard-response","236","399444","0.0-13.0-2.0-1.0-0.0-1.38","null","<span style='color:red; font-size: 70px;'>错误! </span>","null","","","","","","","","","","","","","","","","","","","","","","","feedback_test"
"","","","","","psychophysics","237","401004","0.0-13.0-2.0-1.0-0.0-0.39","553","","f","","","","","","","","","","","","","key","f","16.665946236559346","768","428","f","true","img/C_ambi40.png","好人","simultaneous",""
"","","","","","html-keyboard-response","238","401319","0.0-13.0-2.0-1.0-0.0-1.39","null","<span style='color:GreenYellow; font-size: 70px;'>正确! </span>","null","","","","","","","","","","","","","","","","","","","","","","","feedback_test"
"","","","","","psychophysics","239","402962","0.0-13.0-2.0-1.0-0.0-0.40","635","","f","","","","","","","","","","","","","key","f","16.669663265305903","768","428","f","true","img/S_ambi40.png","常人","simultaneous",""
"","","","","","html-keyboard-response","240","403272","0.0-13.0-2.0-1.0-0.0-1.40","null","<span style='color:GreenYellow; font-size: 70px;'>正确! </span>","null","","","","","","","","","","","","","","","","","","","","","","","feedback_test"
"","","","","","psychophysics","241","405083","0.0-13.0-2.0-1.0-0.0-0.41","436","","f","","","","","","","","","","","","","key","f","16.665962962962954","768","428","f","true","img/T_ambi40.png","坏人","simultaneous",""
"","","","","","html-keyboard-response","242","405398","0.0-13.0-2.0-1.0-0.0-1.41","null","<span style='color:GreenYellow; font-size: 70px;'>正确! </span>","null","","","","","","","","","","","","","","","","","","","","","","","feedback_test"
"","","","","","psychophysics","243","407101","0.0-13.0-2.0-1.0-0.0-0.42","696","","f","","","","","","","","","","","","","key","f","16.66840594059426","768","428","f","true","img/T_ambi40.png","坏人","simultaneous",""
"","","","","","html-keyboard-response","244","407414","0.0-13.0-2.0-1.0-0.0-1.42","null","<span style='color:GreenYellow; font-size: 70px;'>正确! </span>","null","","","","","","","","","","","","","","","","","","","","","","","feedback_test"
"","","","","","psychophysics","245","409140","0.0-13.0-2.0-1.0-0.0-0.43","718","","f","","","","","","","","","","","","","key","f","16.668766990290994","768","428","j","false","img/T_ambi40.png","常人","simultaneous",""
"","","","","","html-keyboard-response","246","409460","0.0-13.0-2.0-1.0-0.0-1.43","null","<span style='color:red; font-size: 70px;'>错误! </span>","null","","","","","","","","","","","","","","","","","","","","","","","feedback_test"
"","","","","","psychophysics","247","411029","0.0-13.0-2.0-1.0-0.0-0.44","381","","f","","","","","","","","","","","","","key","f","16.669999999999973","768","428","f","true","img/C_ambi40.png","好人","simultaneous",""
"","","","","","html-keyboard-response","248","411336","0.0-13.0-2.0-1.0-0.0-1.44","null","<span style='color:GreenYellow; font-size: 70px;'>正确! </span>","null","","","","","","","","","","","","","","","","","","","","","","","feedback_test"
"","","","","","psychophysics","249","412953","0.0-13.0-2.0-1.0-0.0-0.45","608","","j","","","","","","","","","","","","","key","j","16.670000000000073","768","428","j","true","img/T_ambi40.png","好人","simultaneous",""
"","","","","","html-keyboard-response","250","413258","0.0-13.0-2.0-1.0-0.0-1.45","null","<span style='color:GreenYellow; font-size: 70px;'>正确! </span>","null","","","","","","","","","","","","","","","","","","","","","","","feedback_test"
"","","","","","psychophysics","251","414802","0.0-13.0-2.0-1.0-0.0-0.46","537","","f","","","","","","","","","","","","","key","f","16.66918478260872","768","428","f","true","img/S_ambi40.png","常人","simultaneous",""
"","","","","","html-keyboard-response","252","415118","0.0-13.0-2.0-1.0-0.0-1.46","null","<span style='color:GreenYellow; font-size: 70px;'>正确! </span>","null","","","","","","","","","","","","","","","","","","","","","","","feedback_test"
"","","","","","psychophysics","253","416807","0.0-13.0-2.0-1.0-0.0-0.47","165","","j","","","","","","","","","","","","","key","j","16.668090000000085","768","428","j","true","img/C_ambi40.png","常人","simultaneous",""
"","","","","","html-keyboard-response","254","417118","0.0-13.0-2.0-1.0-0.0-1.47","null","<span style='color:yellow; font-size: 70px;'>过快! </span>","null","","","","","","","","","","","","","","","","","","","","","","","feedback_test"
"","","","","","psychophysics","255","418845","0.0-13.0-2.0-1.0-0.0-0.48","720","","f","","","","","","","","","","","","","key","f","16.668737864077716","768","428","f","true","img/S_ambi40.png","常人","simultaneous",""
"","","","","","html-keyboard-response","256","419150","0.0-13.0-2.0-1.0-0.0-1.48","null","<span style='color:GreenYellow; font-size: 70px;'>正确! </span>","null","","","","","","","","","","","","","","","","","","","","","","","feedback_test"
"","","","","","psychophysics","257","420847","0.0-13.0-2.0-1.0-0.0-0.49","689","","j","","","","","","","","","","","","","key","j","16.667277227722956","768","428","j","true","img/T_ambi40.png","常人","simultaneous",""
"","","","","","html-keyboard-response","258","421166","0.0-13.0-2.0-1.0-0.0-1.49","null","<span style='color:GreenYellow; font-size: 70px;'>正确! </span>","null","","","","","","","","","","","","","","","","","","","","","","","feedback_test"
"","","","","","psychophysics","259","422783","0.0-13.0-2.0-1.0-0.0-0.50","133","","j","","","","","","","","","","","","","key","j","16.669739583333165","768","428","f","false","img/T_ambi40.png","坏人","simultaneous",""
"","","","","","html-keyboard-response","260","423088","0.0-13.0-2.0-1.0-0.0-1.50","null","<span style='color:yellow; font-size: 70px;'>过快! </span>","null","","","","","","","","","","","","","","","","","","","","","","","feedback_test"
"","","","","","psychophysics","261","424908","0.0-13.0-2.0-1.0-0.0-0.51","813","","j","","","","","","","","","","","","","key","j","16.666629629630027","768","428","j","true","img/T_ambi40.png","好人","simultaneous",""
"","","","","","html-keyboard-response","262","425213","0.0-13.0-2.0-1.0-0.0-1.51","null","<span style='color:GreenYellow; font-size: 70px;'>正确! </span>","null","","","","","","","","","","","","","","","","","","","","","","","feedback_test"
"","","","","","psychophysics","263","426822","0.0-13.0-2.0-1.0-0.0-0.52","610","","f","","","","","","","","","","","","","key","f","16.669583333333623","768","428","f","true","img/C_ambi40.png","好人","simultaneous",""
"","","","","","html-keyboard-response","264","427126","0.0-13.0-2.0-1.0-0.0-1.52","null","<span style='color:GreenYellow; font-size: 70px;'>正确! </span>","null","","","","","","","","","","","","","","","","","","","","","","","feedback_test"
"","","","","","psychophysics","265","428770","0.0-13.0-2.0-1.0-0.0-0.53","136","","f","","","","","","","","","","","","","key","f","16.668989795918236","768","428","j","false","img/S_ambi40.png","坏人","simultaneous",""
"","","","","","html-keyboard-response","266","429080","0.0-13.0-2.0-1.0-0.0-1.53","null","<span style='color:yellow; font-size: 70px;'>过快! </span>","null","","","","","","","","","","","","","","","","","","","","","","","feedback_test"
"","","","","","psychophysics","267","430646","0.0-13.0-2.0-1.0-0.0-0.54","558","","f","","","","","","","","","","","","","key","f","16.6666021505377","768","428","f","true","img/C_ambi40.png","好人","simultaneous",""
"","","","","","html-keyboard-response","268","430955","0.0-13.0-2.0-1.0-0.0-1.54","null","<span style='color:GreenYellow; font-size: 70px;'>正确! </span>","null","","","","","","","","","","","","","","","","","","","","","","","feedback_test"
"","","","","","psychophysics","269","432604","0.0-13.0-2.0-1.0-0.0-0.55","642","","f","","","","","","","","","","","","","key","f","16.66829591836752","768","428","f","true","img/S_ambi40.png","常人","simultaneous",""
"","","","","","html-keyboard-response","270","432908","0.0-13.0-2.0-1.0-0.0-1.55","null","<span style='color:GreenYellow; font-size: 70px;'>正确! </span>","null","","","","","","","","","","","","","","","","","","","","","","","feedback_test"
"","","","","","psychophysics","271","434912","0.0-13.0-2.0-1.0-0.0-0.56","333","","j","","","","","","","","","","","","","key","j","16.665966386554622","768","428","j","true","img/C_ambi40.png","坏人","simultaneous",""
"","","","","","html-keyboard-response","272","435221","0.0-13.0-2.0-1.0-0.0-1.56","null","<span style='color:GreenYellow; font-size: 70px;'>正确! </span>","null","","","","","","","","","","","","","","","","","","","","","","","feedback_test"
"","","","","","psychophysics","273","437105","0.0-13.0-2.0-1.0-0.0-0.57","876","","j","","","","","","","","","","","","","key","j","16.666732142857136","768","428","j","true","img/C_ambi40.png","常人","simultaneous",""
"","","","","","html-keyboard-response","274","437410","0.0-13.0-2.0-1.0-0.0-1.57","null","<span style='color:GreenYellow; font-size: 70px;'>正确! </span>","null","","","","","","","","","","","","","","","","","","","","","","","feedback_test"
"","","","","","psychophysics","275","439107","0.0-13.0-2.0-1.0-0.0-0.58","690","","j","","","","","","","","","","","","","key","j","16.665356435643574","768","428","j","true","img/S_ambi40.png","好人","simultaneous",""
"","","","","","html-keyboard-response","276","439410","0.0-13.0-2.0-1.0-0.0-1.58","null","<span style='color:GreenYellow; font-size: 70px;'>正确! </span>","null","","","","","","","","","","","","","","","","","","","","","","","feedback_test"
"","","","","","psychophysics","277","441076","0.0-13.0-2.0-1.0-0.0-0.59","442","","f","","","","","","","","","","","","","key","f","16.66805050505038","768","428","f","true","img/T_ambi40.png","坏人","simultaneous",""
"","","","","","html-keyboard-response","278","441378","0.0-13.0-2.0-1.0-0.0-1.59","null","<span style='color:GreenYellow; font-size: 70px;'>正确! </span>","null","","","","","","","","","","","","","","","","","","","","","","","feedback_test"
"","","","","","html-keyboard-response","279","444862","0.0-13.0-2.0-1.0-1.0","3481","<style>.context{color:white; font-size: 35px; line-height:40px}</style>                              <div><p class='context'>您正确回答了90% 的试次。</p><p class='context'>您的平均反应时为571毫秒。</p><p class='context'>请按任意键进入休息</p></div>"," ","","","","","","","","","","","","","","","","","","","","","","",""
"","","","","","html-button-response","280","513599","0.0-13.0-2.0-1.0-2.0","68727","
                      <p>您当前还剩余3组实验</p>
                      <p>现在是休息时间，当您结束休息后，您可以点击 结束休息 按钮 继续</p>
                      <p>建议休息时间还剩余<span id=""iii"">60</span>秒</p>","0","","","","","","","","","","","","","","","","","","","","","","",""
"","","","","","psychophysics","281","515282","0.0-13.0-2.0-1.0-0.1-0.60","678","","f","","","","","","","","","","","","","key","f","16.66795999999973","768","428","f","true","img/S_ambi40.png","常人","simultaneous",""
"","","","","","html-keyboard-response","282","515589","0.0-13.0-2.0-1.0-0.1-1.60","null","<span style='color:GreenYellow; font-size: 70px;'>正确! </span>","null","","","","","","","","","","","","","","","","","","","","","","","feedback_test"
"","","","","","psychophysics","283","517115","0.0-13.0-2.0-1.0-0.1-0.61","519","","j","","","","","","","","","","","","","key","j","16.670087912087943","768","428","j","true","img/C_ambi40.png","坏人","simultaneous",""
"","","","","","html-keyboard-response","284","517418","0.0-13.0-2.0-1.0-0.1-1.61","null","<span style='color:GreenYellow; font-size: 70px;'>正确! </span>","null","","","","","","","","","","","","","","","","","","","","","","","feedback_test"
"","","","","","psychophysics","285","519206","0.0-13.0-2.0-1.0-0.1-0.62","780","","f","","","","","","","","","","","","","key","f","16.669160377358324","768","428","f","true","img/T_ambi40.png","坏人","simultaneous",""
"","","","","","html-keyboard-response","286","519512","0.0-13.0-2.0-1.0-0.1-1.62","null","<span style='color:GreenYellow; font-size: 70px;'>正确! </span>","null","","","","","","","","","","","","","","","","","","","","","","","feedback_test"
"","","","","","psychophysics","287","521239","0.0-13.0-2.0-1.0-0.1-0.63","719","","j","","","","","","","","","","","","","key","j","16.668300970873425","768","428","j","true","img/S_ambi40.png","坏人","simultaneous",""
"","","","","","html-keyboard-response","288","521559","0.0-13.0-2.0-1.0-0.1-1.63","null","<span style='color:GreenYellow; font-size: 70px;'>正确! </span>","null","","","","","","","","","","","","","","","","","","","","","","","feedback_test"
"","","","","","psychophysics","289","523129","0.0-13.0-2.0-1.0-0.1-0.64","562","","f","","","","","","","","","","","","","key","f","16.67010752688117","768","428","f","true","img/C_ambi40.png","好人","simultaneous",""
"","","","","","html-keyboard-response","290","523433","0.0-13.0-2.0-1.0-0.1-1.64","null","<span style='color:GreenYellow; font-size: 70px;'>正确! </span>","null","","","","","","","","","","","","","","","","","","","","","","","feedback_test"
"","","","","","psychophysics","291","525425","0.0-13.0-2.0-1.0-0.1-0.65","783","","j","","","","","","","","","","","","","key","j","16.666428571429","768","428","j","true","img/S_ambi40.png","好人","simultaneous",""
"","","","","","html-keyboard-response","292","525731","0.0-13.0-2.0-1.0-0.1-1.65","null","<span style='color:GreenYellow; font-size: 70px;'>正确! </span>","null","","","","","","","","","","","","","","","","","","","","","","","feedback_test"
"","","","","","psychophysics","293","527387","0.0-13.0-2.0-1.0-0.1-0.66","649","","f","","","","","","","","","","","","","key","f","16.66767346938806","768","428","j","false","img/T_ambi40.png","好人","simultaneous",""
"","","","","","html-keyboard-response","294","527699","0.0-13.0-2.0-1.0-0.1-1.66","null","<span style='color:red; font-size: 70px;'>错误! </span>","null","","","","","","","","","","","","","","","","","","","","","","","feedback_test"
"","","","","","psychophysics","295","529314","0.0-13.0-2.0-1.0-0.1-0.67","607","","f","","","","","","","","","","","","","key","f","16.67035416666719","768","428","f","true","img/C_ambi40.png","好人","simultaneous",""
"","","","","","html-keyboard-response","296","529622","0.0-13.0-2.0-1.0-0.1-1.67","null","<span style='color:GreenYellow; font-size: 70px;'>正确! </span>","null","","","","","","","","","","","","","","","","","","","","","","","feedback_test"
"","","","","","psychophysics","297","531277","0.0-13.0-2.0-1.0-0.1-0.68","631","","f","","","","","","","","","","","","","key","f","16.665928571427962","768","428","f","true","img/S_ambi40.png","常人","simultaneous",""
"","","","","","html-keyboard-response","298","531591","0.0-13.0-2.0-1.0-0.1-1.68","null","<span style='color:GreenYellow; font-size: 70px;'>正确! </span>","null","","","","","","","","","","","","","","","","","","","","","","","feedback_test"
"","","","","","psychophysics","299","533351","0.0-13.0-2.0-1.0-0.1-0.69","753","","j","","","","","","","","","","","","","key","j","16.66907619047644","768","428","j","true","img/T_ambi40.png","常人","simultaneous",""
"","","","","","html-keyboard-response","300","533654","0.0-13.0-2.0-1.0-0.1-1.69","null","<span style='color:GreenYellow; font-size: 70px;'>正确! </span>","null","","","","","","","","","","","","","","","","","","","","","","","feedback_test"
"","","","","","psychophysics","301","535293","0.0-13.0-2.0-1.0-0.1-0.70","632","","j","","","","","","","","","","","","","key","j","16.669340206185336","768","428","j","true","img/C_ambi40.png","常人","simultaneous",""
"","","","","","html-keyboard-response","302","535607","0.0-13.0-2.0-1.0-0.1-1.70","null","<span style='color:GreenYellow; font-size: 70px;'>正确! </span>","null","","","","","","","","","","","","","","","","","","","","","","","feedback_test"
"","","","","","psychophysics","303","537347","0.0-13.0-2.0-1.0-0.1-0.71","700","","f","","","","","","","","","","","","","key","f","16.664798076923873","768","428","f","true","img/T_ambi40.png","坏人","simultaneous",""
"","","","","","html-keyboard-response","304","537654","0.0-13.0-2.0-1.0-0.1-1.71","null","<span style='color:GreenYellow; font-size: 70px;'>正确! </span>","null","","","","","","","","","","","","","","","","","","","","","","","feedback_test"
"","","","","","psychophysics","305","539355","0.0-13.0-2.0-1.0-0.1-0.72","694","","f","","","","","","","","","","","","","key","f","16.665475247524643","768","428","f","true","img/C_ambi40.png","好人","simultaneous",""
"","","","","","html-keyboard-response","306","539670","0.0-13.0-2.0-1.0-0.1-1.72","null","<span style='color:GreenYellow; font-size: 70px;'>正确! </span>","null","","","","","","","","","","","","","","","","","","","","","","","feedback_test"
"","","","","","psychophysics","307","541382","0.0-13.0-2.0-1.0-0.1-0.73","704","","j","","","","","","","","","","","","","key","j","16.66832352941171","768","428","j","true","img/C_ambi40.png","常人","simultaneous",""
"","","","","","html-keyboard-response","308","541686","0.0-13.0-2.0-1.0-0.1-1.73","null","<span style='color:GreenYellow; font-size: 70px;'>正确! </span>","null","","","","","","","","","","","","","","","","","","","","","","","feedback_test"
"","","","","","psychophysics","309","543823","0.0-13.0-2.0-1.0-0.1-0.74","407","","j","","","","","","","","","","","","","key","j","16.667834645669767","768","428","j","true","img/S_ambi40.png","坏人","simultaneous",""
"","","","","","html-keyboard-response","310","544154","0.0-13.0-2.0-1.0-0.1-1.74","null","<span style='color:GreenYellow; font-size: 70px;'>正确! </span>","null","","","","","","","","","","","","","","","","","","","","","","","feedback_test"
"","","","","","psychophysics","311","545892","0.0-13.0-2.0-1.0-0.1-0.75","730","","j","","","","","","","","","","","","","key","j","16.668737864077716","768","428","j","true","img/S_ambi40.png","好人","simultaneous",""
"","","","","","html-keyboard-response","312","546202","0.0-13.0-2.0-1.0-0.1-1.75","null","<span style='color:GreenYellow; font-size: 70px;'>正确! </span>","null","","","","","","","","","","","","","","","","","","","","","","","feedback_test"
"","","","","","psychophysics","313","547830","0.0-13.0-2.0-1.0-0.1-0.76","624","","f","","","","","","","","","","","","","key","f","16.669886597938664","768","428","f","true","img/C_ambi40.png","好人","simultaneous",""
"","","","","","html-keyboard-response","314","548136","0.0-13.0-2.0-1.0-0.1-1.76","null","<span style='color:GreenYellow; font-size: 70px;'>正确! </span>","null","","","","","","","","","","","","","","","","","","","","","","","feedback_test"
"","","","","","psychophysics","315","549729","0.0-13.0-2.0-1.0-0.1-0.77","86","","j","","","","","","","","","","","","","key","j","16.668799999999617","768","428","j","true","img/C_ambi40.png","坏人","simultaneous",""
"","","","","","html-keyboard-response","316","550043","0.0-13.0-2.0-1.0-0.1-1.77","null","<span style='color:yellow; font-size: 70px;'>过快! </span>","null","","","","","","","","","","","","","","","","","","","","","","","feedback_test"
"","","","","","psychophysics","317","551619","0.0-13.0-2.0-1.0-0.1-0.78","568","","f","","","","","","","","","","","","","key","f","16.670574468084947","768","428","j","false","img/T_ambi40.png","好人","simultaneous",""
"","","","","","html-keyboard-response","318","551949","0.0-13.0-2.0-1.0-0.1-1.78","null","<span style='color:red; font-size: 70px;'>错误! </span>","null","","","","","","","","","","","","","","","","","","","","","","","feedback_test"
"","","","","","psychophysics","319","553631","0.0-13.0-2.0-1.0-0.1-0.79","674","","f","","","","","","","","","","","","","key","f","16.665120000001043","768","428","f","true","img/S_ambi40.png","常人","simultaneous",""
"","","","","","html-keyboard-response","320","553935","0.0-13.0-2.0-1.0-0.1-1.79","null","<span style='color:GreenYellow; font-size: 70px;'>正确! </span>","null","","","","","","","","","","","","","","","","","","","","","","","feedback_test"
"","","","","","psychophysics","321","555902","0.0-13.0-2.0-1.0-0.1-0.80","335","","f","","","","","","","","","","","","","key","f","16.66778632478677","768","428","f","true","img/T_ambi40.png","坏人","simultaneous",""
"","","","","","html-keyboard-response","322","556231","0.0-13.0-2.0-1.0-0.1-1.80","null","<span style='color:GreenYellow; font-size: 70px;'>正确! </span>","null","","","","","","","","","","","","","","","","","","","","","","","feedback_test"
"","","","","","psychophysics","323","557858","0.0-13.0-2.0-1.0-0.1-0.81","619","","j","","","","","","","","","","","","","key","j","16.668618556700128","768","428","j","true","img/T_ambi40.png","常人","simultaneous",""
"","","","","","html-keyboard-response","324","558169","0.0-13.0-2.0-1.0-0.1-1.81","null","<span style='color:GreenYellow; font-size: 70px;'>正确! </span>","null","","","","","","","","","","","","","","","","","","","","","","","feedback_test"
"","","","","","psychophysics","325","559870","0.0-13.0-2.0-1.0-0.1-0.82","694","","f","","","","","","","","","","","","","key","f","16.665633663366833","768","428","f","true","img/T_ambi40.png","坏人","simultaneous",""
"","","","","","html-keyboard-response","326","560185","0.0-13.0-2.0-1.0-0.1-1.82","null","<span style='color:GreenYellow; font-size: 70px;'>正确! </span>","null","","","","","","","","","","","","","","","","","","","","","","","feedback_test"
"","","","","","psychophysics","327","561790","0.0-13.0-2.0-1.0-0.1-0.83","151","","f","","","","","","","","","","","","","key","f","16.66949473684286","768","428","f","true","img/S_ambi40.png","常人","simultaneous",""
"","","","","","html-keyboard-response","328","562107","0.0-13.0-2.0-1.0-0.1-1.83","null","<span style='color:yellow; font-size: 70px;'>过快! </span>","null","","","","","","","","","","","","","","","","","","","","","","","feedback_test"
"","","","","","psychophysics","329","563692","0.0-13.0-2.0-1.0-0.1-0.84","577","","f","","","","","","","","","","","","","key","f","16.66639361702193","768","428","f","true","img/S_ambi40.png","常人","simultaneous",""
"","","","","","html-keyboard-response","330","563999","0.0-13.0-2.0-1.0-0.1-1.84","null","<span style='color:GreenYellow; font-size: 70px;'>正确! </span>","null","","","","","","","","","","","","","","","","","","","","","","","feedback_test"
"","","","","","psychophysics","331","565649","0.0-13.0-2.0-1.0-0.1-0.85","643","","j","","","","","","","","","","","","","key","j","16.66996938775517","768","428","j","true","img/S_ambi40.png","坏人","simultaneous",""
"","","","","","html-keyboard-response","332","565967","0.0-13.0-2.0-1.0-0.1-1.85","null","<span style='color:GreenYellow; font-size: 70px;'>正确! </span>","null","","","","","","","","","","","","","","","","","","","","","","","feedback_test"
"","","","","","psychophysics","333","567923","0.0-13.0-2.0-1.0-0.1-0.86","354","","f","","","","","","","","","","","","","key","f","16.667913793103473","768","428","f","true","img/T_ambi40.png","坏人","simultaneous",""
"","","","","","html-keyboard-response","334","568233","0.0-13.0-2.0-1.0-0.1-1.86","null","<span style='color:GreenYellow; font-size: 70px;'>正确! </span>","null","","","","","","","","","","","","","","","","","","","","","","","feedback_test"
"","","","","","psychophysics","335","569815","0.0-13.0-2.0-1.0-0.1-0.87","573","","j","","","","","","","","","","","","","key","j","16.668617021277587","768","428","j","true","img/T_ambi40.png","常人","simultaneous",""
"","","","","","html-keyboard-response","336","570125","0.0-13.0-2.0-1.0-0.1-1.87","null","<span style='color:GreenYellow; font-size: 70px;'>正确! </span>","null","","","","","","","","","","","","","","","","","","","","","","","feedback_test"
"","","","","","psychophysics","337","571792","0.0-13.0-2.0-1.0-0.1-0.88","660","","f","","","","","","","","","","","","","key","f","16.6677070707071","768","428","f","true","img/T_ambi40.png","坏人","simultaneous",""
"","","","","","html-keyboard-response","338","572093","0.0-13.0-2.0-1.0-0.1-1.88","null","<span style='color:GreenYellow; font-size: 70px;'>正确! </span>","null","","","","","","","","","","","","","","","","","","","","","","","feedback_test"
"","","","","","psychophysics","339","573718","0.0-13.0-2.0-1.0-0.1-0.89","78","","f","","","","","","","","","","","","","key","f","16.665855670102978","768","428","f","true","img/C_ambi40.png","好人","simultaneous",""
"","","","","","html-keyboard-response","340","574031","0.0-13.0-2.0-1.0-0.1-1.89","null","<span style='color:yellow; font-size: 70px;'>过快! </span>","null","","","","","","","","","","","","","","","","","","","","","","","feedback_test"
"","","","","","psychophysics","341","575765","0.0-13.0-2.0-1.0-0.1-0.90","727","","j","","","","","","","","","","","","","key","j","16.66254368932009","768","428","j","true","img/T_ambi40.png","好人","simultaneous",""
"","","","","","html-keyboard-response","342","576093","0.0-13.0-2.0-1.0-0.1-1.90","null","<span style='color:GreenYellow; font-size: 70px;'>正确! </span>","null","","","","","","","","","","","","","","","","","","","","","","","feedback_test"
"","","","","","psychophysics","343","577836","0.0-13.0-2.0-1.0-0.1-0.91","735","","j","","","","","","","","","","","","","key","j","16.666000000000796","768","428","j","true","img/C_ambi40.png","坏人","simultaneous",""
"","","","","","html-keyboard-response","344","578141","0.0-13.0-2.0-1.0-0.1-1.91","null","<span style='color:GreenYellow; font-size: 70px;'>正确! </span>","null","","","","","","","","","","","","","","","","","","","","","","","feedback_test"
"","","","","","psychophysics","345","579987","0.0-13.0-2.0-1.0-0.1-0.92","359","","f","","","","","","","","","","","","","key","f","16.668327272727833","768","428","f","true","img/C_ambi40.png","好人","simultaneous",""
"","","","","","html-keyboard-response","346","580297","0.0-13.0-2.0-1.0-0.1-1.92","null","<span style='color:GreenYellow; font-size: 70px;'>正确! </span>","null","","","","","","","","","","","","","","","","","","","","","","","feedback_test"
"","","","","","psychophysics","347","582046","0.0-13.0-2.0-1.0-0.1-0.93","741","","j","","","","","","","","","","","","","key","j","16.669115384615278","768","428","j","true","img/C_ambi40.png","常人","simultaneous",""
"","","","","","html-keyboard-response","348","582361","0.0-13.0-2.0-1.0-0.1-1.93","null","<span style='color:GreenYellow; font-size: 70px;'>正确! </span>","null","","","","","","","","","","","","","","","","","","","","","","","feedback_test"
"","","","","","psychophysics","349","584068","0.0-13.0-2.0-1.0-0.1-0.94","699","","f","","","","","","","","","","","","","key","f","16.668049504950478","768","428","f","true","img/S_ambi40.png","常人","simultaneous",""
"","","","","","html-keyboard-response","350","584377","0.0-13.0-2.0-1.0-0.1-1.94","null","<span style='color:GreenYellow; font-size: 70px;'>正确! </span>","null","","","","","","","","","","","","","","","","","","","","","","","feedback_test"
"","","","","","psychophysics","351","585953","0.0-13.0-2.0-1.0-0.1-0.95","311","","j","","","","","","","","","","","","","key","j","16.668702127658417","768","428","j","true","img/S_ambi40.png","好人","simultaneous",""
"","","","","","html-keyboard-response","352","586268","0.0-13.0-2.0-1.0-0.1-1.95","null","<span style='color:GreenYellow; font-size: 70px;'>正确! </span>","null","","","","","","","","","","","","","","","","","","","","","","","feedback_test"
"","","","","","psychophysics","353","587841","0.0-13.0-2.0-1.0-0.1-0.96","566","","f","","","","","","","","","","","","","key","f","16.67044086021406","768","428","f","true","img/S_ambi40.png","常人","simultaneous",""
"","","","","","html-keyboard-response","354","588143","0.0-13.0-2.0-1.0-0.1-1.96","null","<span style='color:GreenYellow; font-size: 70px;'>正确! </span>","null","","","","","","","","","","","","","","","","","","","","","","","feedback_test"
"","","","","","psychophysics","355","589977","0.0-13.0-2.0-1.0-0.1-0.97","826","","j","","","","","","","","","","","","","key","j","16.669155963302437","768","428","j","true","img/C_ambi40.png","常人","simultaneous",""
"","","","","","html-keyboard-response","356","590285","0.0-13.0-2.0-1.0-0.1-1.97","null","<span style='color:GreenYellow; font-size: 70px;'>正确! </span>","null","","","","","","","","","","","","","","","","","","","","","","","feedback_test"
"","","","","","psychophysics","357","591997","0.0-13.0-2.0-1.0-0.1-0.98","355","","f","","","","","","","","","","","","","key","f","16.6680882352943","768","428","f","true","img/T_ambi40.png","坏人","simultaneous",""
"","","","","","html-keyboard-response","358","592301","0.0-13.0-2.0-1.0-0.1-1.98","null","<span style='color:GreenYellow; font-size: 70px;'>正确! </span>","null","","","","","","","","","","","","","","","","","","","","","","","feedback_test"
"","","","","","psychophysics","359","593903","0.0-13.0-2.0-1.0-0.1-0.99","593","","f","","","","","","","","","","","","","key","f","16.66948421052657","768","428","f","true","img/C_ambi40.png","好人","simultaneous",""
"","","","","","html-keyboard-response","360","594207","0.0-13.0-2.0-1.0-0.1-1.99","null","<span style='color:GreenYellow; font-size: 70px;'>正确! </span>","null","","","","","","","","","","","","","","","","","","","","","","","feedback_test"
"","","","","","psychophysics","361","595882","0.0-13.0-2.0-1.0-0.1-0.100","667","","j","","","","","","","","","","","","","key","j","16.66651000000071","768","428","j","true","img/C_ambi40.png","坏人","simultaneous",""
"","","","","","html-keyboard-response","362","596193","0.0-13.0-2.0-1.0-0.1-1.100","null","<span style='color:GreenYellow; font-size: 70px;'>正确! </span>","null","","","","","","","","","","","","","","","","","","","","","","","feedback_test"
"","","","","","psychophysics","363","597841","0.0-13.0-2.0-1.0-0.1-0.101","196","","j","","","","","","","","","","","","","key","j","16.667785714286598","768","428","j","true","img/S_ambi40.png","好人","simultaneous",""
"","","","","","html-keyboard-response","364","598161","0.0-13.0-2.0-1.0-0.1-1.101","null","<span style='color:yellow; font-size: 70px;'>过快! </span>","null","","","","","","","","","","","","","","","","","","","","","","","feedback_test"
"","","","","","psychophysics","365","599810","0.0-13.0-2.0-1.0-0.1-0.102","642","","j","","","","","","","","","","","","","key","j","16.66667346938689","768","428","j","true","img/T_ambi40.png","常人","simultaneous",""
"","","","","","html-keyboard-response","366","600115","0.0-13.0-2.0-1.0-0.1-1.102","null","<span style='color:GreenYellow; font-size: 70px;'>正确! </span>","null","","","","","","","","","","","","","","","","","","","","","","","feedback_test"
"","","","","","psychophysics","367","601743","0.0-13.0-2.0-1.0-0.1-0.103","621","","j","","","","","","","","","","","","","key","j","16.66877319587553","768","428","f","false","img/T_ambi40.png","坏人","simultaneous",""
"","","","","","html-keyboard-response","368","602052","0.0-13.0-2.0-1.0-0.1-1.103","null","<span style='color:red; font-size: 70px;'>错误! </span>","null","","","","","","","","","","","","","","","","","","","","","","","feedback_test"
"","","","","","psychophysics","369","603829","0.0-13.0-2.0-1.0-0.1-0.104","186","","j","","","","","","","","","","","","","key","j","16.669235849056726","768","428","j","true","img/T_ambi40.png","好人","simultaneous",""
"","","","","","html-keyboard-response","370","604131","0.0-13.0-2.0-1.0-0.1-1.104","null","<span style='color:yellow; font-size: 70px;'>过快! </span>","null","","","","","","","","","","","","","","","","","","","","","","","feedback_test"
"","","","","","psychophysics","371","605680","0.0-13.0-2.0-1.0-0.1-0.105","541","","f","","","","","","","","","","","","","key","f","16.669793478261337","768","428","f","true","img/C_ambi40.png","好人","simultaneous",""
"","","","","","html-keyboard-response","372","605990","0.0-13.0-2.0-1.0-0.1-1.105","null","<span style='color:GreenYellow; font-size: 70px;'>正确! </span>","null","","","","","","","","","","","","","","","","","","","","","","","feedback_test"
"","","","","","psychophysics","373","607500","0.0-13.0-2.0-1.0-0.1-0.106","502","","j","","","","","","","","","","","","","key","j","16.669822222222056","768","428","j","true","img/S_ambi40.png","坏人","simultaneous",""
"","","","","","html-keyboard-response","374","607808","0.0-13.0-2.0-1.0-0.1-1.106","null","<span style='color:GreenYellow; font-size: 70px;'>正确! </span>","null","","","","","","","","","","","","","","","","","","","","","","","feedback_test"
"","","","","","psychophysics","375","609426","0.0-13.0-2.0-1.0-0.1-0.107","609","","f","","","","","","","","","","","","","key","f","16.66949999999997","768","428","f","true","img/S_ambi40.png","常人","simultaneous",""
"","","","","","html-keyboard-response","376","609746","0.0-13.0-2.0-1.0-0.1-1.107","null","<span style='color:GreenYellow; font-size: 70px;'>正确! </span>","null","","","","","","","","","","","","","","","","","","","","","","","feedback_test"
"","","","","","psychophysics","377","611275","0.0-13.0-2.0-1.0-0.1-0.108","521","","f","","","","","","","","","","","","","key","f","16.666230769230534","768","428","f","true","img/S_ambi40.png","常人","simultaneous",""
"","","","","","html-keyboard-response","378","611590","0.0-13.0-2.0-1.0-0.1-1.108","null","<span style='color:GreenYellow; font-size: 70px;'>正确! </span>","null","","","","","","","","","","","","","","","","","","","","","","","feedback_test"
"","","","","","psychophysics","379","613873","0.0-13.0-2.0-1.0-0.1-0.109","1275","","j","","","","","","","","","","","","","key","j","16.66788970588309","768","428","j","true","img/C_ambi40.png","坏人","simultaneous",""
"","","","","","html-keyboard-response","380","614184","0.0-13.0-2.0-1.0-0.1-1.109","null","<span style='color:GreenYellow; font-size: 70px;'>正确! </span>","null","","","","","","","","","","","","","","","","","","","","","","","feedback_test"
"","","","","","psychophysics","381","615781","0.0-13.0-2.0-1.0-0.1-0.110","128","","f","","","","","","","","","","","","","key","f","16.66910526315853","768","428","j","false","img/T_ambi40.png","好人","simultaneous",""
"","","","","","html-keyboard-response","382","616106","0.0-13.0-2.0-1.0-0.1-1.110","null","<span style='color:yellow; font-size: 70px;'>过快! </span>","null","","","","","","","","","","","","","","","","","","","","","","","feedback_test"
"","","","","","psychophysics","383","617692","0.0-13.0-2.0-1.0-0.1-0.111","579","","f","","","","","","","","","","","","","key","f","16.666319148935763","768","428","j","false","img/C_ambi40.png","常人","simultaneous",""
"","","","","","html-keyboard-response","384","617998","0.0-13.0-2.0-1.0-0.1-1.111","null","<span style='color:red; font-size: 70px;'>错误! </span>","null","","","","","","","","","","","","","","","","","","","","","","","feedback_test"
"","","","","","psychophysics","385","619597","0.0-13.0-2.0-1.0-0.1-0.112","592","","f","","","","","","","","","","","","","key","f","16.668715789474202","768","428","f","true","img/C_ambi40.png","好人","simultaneous",""
"","","","","","html-keyboard-response","386","619904","0.0-13.0-2.0-1.0-0.1-1.112","null","<span style='color:GreenYellow; font-size: 70px;'>正确! </span>","null","","","","","","","","","","","","","","","","","","","","","","","feedback_test"
"","","","","","psychophysics","387","621947","0.0-13.0-2.0-1.0-0.1-0.113","355","","f","","","","","","","","","","","","","key","f","16.668377049180457","768","428","f","true","img/T_ambi40.png","坏人","simultaneous",""
"","","","","","html-keyboard-response","388","622264","0.0-13.0-2.0-1.0-0.1-1.113","null","<span style='color:GreenYellow; font-size: 70px;'>正确! </span>","null","","","","","","","","","","","","","","","","","","","","","","","feedback_test"
"","","","","","psychophysics","389","623963","0.0-13.0-2.0-1.0-0.1-0.114","692","","f","","","","","","","","","","","","","key","f","16.666415841584925","768","428","f","true","img/T_ambi40.png","坏人","simultaneous",""
"","","","","","html-keyboard-response","390","624280","0.0-13.0-2.0-1.0-0.1-1.114","null","<span style='color:GreenYellow; font-size: 70px;'>正确! </span>","null","","","","","","","","","","","","","","","","","","","","","","","feedback_test"
"","","","","","psychophysics","391","626035","0.0-13.0-2.0-1.0-0.1-0.115","747","","j","","","","","","","","","","","","","key","j","16.66925000000069","768","428","j","true","img/T_ambi40.png","常人","simultaneous",""
"","","","","","html-keyboard-response","392","626342","0.0-13.0-2.0-1.0-0.1-1.115","null","<span style='color:GreenYellow; font-size: 70px;'>正确! </span>","null","","","","","","","","","","","","","","","","","","","","","","","feedback_test"
"","","","","","psychophysics","393","628053","0.0-13.0-2.0-1.0-0.1-0.116","404","","f","","","","","","","","","","","","","key","f","16.66902941176508","768","428","f","true","img/S_ambi40.png","常人","simultaneous",""
"","","","","","html-keyboard-response","394","628358","0.0-13.0-2.0-1.0-0.1-1.116","null","<span style='color:GreenYellow; font-size: 70px;'>正确! </span>","null","","","","","","","","","","","","","","","","","","","","","","","feedback_test"
"","","","","","psychophysics","395","630178","0.0-13.0-2.0-1.0-0.1-0.117","813","","j","","","","","","","","","","","","","key","j","16.668518518518088","768","428","j","true","img/S_ambi40.png","好人","simultaneous",""
"","","","","","html-keyboard-response","396","630484","0.0-13.0-2.0-1.0-0.1-1.117","null","<span style='color:GreenYellow; font-size: 70px;'>正确! </span>","null","","","","","","","","","","","","","","","","","","","","","","","feedback_test"
"","","","","","psychophysics","397","632058","0.0-13.0-2.0-1.0-0.1-0.118","567","","f","","","","","","","","","","","","","key","f","16.66738297872275","768","428","f","true","img/C_ambi40.png","好人","simultaneous",""
"","","","","","html-keyboard-response","398","632374","0.0-13.0-2.0-1.0-0.1-1.118","null","<span style='color:GreenYellow; font-size: 70px;'>正确! </span>","null","","","","","","","","","","","","","","","","","","","","","","","feedback_test"
"","","","","","psychophysics","399","633950","0.0-13.0-2.0-1.0-0.1-0.119","303","","j","","","","","","","","","","","","","key","j","16.668808510638478","768","428","j","true","img/S_ambi40.png","坏人","simultaneous",""
"","","","","","html-keyboard-response","400","634266","0.0-13.0-2.0-1.0-0.1-1.119","null","<span style='color:GreenYellow; font-size: 70px;'>正确! </span>","null","","","","","","","","","","","","","","","","","","","","","","","feedback_test"
"","","","","","html-keyboard-response","401","656970","0.0-13.0-2.0-1.0-1.1","22702","<style>.context{color:white; font-size: 35px; line-height:40px}</style>                              <div><p class='context'>您正确回答了92% 的试次。</p><p class='context'>您的平均反应时为573毫秒。</p><p class='context'>请按任意键进入休息</p></div>"," ","","","","","","","","","","","","","","","","","","","","","","",""
"","","","","","html-button-response","402","804462","0.0-13.0-2.0-1.0-2.1","147489","
                      <p>您当前还剩余2组实验</p>
                      <p>现在是休息时间，当您结束休息后，您可以点击 结束休息 按钮 继续</p>
                      <p>建议休息时间还剩余<span id=""iii"">60</span>秒</p>","0","","","","","","","","","","","","","","","","","","","","","","",""
"","","","","","psychophysics","403","806141","0.0-13.0-2.0-1.0-0.2-0.120","674","","f","","","","","","","","","","","","","key","f","6.944435684647531","768","428","f","true","img/T_ambi40.png","坏人","simultaneous",""
"","","","","","html-keyboard-response","404","806449","0.0-13.0-2.0-1.0-0.2-1.120","null","<span style='color:GreenYellow; font-size: 70px;'>正确! </span>","null","","","","","","","","","","","","","","","","","","","","","","","feedback_test"
"","","","","","psychophysics","405","808024","0.0-13.0-2.0-1.0-0.2-0.121","568","","j","","","","","","","","","","","","","key","j","6.94392888888872","768","428","f","false","img/T_ambi40.png","坏人","simultaneous",""
"","","","","","html-keyboard-response","406","808328","0.0-13.0-2.0-1.0-0.2-1.121","null","<span style='color:red; font-size: 70px;'>错误! </span>","null","","","","","","","","","","","","","","","","","","","","","","","feedback_test"
"","","","","","psychophysics","407","809840","0.0-13.0-2.0-1.0-0.2-0.122","505","","f","","","","","","","","","","","","","key","f","6.945226851851826","768","428","f","true","img/C_ambi40.png","好人","simultaneous",""
"","","","","","html-keyboard-response","408","810144","0.0-13.0-2.0-1.0-0.2-1.122","null","<span style='color:GreenYellow; font-size: 70px;'>正确! </span>","null","","","","","","","","","","","","","","","","","","","","","","","feedback_test"
"","","","","","psychophysics","409","811838","0.0-13.0-2.0-1.0-0.2-0.123","687","","j","","","","","","","","","","","","","key","j","6.944280991735791","768","428","j","true","img/T_ambi40.png","常人","simultaneous",""
"","","","","","html-keyboard-response","410","812148","0.0-13.0-2.0-1.0-0.2-1.123","null","<span style='color:GreenYellow; font-size: 70px;'>正确! </span>","null","","","","","","","","","","","","","","","","","","","","","","","feedback_test"
"","","","","","psychophysics","411","813922","0.0-13.0-2.0-1.0-0.2-0.124","767","","j","","","","","","","","","","","","","key","j","6.94560236220457","768","428","j","true","img/S_ambi40.png","好人","simultaneous",""
"","","","","","html-keyboard-response","412","814228","0.0-13.0-2.0-1.0-0.2-1.124","null","<span style='color:GreenYellow; font-size: 70px;'>正确! </span>","null","","","","","","","","","","","","","","","","","","","","","","","feedback_test"
"","","","","","psychophysics","413","816031","0.0-13.0-2.0-1.0-0.2-0.125","796","","j","","","","","","","","","","","","","key","j","6.9443953488371335","768","428","j","true","img/S_ambi40.png","坏人","simultaneous",""
"","","","","","html-keyboard-response","414","816352","0.0-13.0-2.0-1.0-0.2-1.125","null","<span style='color:GreenYellow; font-size: 70px;'>正确! </span>","null","","","","","","","","","","","","","","","","","","","","","","","feedback_test"
"","","","","","psychophysics","415","818134","0.0-13.0-2.0-1.0-0.2-0.126","776","","j","","","","","","","","","","","","","key","j","6.944160784313492","768","428","j","true","img/C_ambi40.png","坏人","simultaneous",""
"","","","","","html-keyboard-response","416","818445","0.0-13.0-2.0-1.0-0.2-1.126","null","<span style='color:GreenYellow; font-size: 70px;'>正确! </span>","null","","","","","","","","","","","","","","","","","","","","","","","feedback_test"
"","","","","","psychophysics","417","820024","0.0-13.0-2.0-1.0-0.2-0.127","573","","f","","","","","","","","","","","","","key","f","6.9438761061946535","768","428","f","true","img/C_ambi40.png","好人","simultaneous",""
"","","","","","html-keyboard-response","418","820330","0.0-13.0-2.0-1.0-0.2-1.127","null","<span style='color:GreenYellow; font-size: 70px;'>正确! </span>","null","","","","","","","","","","","","","","","","","","","","","","","feedback_test"
"","","","","","psychophysics","419","822127","0.0-13.0-2.0-1.0-0.2-0.128","790","","j","","","","","","","","","","","","","key","j","6.94463424124494","768","428","j","true","img/T_ambi40.png","好人","simultaneous",""
"","","","","","html-keyboard-response","420","822431","0.0-13.0-2.0-1.0-0.2-1.128","null","<span style='color:GreenYellow; font-size: 70px;'>正确! </span>","null","","","","","","","","","","","","","","","","","","","","","","","feedback_test"
"","","","","","psychophysics","421","824059","0.0-13.0-2.0-1.0-0.2-0.129","622","","f","","","","","","","","","","","","","key","f","6.94433047210292","768","428","f","true","img/S_ambi40.png","常人","simultaneous",""
"","","","","","html-keyboard-response","422","824365","0.0-13.0-2.0-1.0-0.2-1.129","null","<span style='color:GreenYellow; font-size: 70px;'>正确! </span>","null","","","","","","","","","","","","","","","","","","","","","","","feedback_test"
"","","","","","psychophysics","423","825933","0.0-13.0-2.0-1.0-0.2-0.130","561","","j","","","","","","","","","","","","","key","j","6.9444241071427575","768","428","j","true","img/C_ambi40.png","常人","simultaneous",""
"","","","","","html-keyboard-response","424","826236","0.0-13.0-2.0-1.0-0.2-1.130","null","<span style='color:GreenYellow; font-size: 70px;'>正确! </span>","null","","","","","","","","","","","","","","","","","","","","","","","feedback_test"
"","","","","","psychophysics","425","827998","0.0-13.0-2.0-1.0-0.2-0.131","755","","f","","","","","","","","","","","","","key","f","6.94438095238117","768","428","f","true","img/S_ambi40.png","常人","simultaneous",""
"","","","","","html-keyboard-response","426","828302","0.0-13.0-2.0-1.0-0.2-1.131","null","<span style='color:GreenYellow; font-size: 70px;'>正确! </span>","null","","","","","","","","","","","","","","","","","","","","","","","feedback_test"
"","","","","","psychophysics","427","829870","0.0-13.0-2.0-1.0-0.2-0.132","567","","f","","","","","","","","","","","","","key","f","6.944165178571503","768","428","f","true","img/C_ambi40.png","好人","simultaneous",""
"","","","","","html-keyboard-response","428","830174","0.0-13.0-2.0-1.0-0.2-1.132","null","<span style='color:GreenYellow; font-size: 70px;'>正确! </span>","null","","","","","","","","","","","","","","","","","","","","","","","feedback_test"
"","","","","","psychophysics","429","831995","0.0-13.0-2.0-1.0-0.2-0.133","814","","j","","","","","","","","","","","","","key","j","6.944329501915602","768","428","j","true","img/S_ambi40.png","好人","simultaneous",""
"","","","","","html-keyboard-response","430","832309","0.0-13.0-2.0-1.0-0.2-1.133","null","<span style='color:GreenYellow; font-size: 70px;'>正确! </span>","null","","","","","","","","","","","","","","","","","","","","","","","feedback_test"
"","","","","","psychophysics","431","833865","0.0-13.0-2.0-1.0-0.2-0.134","549","","f","","","","","","","","","","","","","key","f","6.944695067264123","768","428","f","true","img/T_ambi40.png","坏人","simultaneous",""
