"success","timeout","failed_images","failed_audio","failed_video","trial_type","trial_index","time_elapsed","internal_node_id","rt","stimulus","response","value","item_width_mm","item_height_mm","item_width_px","px2mm","view_dist_mm","item_width_deg","px2deg","scale_factor","win_width_deg","win_height_deg","view_history","response_type","key_press","avg_frame_time","center_x","center_y","correct_response","correct","Image","word","condition","screen_id"
"true","false","[]","[]","[]","preload","0","999","0.0-0.0","","","","","","","","","","","","","","","","","","","","","","","","","",""
"","","","","","html-keyboard-response","1","4190","0.0-1.0","3189","
     <p>您好，欢迎参加本次实验。</p>
     <p>为充分保障您的权利，请确保您已经知晓并同意《参与实验同意书》以及《数据公开知情同意书》。</p>
     <p>如果您未见过上述内容，请咨询实验员。</p>
     <p>如果您选择继续实验，则表示您已经清楚两份知情同意书的内容并同意。</p>
     <p> <div style = ""color: green""><按任意键至下页></div> </p>
     "," ","","","","","","","","","","","","","","","","","","","","","","",""
"","","","","","html-keyboard-response","2","5132","0.0-2.0","942","
     <p>本实验首先需要您填写一些基本个人信息。</p>
     <p> <div style = ""color: green""><按任意键至下页></div></p>
     "," ","","","","","","","","","","","","","","","","","","","","","","",""
"","","","","","call-function","3","5133","0.0-3.0-0.0","","","","","","","","","","","","","","","","","","","","","","","","","",""
"","","","","","survey-html-form","4","10415","0.0-3.0-1.0","5267","","{""Q0"":""25""}","","","","","","","","","","","","","","","","","","","","","","",""
"","","","","","html-button-response","5","11302","0.0-3.0-2.0","885","<p style = 'color : white'>您的性别</p>","1","","","","","","","","","","","","","","","","","","","","","","",""
"","","","","","survey-html-form","6","29014","0.0-3.0-3.0","17710","","{""Q0"":""2000""}","","","","","","","","","","","","","","","","","","","","","","",""
"","","","","","survey-html-form","7","31894","0.0-3.0-4.0","2879","","{""Q0"":""5""}","","","","","","","","","","","","","","","","","","","","","","",""
"","","","","","virtual-chinrest","8","101198","0.0-4.0","69302","","","","85.6","53.98","464.37551291209576","5.425861256130804","526.92","9.287510258241914","50","0.8183032684411427","25.6","11.5","","","","","","","","","","","",""
"true","","","","","fullscreen","9","103835","0.0-5.0","","","","","","","","","","","","","","","","","","","","","","","","","",""
"","","","","","instructions","10","145829","0.0-6.0","41993","","","","","","","","","","","","","","[{""page_index"":0,""viewing_time"":6664},{""page_index"":1,""viewing_time"":29968},{""page_index"":2,""viewing_time"":2920},{""page_index"":3,""viewing_time"":2440}]","","","","","","","","","","",""
"","","","","","psychophysics","11","148356","0.0-7.0-0.0-0.0","1365","","j","","","","","","","","","","","","","key","j","16.668493333333366","640","356","j","true","img/T_ambi40.png","常人","prac_image_first",""
"","","","","","html-keyboard-response","12","148675","0.0-7.0-0.0-1.0","null","<span style='color:GreenYellow; font-size: 70px;'>正确! </span>","null","","","","","","","","","","","","","","","","","","","","","","","feedback_test"
"","","","","","psychophysics","13","150522","0.0-7.0-0.0-0.1","695","","f","","","","","","","","","","","","","key","f","16.66700000000008","640","356","f","true","img/T_ambi40.png","坏人","prac_image_first",""
"","","","","","html-keyboard-response","14","150830","0.0-7.0-0.0-1.1","null","<span style='color:GreenYellow; font-size: 70px;'>正确! </span>","null","","","","","","","","","","","","","","","","","","","","","","","feedback_test"
"","","","","","psychophysics","15","152749","0.0-7.0-0.0-0.2","767","","j","","","","","","","","","","","","","key","j","16.669736842105316","640","356","j","true","img/C_ambi40.png","好人","prac_image_first",""
"","","","","","html-keyboard-response","16","153063","0.0-7.0-0.0-1.2","null","<span style='color:GreenYellow; font-size: 70px;'>正确! </span>","null","","","","","","","","","","","","","","","","","","","","","","","feedback_test"
"","","","","","psychophysics","17","155214","0.0-7.0-0.0-0.3","998","","f","","","","","","","","","","","","","key","f","16.667671874999996","640","356","f","true","img/T_ambi40.png","好人","prac_image_first",""
"","","","","","html-keyboard-response","18","155531","0.0-7.0-0.0-1.3","null","<span style='color:GreenYellow; font-size: 70px;'>正确! </span>","null","","","","","","","","","","","","","","","","","","","","","","","feedback_test"
"","","","","","psychophysics","19","157287","0.0-7.0-0.0-0.4","604","","f","","","","","","","","","","","","","key","f","16.6670288461537","640","356","j","false","img/T_ambi40.png","常人","prac_image_first",""
"","","","","","html-keyboard-response","20","157598","0.0-7.0-0.0-1.4","null","<span style='color:red; font-size: 70px;'>错误! </span>","null","","","","","","","","","","","","","","","","","","","","","","","feedback_test"
"","","","","","psychophysics","21","159739","0.0-7.0-0.0-0.5","988","","j","","","","","","","","","","","","","key","j","16.670559055118055","640","356","f","false","img/C_ambi40.png","常人","prac_image_first",""
"","","","","","html-keyboard-response","22","160045","0.0-7.0-0.0-1.5","null","<span style='color:red; font-size: 70px;'>错误! </span>","null","","","","","","","","","","","","","","","","","","","","","","","feedback_test"
"","","","","","psychophysics","23","161766","0.0-7.0-0.0-0.6","568","","j","","","","","","","","","","","","","key","j","16.669284313725417","640","356","j","true","img/C_ambi40.png","好人","prac_image_first",""
"","","","","","html-keyboard-response","24","162076","0.0-7.0-0.0-1.6","null","<span style='color:GreenYellow; font-size: 70px;'>正确! </span>","null","","","","","","","","","","","","","","","","","","","","","","","feedback_test"
"","","","","","psychophysics","25","163727","0.0-7.0-0.0-0.7","499","","f","","","","","","","","","","","","","key","f","16.66882653061208","640","356","f","true","img/S_ambi40.png","好人","prac_image_first",""
"","","","","","html-keyboard-response","26","164044","0.0-7.0-0.0-1.7","null","<span style='color:GreenYellow; font-size: 70px;'>正确! </span>","null","","","","","","","","","","","","","","","","","","","","","","","feedback_test"
"","","","","","psychophysics","27","165890","0.0-7.0-0.0-0.8","695","","j","","","","","","","","","","","","","key","j","16.66996330275214","640","356","j","true","img/S_ambi40.png","坏人","prac_image_first",""
"","","","","","html-keyboard-response","28","166201","0.0-7.0-0.0-1.8","null","<span style='color:GreenYellow; font-size: 70px;'>正确! </span>","null","","","","","","","","","","","","","","","","","","","","","","","feedback_test"
"","","","","","psychophysics","29","167917","0.0-7.0-0.0-0.9","565","","f","","","","","","","","","","","","","key","f","16.66953921568604","640","356","f","true","img/S_ambi40.png","常人","prac_image_first",""
"","","","","","html-keyboard-response","30","168229","0.0-7.0-0.0-1.9","null","<span style='color:GreenYellow; font-size: 70px;'>正确! </span>","null","","","","","","","","","","","","","","","","","","","","","","","feedback_test"
"","","","","","psychophysics","31","169949","0.0-7.0-0.0-0.10","568","","f","","","","","","","","","","","","","key","f","16.669617647058605","640","356","j","false","img/S_ambi40.png","坏人","prac_image_first",""
"","","","","","html-keyboard-response","32","170260","0.0-7.0-0.0-1.10","null","<span style='color:red; font-size: 70px;'>错误! </span>","null","","","","","","","","","","","","","","","","","","","","","","","feedback_test"
"","","","","","psychophysics","33","172191","0.0-7.0-0.0-0.11","780","","f","","","","","","","","","","","","","key","f","16.66976315789476","640","356","f","true","img/C_ambi40.png","坏人","prac_image_first",""
"","","","","","html-keyboard-response","34","172498","0.0-7.0-0.0-1.11","null","<span style='color:GreenYellow; font-size: 70px;'>正确! </span>","null","","","","","","","","","","","","","","","","","","","","","","","feedback_test"
"","","","","","psychophysics","35","174469","0.0-7.0-0.0-0.12","818","","f","","","","","","","","","","","","","key","f","16.671119658119725","640","356","f","true","img/C_ambi40.png","常人","prac_image_first",""
"","","","","","html-keyboard-response","36","174778","0.0-7.0-0.0-1.12","null","<span style='color:GreenYellow; font-size: 70px;'>正确! </span>","null","","","","","","","","","","","","","","","","","","","","","","","feedback_test"
"","","","","","psychophysics","37","176562","0.0-7.0-0.0-0.13","631","","f","","","","","","","","","","","","","key","f","16.66698113207558","640","356","f","true","img/C_ambi40.png","坏人","prac_image_first",""
"","","","","","html-keyboard-response","38","176872","0.0-7.0-0.0-1.13","null","<span style='color:GreenYellow; font-size: 70px;'>正确! </span>","null","","","","","","","","","","","","","","","","","","","","","","","feedback_test"
"","","","","","psychophysics","39","178744","0.0-7.0-0.0-0.14","716","","f","","","","","","","","","","","","","key","f","16.66918918918918","640","356","f","true","img/T_ambi40.png","好人","prac_image_first",""
"","","","","","html-keyboard-response","40","179054","0.0-7.0-0.0-1.14","null","<span style='color:GreenYellow; font-size: 70px;'>正确! </span>","null","","","","","","","","","","","","","","","","","","","","","","","feedback_test"
"","","","","","psychophysics","41","180951","0.0-7.0-0.0-0.15","745","","f","","","","","","","","","","","","","key","f","16.668911504424774","640","356","j","false","img/C_ambi40.png","好人","prac_image_first",""
"","","","","","html-keyboard-response","42","181266","0.0-7.0-0.0-1.15","null","<span style='color:red; font-size: 70px;'>错误! </span>","null","","","","","","","","","","","","","","","","","","","","","","","feedback_test"
"","","","","","psychophysics","43","183445","0.0-7.0-0.0-0.16","1027","","j","","","","","","","","","","","","","key","j","16.669031007751883","640","356","f","false","img/S_ambi40.png","常人","prac_image_first",""
"","","","","","html-keyboard-response","44","183751","0.0-7.0-0.0-1.16","null","<span style='color:red; font-size: 70px;'>错误! </span>","null","","","","","","","","","","","","","","","","","","","","","","","feedback_test"
"","","","","","psychophysics","45","186406","0.0-7.0-0.0-0.17","null","","null","","","","","","","","","","","","","key","null","16.669189873417654","640","356","j","false","img/C_ambi40.png","好人","prac_image_first",""
"","","","","","html-keyboard-response","46","186708","0.0-7.0-0.0-1.17","null","<span class='add_' style='color:yellow; font-size: 70px;'> 太慢! </span>","null","","","","","","","","","","","","","","","","","","","","","","","feedback_test"
"","","","","","psychophysics","47","188936","0.0-7.0-0.0-0.18","1077","","f","","","","","","","","","","","","","key","f","16.669593984962493","640","356","j","false","img/S_ambi40.png","坏人","prac_image_first",""
"","","","","","html-keyboard-response","48","189240","0.0-7.0-0.0-1.18","null","<span style='color:red; font-size: 70px;'>错误! </span>","null","","","","","","","","","","","","","","","","","","","","","","","feedback_test"
"","","","","","psychophysics","49","191556","0.0-7.0-0.0-0.19","1164","","j","","","","","","","","","","","","","key","j","16.669572463767995","640","356","j","true","img/T_ambi40.png","常人","prac_image_first",""
"","","","","","html-keyboard-response","50","191858","0.0-7.0-0.0-1.19","null","<span style='color:GreenYellow; font-size: 70px;'>正确! </span>","null","","","","","","","","","","","","","","","","","","","","","","","feedback_test"
"","","","","","psychophysics","51","193652","0.0-7.0-0.0-0.20","643","","f","","","","","","","","","","","","","key","f","16.669607476635658","640","356","j","false","img/T_ambi40.png","常人","prac_image_first",""
"","","","","","html-keyboard-response","52","193961","0.0-7.0-0.0-1.20","null","<span style='color:red; font-size: 70px;'>错误! </span>","null","","","","","","","","","","","","","","","","","","","","","","","feedback_test"
"","","","","","psychophysics","53","195823","0.0-7.0-0.0-0.21","711","","f","","","","","","","","","","","","","key","f","16.669495495495614","640","356","f","true","img/T_ambi40.png","坏人","prac_image_first",""
"","","","","","html-keyboard-response","54","196135","0.0-7.0-0.0-1.21","null","<span style='color:GreenYellow; font-size: 70px;'>正确! </span>","null","","","","","","","","","","","","","","","","","","","","","","","feedback_test"
"","","","","","psychophysics","55","197893","0.0-7.0-0.0-0.22","607","","f","","","","","","","","","","","","","key","f","16.66946153846164","640","356","f","true","img/S_ambi40.png","好人","prac_image_first",""
"","","","","","html-keyboard-response","56","198203","0.0-7.0-0.0-1.22","null","<span style='color:GreenYellow; font-size: 70px;'>正确! </span>","null","","","","","","","","","","","","","","","","","","","","","","","feedback_test"
"","","","","","psychophysics","57","200059","0.0-7.0-0.0-0.23","703","","f","","","","","","","","","","","","","key","f","16.667463636363657","640","356","j","false","img/S_ambi40.png","坏人","prac_image_first",""
"","","","","","html-keyboard-response","58","200364","0.0-7.0-0.0-1.23","null","<span style='color:red; font-size: 70px;'>错误! </span>","null","","","","","","","","","","","","","","","","","","","","","","","feedback_test"
"","","","","","html-keyboard-response","59","206533","0.0-8.0","6167","<style>.context{color:white; font-size: 35px; line-height:40px}</style>                              <div><p class='context'>您正确回答了63% 的试次。</p><p class='context'>您的平均反应时为772毫秒。</p><p class='context'>恭喜您完成这一阶段的练习。按任意键进入<span style='color: yellow;'>先文字后图形条件</span>的练习。</p></div>"," ","","","","","","","","","","","","","","","","","","","","","","",""
"","","","","","psychophysics","60","209097","0.0-9.0-0.0-0.0","1406","","j","","","","","","","","","","","","","key","j","16.669684210526228","640","356","j","true","img/C_ambi40.png","好人","prac_word_first",""
"","","","","","html-keyboard-response","61","209402","0.0-9.0-0.0-1.0","null","<span style='color:GreenYellow; font-size: 70px;'>正确! </span>","null","","","","","","","","","","","","","","","","","","","","","","","feedback_test"
"","","","","","psychophysics","62","211241","0.0-9.0-0.0-0.1","687","","f","","","","","","","","","","","","","key","f","16.669348623853235","640","356","f","true","img/C_ambi40.png","坏人","prac_word_first",""
"","","","","","html-keyboard-response","63","211547","0.0-9.0-0.0-1.1","null","<span style='color:GreenYellow; font-size: 70px;'>正确! </span>","null","","","","","","","","","","","","","","","","","","","","","","","feedback_test"
"","","","","","psychophysics","64","213655","0.0-9.0-0.0-0.2","955","","j","","","","","","","","","","","","","key","j","16.669293650793694","640","356","j","true","img/S_ambi40.png","坏人","prac_word_first",""
"","","","","","html-keyboard-response","65","213962","0.0-9.0-0.0-1.2","null","<span style='color:GreenYellow; font-size: 70px;'>正确! </span>","null","","","","","","","","","","","","","","","","","","","","","","","feedback_test"
"","","","","","psychophysics","66","215645","0.0-9.0-0.0-0.3","531","","f","","","","","","","","","","","","","key","f","16.669599999999917","640","356","j","false","img/S_ambi40.png","坏人","prac_word_first",""
"","","","","","html-keyboard-response","67","215949","0.0-9.0-0.0-1.3","null","<span style='color:red; font-size: 70px;'>错误! </span>","null","","","","","","","","","","","","","","","","","","","","","","","feedback_test"
"","","","","","psychophysics","68","217734","0.0-9.0-0.0-0.4","633","","f","","","","","","","","","","","","","key","f","16.538819047619057","640","356","j","false","img/T_ambi40.png","常人","prac_word_first",""
"","","","","","html-keyboard-response","69","218040","0.0-9.0-0.0-1.4","null","<span style='color:red; font-size: 70px;'>错误! </span>","null","","","","","","","","","","","","","","","","","","","","","","","feedback_test"
"","","","","","psychophysics","70","219899","0.0-9.0-0.0-0.5","707","","f","","","","","","","","","","","","","key","f","16.668581818181767","640","356","f","true","img/T_ambi40.png","好人","prac_word_first",""
"","","","","","html-keyboard-response","71","220206","0.0-9.0-0.0-1.5","null","<span style='color:GreenYellow; font-size: 70px;'>正确! </span>","null","","","","","","","","","","","","","","","","","","","","","","","feedback_test"
"","","","","","psychophysics","72","222118","0.0-9.0-0.0-0.6","761","","f","","","","","","","","","","","","","key","f","16.669460176991194","640","356","j","false","img/T_ambi40.png","常人","prac_word_first",""
"","","","","","html-keyboard-response","73","222421","0.0-9.0-0.0-1.6","null","<span style='color:red; font-size: 70px;'>错误! </span>","null","","","","","","","","","","","","","","","","","","","","","","","feedback_test"
"","","","","","psychophysics","74","224192","0.0-9.0-0.0-0.7","617","","f","","","","","","","","","","","","","key","f","16.668800000000157","640","356","f","true","img/C_ambi40.png","常人","prac_word_first",""
"","","","","","html-keyboard-response","75","224499","0.0-9.0-0.0-1.7","null","<span style='color:GreenYellow; font-size: 70px;'>正确! </span>","null","","","","","","","","","","","","","","","","","","","","","","","feedback_test"
"","","","","","psychophysics","76","226339","0.0-9.0-0.0-0.8","687","","f","","","","","","","","","","","","","key","f","16.668972727272724","640","356","f","true","img/T_ambi40.png","坏人","prac_word_first",""
"","","","","","html-keyboard-response","77","226654","0.0-9.0-0.0-1.8","null","<span style='color:GreenYellow; font-size: 70px;'>正确! </span>","null","","","","","","","","","","","","","","","","","","","","","","","feedback_test"
"","","","","","psychophysics","78","228700","0.0-9.0-0.0-0.9","895","","f","","","","","","","","","","","","","key","f","16.669661157024873","640","356","f","true","img/S_ambi40.png","常人","prac_word_first",""
"","","","","","html-keyboard-response","79","229007","0.0-9.0-0.0-1.9","null","<span style='color:GreenYellow; font-size: 70px;'>正确! </span>","null","","","","","","","","","","","","","","","","","","","","","","","feedback_test"
"","","","","","psychophysics","80","231217","0.0-9.0-0.0-0.10","1059","","f","","","","","","","","","","","","","key","f","16.669374045801487","640","356","f","true","img/S_ambi40.png","好人","prac_word_first",""
"","","","","","html-keyboard-response","81","231523","0.0-9.0-0.0-1.10","null","<span style='color:GreenYellow; font-size: 70px;'>正确! </span>","null","","","","","","","","","","","","","","","","","","","","","","","feedback_test"
"","","","","","psychophysics","82","233359","0.0-9.0-0.0-0.11","685","","f","","","","","","","","","","","","","key","f","16.66900000000002","640","356","j","false","img/C_ambi40.png","好人","prac_word_first",""
"","","","","","html-keyboard-response","83","233661","0.0-9.0-0.0-1.11","null","<span style='color:red; font-size: 70px;'>错误! </span>","null","","","","","","","","","","","","","","","","","","","","","","","feedback_test"
"","","","","","psychophysics","84","235711","0.0-9.0-0.0-0.12","898","","f","","","","","","","","","","","","","key","f","16.669311475409977","640","356","f","true","img/T_ambi40.png","坏人","prac_word_first",""
"","","","","","html-keyboard-response","85","236019","0.0-9.0-0.0-1.12","null","<span style='color:GreenYellow; font-size: 70px;'>正确! </span>","null","","","","","","","","","","","","","","","","","","","","","","","feedback_test"
"","","","","","psychophysics","86","238050","0.0-9.0-0.0-0.13","879","","j","","","","","","","","","","","","","key","j","16.55579999999997","640","356","j","true","img/C_ambi40.png","好人","prac_word_first",""
"","","","","","html-keyboard-response","87","238361","0.0-9.0-0.0-1.13","null","<span style='color:GreenYellow; font-size: 70px;'>正确! </span>","null","","","","","","","","","","","","","","","","","","","","","","","feedback_test"
"","","","","","psychophysics","88","239959","0.0-9.0-0.0-0.14","446","","f","","","","","","","","","","","","","key","f","16.665989473684213","640","356","j","false","img/T_ambi40.png","常人","prac_word_first",""
"","","","","","html-keyboard-response","89","240264","0.0-9.0-0.0-1.14","null","<span style='color:red; font-size: 70px;'>错误! </span>","null","","","","","","","","","","","","","","","","","","","","","","","feedback_test"
"","","","","","psychophysics","90","241894","0.0-9.0-0.0-0.15","478","","f","","","","","","","","","","","","","key","f","16.669773195876523","640","356","j","false","img/T_ambi40.png","常人","prac_word_first",""
"","","","","","html-keyboard-response","91","242197","0.0-9.0-0.0-1.15","null","<span style='color:red; font-size: 70px;'>错误! </span>","null","","","","","","","","","","","","","","","","","","","","","","","feedback_test"
"","","","","","psychophysics","92","244057","0.0-9.0-0.0-0.16","707","","f","","","","","","","","","","","","","key","f","16.66737837837836","640","356","f","true","img/C_ambi40.png","坏人","prac_word_first",""
"","","","","","html-keyboard-response","93","244372","0.0-9.0-0.0-1.16","null","<span style='color:GreenYellow; font-size: 70px;'>正确! </span>","null","","","","","","","","","","","","","","","","","","","","","","","feedback_test"
"","","","","","psychophysics","94","246220","0.0-9.0-0.0-0.17","696","","f","","","","","","","","","","","","","key","f","16.6696055045871","640","356","f","true","img/T_ambi40.png","好人","prac_word_first",""
"","","","","","html-keyboard-response","95","246532","0.0-9.0-0.0-1.17","null","<span style='color:GreenYellow; font-size: 70px;'>正确! </span>","null","","","","","","","","","","","","","","","","","","","","","","","feedback_test"
"","","","","","psychophysics","96","248227","0.0-9.0-0.0-0.18","542","","f","","","","","","","","","","","","","key","f","16.66662376237622","640","356","j","false","img/C_ambi40.png","好人","prac_word_first",""
"","","","","","html-keyboard-response","97","248531","0.0-9.0-0.0-1.18","null","<span style='color:red; font-size: 70px;'>错误! </span>","null","","","","","","","","","","","","","","","","","","","","","","","feedback_test"
"","","","","","psychophysics","98","250594","0.0-9.0-0.0-0.19","910","","j","","","","","","","","","","","","","key","j","16.667999999999918","640","356","j","true","img/S_ambi40.png","坏人","prac_word_first",""
"","","","","","html-keyboard-response","99","250897","0.0-9.0-0.0-1.19","null","<span style='color:GreenYellow; font-size: 70px;'>正确! </span>","null","","","","","","","","","","","","","","","","","","","","","","","feedback_test"
"","","","","","psychophysics","100","252906","0.0-9.0-0.0-0.20","857","","f","","","","","","","","","","","","","key","f","16.669310924369633","640","356","f","true","img/S_ambi40.png","常人","prac_word_first",""
"","","","","","html-keyboard-response","101","253217","0.0-9.0-0.0-1.20","null","<span style='color:GreenYellow; font-size: 70px;'>正确! </span>","null","","","","","","","","","","","","","","","","","","","","","","","feedback_test"
"","","","","","psychophysics","102","254843","0.0-9.0-0.0-0.21","474","","f","","","","","","","","","","","","","key","f","16.67114432989686","640","356","f","true","img/C_ambi40.png","常人","prac_word_first",""
"","","","","","html-keyboard-response","103","255160","0.0-9.0-0.0-1.21","null","<span style='color:GreenYellow; font-size: 70px;'>正确! </span>","null","","","","","","","","","","","","","","","","","","","","","","","feedback_test"
"","","","","","psychophysics","104","257052","0.0-9.0-0.0-0.22","740","","f","","","","","","","","","","","","","key","f","16.66949999999997","640","356","f","true","img/S_ambi40.png","好人","prac_word_first",""
"","","","","","html-keyboard-response","105","257366","0.0-9.0-0.0-1.22","null","<span style='color:GreenYellow; font-size: 70px;'>正确! </span>","null","","","","","","","","","","","","","","","","","","","","","","","feedback_test"
"","","","","","psychophysics","106","258967","0.0-9.0-0.0-0.23","450","","f","","","","","","","","","","","","","key","f","16.66834736842123","640","356","j","false","img/S_ambi40.png","坏人","prac_word_first",""
"","","","","","html-keyboard-response","107","259270","0.0-9.0-0.0-1.23","null","<span style='color:red; font-size: 70px;'>错误! </span>","null","","","","","","","","","","","","","","","","","","","","","","","feedback_test"
"","","","","","html-keyboard-response","108","266105","0.0-10.0","6824","<style>.context{color:white; font-size: 35px; line-height:40px}</style>                              <div><p class='context'>您正确回答了67% 的试次。</p><p class='context'>您的平均反应时为823毫秒。</p><p class='context'>恭喜您完成练习。按任意键进入<span style='color: yellow;'>图形和文字同时呈现条件</span>的练习。</p></div>"," ","","","","","","","","","","","","","","","","","","","","","","",""
"","","","","","psychophysics","109","267998","0.0-11.0-0.0-0.0","886","","f","","","","","","","","","","","","","key","f","16.670256637168155","640","356","f","true","img/C_ambi40.png","常人","prac_simultaneous",""
"","","","","","html-keyboard-response","110","268308","0.0-11.0-0.0-1.0","null","<span style='color:GreenYellow; font-size: 70px;'>正确! </span>","null","","","","","","","","","","","","","","","","","","","","","","","feedback_test"
"","","","","","psychophysics","111","270026","0.0-11.0-0.0-0.1","718","","f","","","","","","","","","","","","","key","f","16.52938235294092","640","356","f","true","img/S_ambi40.png","常人","prac_simultaneous",""
"","","","","","html-keyboard-response","112","270339","0.0-11.0-0.0-1.1","null","<span style='color:GreenYellow; font-size: 70px;'>正确! </span>","null","","","","","","","","","","","","","","","","","","","","","","","feedback_test"
"","","","","","psychophysics","113","272094","0.0-11.0-0.0-0.2","754","","j","","","","","","","","","","","","","key","j","16.66953333333312","640","356","j","true","img/S_ambi40.png","坏人","prac_simultaneous",""
"","","","","","html-keyboard-response","114","272405","0.0-11.0-0.0-1.2","null","<span style='color:GreenYellow; font-size: 70px;'>正确! </span>","null","","","","","","","","","","","","","","","","","","","","","","","feedback_test"
"","","","","","psychophysics","115","274214","0.0-11.0-0.0-0.3","807","","f","","","","","","","","","","","","","key","f","16.670379629629746","640","356","j","false","img/T_ambi40.png","常人","prac_simultaneous",""
"","","","","","html-keyboard-response","116","274521","0.0-11.0-0.0-1.3","null","<span style='color:red; font-size: 70px;'>错误! </span>","null","","","","","","","","","","","","","","","","","","","","","","","feedback_test"
"","","","","","psychophysics","117","276322","0.0-11.0-0.0-0.4","799","","j","","","","","","","","","","","","","key","j","16.6696448598131","640","356","j","true","img/T_ambi40.png","常人","prac_simultaneous",""
"","","","","","html-keyboard-response","118","276633","0.0-11.0-0.0-1.4","null","<span style='color:GreenYellow; font-size: 70px;'>正确! </span>","null","","","","","","","","","","","","","","","","","","","","","","","feedback_test"
"","","","","","psychophysics","119","278415","0.0-11.0-0.0-0.5","781","","f","","","","","","","","","","","","","key","f","16.66727358490593","640","356","f","true","img/T_ambi40.png","好人","prac_simultaneous",""
"","","","","","html-keyboard-response","120","278725","0.0-11.0-0.0-1.5","null","<span style='color:GreenYellow; font-size: 70px;'>正确! </span>","null","","","","","","","","","","","","","","","","","","","","","","","feedback_test"
"","","","","","psychophysics","121","280457","0.0-11.0-0.0-0.6","730","","f","","","","","","","","","","","","","key","f","16.54559803921581","640","356","f","true","img/C_ambi40.png","坏人","prac_simultaneous",""
"","","","","","html-keyboard-response","122","280764","0.0-11.0-0.0-1.6","null","<span style='color:GreenYellow; font-size: 70px;'>正确! </span>","null","","","","","","","","","","","","","","","","","","","","","","","feedback_test"
"","","","","","psychophysics","123","282436","0.0-11.0-0.0-0.7","670","","f","","","","","","","","","","","","","key","f","16.669121212121382","640","356","f","true","img/T_ambi40.png","坏人","prac_simultaneous",""
"","","","","","html-keyboard-response","124","282750","0.0-11.0-0.0-1.7","null","<span style='color:GreenYellow; font-size: 70px;'>正确! </span>","null","","","","","","","","","","","","","","","","","","","","","","","feedback_test"
"","","","","","psychophysics","125","284683","0.0-11.0-0.0-0.8","931","","j","","","","","","","","","","","","","key","j","16.66778260869551","640","356","j","true","img/S_ambi40.png","坏人","prac_simultaneous",""
"","","","","","html-keyboard-response","126","284999","0.0-11.0-0.0-1.8","null","<span style='color:GreenYellow; font-size: 70px;'>正确! </span>","null","","","","","","","","","","","","","","","","","","","","","","","feedback_test"
"","","","","","psychophysics","127","286701","0.0-11.0-0.0-0.9","699","","j","","","","","","","","","","","","","key","j","16.669247524752304","640","356","j","true","img/C_ambi40.png","好人","prac_simultaneous",""
"","","","","","html-keyboard-response","128","287017","0.0-11.0-0.0-1.9","null","<span style='color:GreenYellow; font-size: 70px;'>正确! </span>","null","","","","","","","","","","","","","","","","","","","","","","","feedback_test"
"","","","","","psychophysics","129","288665","0.0-11.0-0.0-0.10","646","","f","","","","","","","","","","","","","key","f","16.67179591836745","640","356","f","true","img/S_ambi40.png","好人","prac_simultaneous",""
"","","","","","html-keyboard-response","130","288974","0.0-11.0-0.0-1.10","null","<span style='color:GreenYellow; font-size: 70px;'>正确! </span>","null","","","","","","","","","","","","","","","","","","","","","","","feedback_test"
"","","","","","psychophysics","131","291008","0.0-11.0-0.0-0.11","1033","","j","","","","","","","","","","","","","key","j","16.669272727272876","640","356","j","true","img/C_ambi40.png","好人","prac_simultaneous",""
"","","","","","html-keyboard-response","132","291311","0.0-11.0-0.0-1.11","null","<span style='color:GreenYellow; font-size: 70px;'>正确! </span>","null","","","","","","","","","","","","","","","","","","","","","","","feedback_test"
"","","","","","psychophysics","133","293002","0.0-11.0-0.0-0.12","689","","f","","","","","","","","","","","","","key","f","16.530989999999875","640","356","j","false","img/T_ambi40.png","常人","prac_simultaneous",""
"","","","","","html-keyboard-response","134","293307","0.0-11.0-0.0-1.12","null","<span style='color:red; font-size: 70px;'>错误! </span>","null","","","","","","","","","","","","","","","","","","","","","","","feedback_test"
"","","","","","psychophysics","135","294933","0.0-11.0-0.0-0.13","624","","j","","","","","","","","","","","","","key","j","16.669092783505175","640","356","j","true","img/T_ambi40.png","常人","prac_simultaneous",""
"","","","","","html-keyboard-response","136","295248","0.0-11.0-0.0-1.13","null","<span style='color:GreenYellow; font-size: 70px;'>正确! </span>","null","","","","","","","","","","","","","","","","","","","","","","","feedback_test"
"","","","","","psychophysics","137","296955","0.0-11.0-0.0-0.14","706","","f","","","","","","","","","","","","","key","f","16.66913861386123","640","356","f","true","img/T_ambi40.png","好人","prac_simultaneous",""
"","","","","","html-keyboard-response","138","297270","0.0-11.0-0.0-1.14","null","<span style='color:GreenYellow; font-size: 70px;'>正确! </span>","null","","","","","","","","","","","","","","","","","","","","","","","feedback_test"
"","","","","","psychophysics","139","299061","0.0-11.0-0.0-0.15","791","","j","","","","","","","","","","","","","key","j","16.669301886792418","640","356","j","true","img/C_ambi40.png","好人","prac_simultaneous",""
"","","","","","html-keyboard-response","140","299373","0.0-11.0-0.0-1.15","null","<span style='color:GreenYellow; font-size: 70px;'>正确! </span>","null","","","","","","","","","","","","","","","","","","","","","","","feedback_test"
"","","","","","psychophysics","141","300993","0.0-11.0-0.0-0.16","618","","f","","","","","","","","","","","","","key","f","16.669322916666715","640","356","f","true","img/C_ambi40.png","常人","prac_simultaneous",""
"","","","","","html-keyboard-response","142","301301","0.0-11.0-0.0-1.16","null","<span style='color:GreenYellow; font-size: 70px;'>正确! </span>","null","","","","","","","","","","","","","","","","","","","","","","","feedback_test"
"","","","","","psychophysics","143","303410","0.0-11.0-0.0-0.17","1107","","f","","","","","","","","","","","","","key","f","16.66906399999978","640","356","f","true","img/S_ambi40.png","好人","prac_simultaneous",""
"","","","","","html-keyboard-response","144","303722","0.0-11.0-0.0-1.17","null","<span style='color:GreenYellow; font-size: 70px;'>正确! </span>","null","","","","","","","","","","","","","","","","","","","","","","","feedback_test"
"","","","","","psychophysics","145","305656","0.0-11.0-0.0-0.18","932","","f","","","","","","","","","","","","","key","f","16.669260869564933","640","356","j","false","img/S_ambi40.png","坏人","prac_simultaneous",""
"","","","","","html-keyboard-response","146","305962","0.0-11.0-0.0-1.18","null","<span style='color:red; font-size: 70px;'>错误! </span>","null","","","","","","","","","","","","","","","","","","","","","","","feedback_test"
"","","","","","psychophysics","147","307755","0.0-11.0-0.0-0.19","791","","f","","","","","","","","","","","","","key","f","16.552896226415264","640","356","f","true","img/T_ambi40.png","坏人","prac_simultaneous",""
"","","","","","html-keyboard-response","148","308056","0.0-11.0-0.0-1.19","null","<span style='color:GreenYellow; font-size: 70px;'>正确! </span>","null","","","","","","","","","","","","","","","","","","","","","","","feedback_test"
"","","","","","psychophysics","149","309678","0.0-11.0-0.0-0.20","620","","f","","","","","","","","","","","","","key","f","16.669312499999553","640","356","f","true","img/S_ambi40.png","常人","prac_simultaneous",""
"","","","","","html-keyboard-response","150","309994","0.0-11.0-0.0-1.20","null","<span style='color:GreenYellow; font-size: 70px;'>正确! </span>","null","","","","","","","","","","","","","","","","","","","","","","","feedback_test"
"","","","","","psychophysics","151","311706","0.0-11.0-0.0-0.21","709","","f","","","","","","","","","","","","","key","f","16.668264705882358","640","356","f","true","img/C_ambi40.png","坏人","prac_simultaneous",""
"","","","","","html-keyboard-response","152","312008","0.0-11.0-0.0-1.21","null","<span style='color:GreenYellow; font-size: 70px;'>正确! </span>","null","","","","","","","","","","","","","","","","","","","","","","","feedback_test"
"","","","","","psychophysics","153","313716","0.0-11.0-0.0-0.22","707","","j","","","","","","","","","","","","","key","j","16.670450980392143","640","356","j","true","img/C_ambi40.png","好人","prac_simultaneous",""
"","","","","","html-keyboard-response","154","314025","0.0-11.0-0.0-1.22","null","<span style='color:GreenYellow; font-size: 70px;'>正确! </span>","null","","","","","","","","","","","","","","","","","","","","","","","feedback_test"
"","","","","","psychophysics","155","315811","0.0-11.0-0.0-0.23","785","","f","","","","","","","","","","","","","key","f","16.6691792452832","640","356","j","false","img/S_ambi40.png","坏人","prac_simultaneous",""
"","","","","","html-keyboard-response","156","316124","0.0-11.0-0.0-1.23","null","<span style='color:red; font-size: 70px;'>错误! </span>","null","","","","","","","","","","","","","","","","","","","","","","","feedback_test"
"","","","","","html-keyboard-response","157","323710","0.0-12.0","7583","<style>.context{color:white; font-size: 35px; line-height:40px}</style>                              <div><p class='context'>您正确回答了83% 的试次。</p><p class='context'>您的平均反应时为766毫秒。</p><p class='context'>恭喜您完成练习。按任意键进入正式实验。</p><p class='footer' style='font-size: 35px; line-height:40px;'>请在进入正式实验实验之前将您的<span style='color: lightgreen;'>食指</span>放在电脑键盘的相应键位上进行按键。</p>"," ","","","","","","","","","","","","","","","","","","","","","","",""
"","","","","","html-keyboard-response","158","326848","0.0-13.0-0.0-0.0","3134","
      <p>请您将手指放在按键上，准备进入呈现顺序为<span style='color: yellow;'>先图形后文字条件</span>的正式匹配任务</p>
      <p> <div style = ""color: green""><按任意键进入下一阶段的匹配任务></div></p>
      "," ","","","","","","","","","","","","","","","","","","","","","","",""
"","","","","","psychophysics","159","328664","0.0-13.0-0.0-1.0-0.0-0.0","664","","f","","","","","","","","","","","","","key","f","16.57061682242974","640","356","f","true","img/S_ambi40.png","好人","image_first",""
"","","","","","html-keyboard-response","160","328967","0.0-13.0-0.0-1.0-0.0-1.0","null","<span style='color:GreenYellow; font-size: 70px;'>正确! </span>","null","","","","","","","","","","","","","","","","","","","","","","","feedback_test"
"","","","","","psychophysics","161","331018","0.0-13.0-0.0-1.0-0.0-0.1","895","","j","","","","","","","","","","","","","key","j","16.669696721311308","640","356","f","false","img/C_ambi40.png","坏人","image_first",""
"","","","","","html-keyboard-response","162","331322","0.0-13.0-0.0-1.0-0.0-1.1","null","<span style='color:red; font-size: 70px;'>错误! </span>","null","","","","","","","","","","","","","","","","","","","","","","","feedback_test"
"","","","","","psychophysics","163","333049","0.0-13.0-0.0-1.0-0.0-0.2","575","","f","","","","","","","","","","","","","key","f","16.6694999999999","640","356","f","true","img/T_ambi40.png","坏人","image_first",""
"","","","","","html-keyboard-response","164","333355","0.0-13.0-0.0-1.0-0.0-1.2","null","<span style='color:GreenYellow; font-size: 70px;'>正确! </span>","null","","","","","","","","","","","","","","","","","","","","","","","feedback_test"
"","","","","","psychophysics","165","335273","0.0-13.0-0.0-1.0-0.0-0.3","766","","j","","","","","","","","","","","","","key","j","16.66914035087725","640","356","j","true","img/T_ambi40.png","常人","image_first",""
"","","","","","html-keyboard-response","166","335577","0.0-13.0-0.0-1.0-0.0-1.3","null","<span style='color:GreenYellow; font-size: 70px;'>正确! </span>","null","","","","","","","","","","","","","","","","","","","","","","","feedback_test"
"","","","","","psychophysics","167","337350","0.0-13.0-0.0-1.0-0.0-0.4","623","","j","","","","","","","","","","","","","key","j","16.668923809523474","640","356","j","true","img/S_ambi40.png","坏人","image_first",""
"","","","","","html-keyboard-response","168","337660","0.0-13.0-0.0-1.0-0.0-1.4","null","<span style='color:GreenYellow; font-size: 70px;'>正确! </span>","null","","","","","","","","","","","","","","","","","","","","","","","feedback_test"
"","","","","","psychophysics","169","339597","0.0-13.0-0.0-1.0-0.0-0.5","786","","j","","","","","","","","","","","","","key","j","16.66913913043479","640","356","f","false","img/C_ambi40.png","常人","image_first",""
"","","","","","html-keyboard-response","170","339903","0.0-13.0-0.0-1.0-0.0-1.5","null","<span style='color:red; font-size: 70px;'>错误! </span>","null","","","","","","","","","","","","","","","","","","","","","","","feedback_test"
"","","","","","psychophysics","171","341708","0.0-13.0-0.0-1.0-0.0-0.6","653","","f","","","","","","","","","","","","","key","f","16.668906542056384","640","356","j","false","img/C_ambi40.png","好人","image_first",""
"","","","","","html-keyboard-response","172","342022","0.0-13.0-0.0-1.0-0.0-1.6","null","<span style='color:red; font-size: 70px;'>错误! </span>","null","","","","","","","","","","","","","","","","","","","","","","","feedback_test"
"","","","","","psychophysics","173","344007","0.0-13.0-0.0-1.0-0.0-0.7","832","","f","","","","","","","","","","","","","key","f","16.66971186440639","640","356","f","true","img/T_ambi40.png","好人","image_first",""
"","","","","","html-keyboard-response","174","344317","0.0-13.0-0.0-1.0-0.0-1.7","null","<span style='color:GreenYellow; font-size: 70px;'>正确! </span>","null","","","","","","","","","","","","","","","","","","","","","","","feedback_test"
"","","","","","psychophysics","175","346751","0.0-13.0-0.0-1.0-0.0-0.8","1283","","f","","","","","","","","","","","","","key","f","16.669406896551813","640","356","j","false","img/S_ambi40.png","坏人","image_first",""
"","","","","","html-keyboard-response","176","347067","0.0-13.0-0.0-1.0-0.0-1.8","null","<span style='color:red; font-size: 70px;'>错误! </span>","null","","","","","","","","","","","","","","","","","","","","","","","feedback_test"
"","","","","","psychophysics","177","348646","0.0-13.0-0.0-1.0-0.0-0.9","426","","j","","","","","","","","","","","","","key","j","16.669936170212633","640","356","j","true","img/C_ambi40.png","好人","image_first",""
"","","","","","html-keyboard-response","178","348961","0.0-13.0-0.0-1.0-0.0-1.9","null","<span style='color:GreenYellow; font-size: 70px;'>正确! </span>","null","","","","","","","","","","","","","","","","","","","","","","","feedback_test"
"","","","","","psychophysics","179","350676","0.0-13.0-0.0-1.0-0.0-0.10","563","","f","","","","","","","","","","","","","key","f","16.669127450980287","640","356","f","true","img/S_ambi40.png","常人","image_first",""
"","","","","","html-keyboard-response","180","350986","0.0-13.0-0.0-1.0-0.0-1.10","null","<span style='color:GreenYellow; font-size: 70px;'>正确! </span>","null","","","","","","","","","","","","","","","","","","","","","","","feedback_test"
"","","","","","psychophysics","181","352977","0.0-13.0-0.0-1.0-0.0-0.11","838","","f","","","","","","","","","","","","","key","f","16.66967796610167","640","356","j","false","img/T_ambi40.png","常人","image_first",""
"","","","","","html-keyboard-response","182","353287","0.0-13.0-0.0-1.0-0.0-1.11","null","<span style='color:red; font-size: 70px;'>错误! </span>","null","","","","","","","","","","","","","","","","","","","","","","","feedback_test"
"","","","","","psychophysics","183","355112","0.0-13.0-0.0-1.0-0.0-0.12","673","","j","","","","","","","","","","","","","key","j","16.66909259259248","640","356","j","true","img/T_ambi40.png","常人","image_first",""
"","","","","","html-keyboard-response","184","355418","0.0-13.0-0.0-1.0-0.0-1.12","null","<span style='color:GreenYellow; font-size: 70px;'>正确! </span>","null","","","","","","","","","","","","","","","","","","","","","","","feedback_test"
"","","","","","psychophysics","185","357306","0.0-13.0-0.0-1.0-0.0-0.13","736","","f","","","","","","","","","","","","","key","f","16.669946902655106","640","356","f","true","img/T_ambi40.png","坏人","image_first",""
"","","","","","html-keyboard-response","186","357608","0.0-13.0-0.0-1.0-0.0-1.13","null","<span style='color:GreenYellow; font-size: 70px;'>正确! </span>","null","","","","","","","","","","","","","","","","","","","","","","","feedback_test"
"","","","","","psychophysics","187","359368","0.0-13.0-0.0-1.0-0.0-0.14","608","","f","","","","","","","","","","","","","key","f","16.667499999999844","640","356","f","true","img/C_ambi40.png","坏人","image_first",""
"","","","","","html-keyboard-response","188","359675","0.0-13.0-0.0-1.0-0.0-1.14","null","<span style='color:GreenYellow; font-size: 70px;'>正确! </span>","null","","","","","","","","","","","","","","","","","","","","","","","feedback_test"
"","","","","","psychophysics","189","361647","0.0-13.0-0.0-1.0-0.0-0.15","821","","j","","","","","","","","","","","","","key","j","16.668521367521404","640","356","j","true","img/C_ambi40.png","好人","image_first",""
"","","","","","html-keyboard-response","190","361962","0.0-13.0-0.0-1.0-0.0-1.15","null","<span style='color:GreenYellow; font-size: 70px;'>正确! </span>","null","","","","","","","","","","","","","","","","","","","","","","","feedback_test"
"","","","","","psychophysics","191","363672","0.0-13.0-0.0-1.0-0.0-0.16","557","","f","","","","","","","","","","","","","key","f","16.669594059406094","640","356","f","true","img/C_ambi40.png","常人","image_first",""
"","","","","","html-keyboard-response","192","363982","0.0-13.0-0.0-1.0-0.0-1.16","null","<span style='color:GreenYellow; font-size: 70px;'>正确! </span>","null","","","","","","","","","","","","","","","","","","","","","","","feedback_test"
"","","","","","psychophysics","193","365718","0.0-13.0-0.0-1.0-0.0-0.17","585","","f","","","","","","","","","","","","","key","f","16.669291262136255","640","356","j","false","img/S_ambi40.png","坏人","image_first",""
"","","","","","html-keyboard-response","194","366034","0.0-13.0-0.0-1.0-0.0-1.17","null","<span style='color:red; font-size: 70px;'>错误! </span>","null","","","","","","","","","","","","","","","","","","","","","","","feedback_test"
"","","","","","psychophysics","195","367732","0.0-13.0-0.0-1.0-0.0-0.18","545","","f","","","","","","","","","","","","","key","f","16.66961386138608","640","356","f","true","img/S_ambi40.png","好人","image_first",""
"","","","","","html-keyboard-response","196","368037","0.0-13.0-0.0-1.0-0.0-1.18","null","<span style='color:GreenYellow; font-size: 70px;'>正确! </span>","null","","","","","","","","","","","","","","","","","","","","","","","feedback_test"
"","","","","","psychophysics","197","369647","0.0-13.0-0.0-1.0-0.0-0.19","459","","j","","","","","","","","","","","","","key","j","16.67071875000026","640","356","j","true","img/C_ambi40.png","好人","image_first",""
"","","","","","html-keyboard-response","198","369962","0.0-13.0-0.0-1.0-0.0-1.19","null","<span style='color:GreenYellow; font-size: 70px;'>正确! </span>","null","","","","","","","","","","","","","","","","","","","","","","","feedback_test"
"","","","","","psychophysics","199","371673","0.0-13.0-0.0-1.0-0.0-0.20","559","","f","","","","","","","","","","","","","key","f","16.668801980198012","640","356","f","true","img/S_ambi40.png","常人","image_first",""
"","","","","","html-keyboard-response","200","371985","0.0-13.0-0.0-1.0-0.0-1.20","null","<span style='color:GreenYellow; font-size: 70px;'>正确! </span>","null","","","","","","","","","","","","","","","","","","","","","","","feedback_test"
"","","","","","psychophysics","201","373645","0.0-13.0-0.0-1.0-0.0-0.21","508","","f","","","","","","","","","","","","","key","f","16.670070707070703","640","356","f","true","img/T_ambi40.png","好人","image_first",""
"","","","","","html-keyboard-response","202","373954","0.0-13.0-0.0-1.0-0.0-1.21","null","<span style='color:GreenYellow; font-size: 70px;'>正确! </span>","null","","","","","","","","","","","","","","","","","","","","","","","feedback_test"
"","","","","","psychophysics","203","376608","0.0-13.0-0.0-1.0-0.0-0.22","null","","null","","","","","","","","","","","","","key","null","16.66946835443046","640","356","j","false","img/S_ambi40.png","坏人","image_first",""
"","","","","","html-keyboard-response","204","376917","0.0-13.0-0.0-1.0-0.0-1.22","null","<span class='add_' style='color:yellow; font-size: 70px;'> 太慢! </span>","null","","","","","","","","","","","","","","","","","","","","","","","feedback_test"
"","","","","","psychophysics","205","378590","0.0-13.0-0.0-1.0-0.0-0.23","521","","f","","","","","","","","","","","","","key","f","16.670444444444552","640","356","j","false","img/T_ambi40.png","常人","image_first",""
"","","","","","html-keyboard-response","206","378906","0.0-13.0-0.0-1.0-0.0-1.23","null","<span style='color:red; font-size: 70px;'>错误! </span>","null","","","","","","","","","","","","","","","","","","","","","","","feedback_test"
"","","","","","psychophysics","207","380804","0.0-13.0-0.0-1.0-0.0-0.24","746","","f","","","","","","","","","","","","","key","f","16.66926548672599","640","356","f","true","img/C_ambi40.png","常人","image_first",""
"","","","","","html-keyboard-response","208","381116","0.0-13.0-0.0-1.0-0.0-1.24","null","<span style='color:GreenYellow; font-size: 70px;'>正确! </span>","null","","","","","","","","","","","","","","","","","","","","","","","feedback_test"
"","","","","","psychophysics","209","382951","0.0-13.0-0.0-1.0-0.0-0.25","684","","f","","","","","","","","","","","","","key","f","16.670009174311552","640","356","j","false","img/T_ambi40.png","常人","image_first",""
"","","","","","html-keyboard-response","210","383263","0.0-13.0-0.0-1.0-0.0-1.25","null","<span style='color:red; font-size: 70px;'>错误! </span>","null","","","","","","","","","","","","","","","","","","","","","","","feedback_test"
"","","","","","psychophysics","211","385118","0.0-13.0-0.0-1.0-0.0-0.26","704","","f","","","","","","","","","","","","","key","f","16.66955454545413","640","356","f","true","img/T_ambi40.png","好人","image_first",""
"","","","","","html-keyboard-response","212","385434","0.0-13.0-0.0-1.0-0.0-1.26","null","<span style='color:GreenYellow; font-size: 70px;'>正确! </span>","null","","","","","","","","","","","","","","","","","","","","","","","feedback_test"
"","","","","","psychophysics","213","387268","0.0-13.0-0.0-1.0-0.0-0.27","683","","j","","","","","","","","","","","","","key","j","16.66812844036698","640","356","j","true","img/C_ambi40.png","好人","image_first",""
"","","","","","html-keyboard-response","214","387570","0.0-13.0-0.0-1.0-0.0-1.27","null","<span style='color:GreenYellow; font-size: 70px;'>正确! </span>","null","","","","","","","","","","","","","","","","","","","","","","","feedback_test"
"","","","","","psychophysics","215","389197","0.0-13.0-0.0-1.0-0.0-0.28","476","","j","","","","","","","","","","","","","key","j","16.669443298968936","640","356","j","true","img/C_ambi40.png","好人","image_first",""
"","","","","","html-keyboard-response","216","389512","0.0-13.0-0.0-1.0-0.0-1.28","null","<span style='color:GreenYellow; font-size: 70px;'>正确! </span>","null","","","","","","","","","","","","","","","","","","","","","","","feedback_test"
"","","","","","psychophysics","217","391232","0.0-13.0-0.0-1.0-0.0-0.29","568","","f","","","","","","","","","","","","","key","f","16.666117647058428","640","356","f","true","img/S_ambi40.png","常人","image_first",""
"","","","","","html-keyboard-response","218","391548","0.0-13.0-0.0-1.0-0.0-1.29","null","<span style='color:GreenYellow; font-size: 70px;'>正确! </span>","null","","","","","","","","","","","","","","","","","","","","","","","feedback_test"
"","","","","","psychophysics","219","393402","0.0-13.0-0.0-1.0-0.0-0.30","702","","f","","","","","","","","","","","","","key","f","16.669972727272597","640","356","j","false","img/T_ambi40.png","常人","image_first",""
"","","","","","html-keyboard-response","220","393711","0.0-13.0-0.0-1.0-0.0-1.30","null","<span style='color:red; font-size: 70px;'>错误! </span>","null","","","","","","","","","","","","","","","","","","","","","","","feedback_test"
"","","","","","psychophysics","221","395559","0.0-13.0-0.0-1.0-0.0-0.31","696","","f","","","","","","","","","","","","","key","f","16.669275229357808","640","356","j","false","img/S_ambi40.png","坏人","image_first",""
"","","","","","html-keyboard-response","222","395871","0.0-13.0-0.0-1.0-0.0-1.31","null","<span style='color:red; font-size: 70px;'>错误! </span>","null","","","","","","","","","","","","","","","","","","","","","","","feedback_test"
"","","","","","psychophysics","223","397937","0.0-13.0-0.0-1.0-0.0-0.32","914","","f","","","","","","","","","","","","","key","f","16.669139344261893","640","356","f","true","img/S_ambi40.png","好人","image_first",""
"","","","","","html-keyboard-response","224","398250","0.0-13.0-0.0-1.0-0.0-1.32","null","<span style='color:GreenYellow; font-size: 70px;'>正确! </span>","null","","","","","","","","","","","","","","","","","","","","","","","feedback_test"
"","","","","","psychophysics","225","399903","0.0-13.0-0.0-1.0-0.0-0.33","502","","f","","","","","","","","","","","","","key","f","16.669214285714123","640","356","f","true","img/C_ambi40.png","坏人","image_first",""
"","","","","","html-keyboard-response","226","400217","0.0-13.0-0.0-1.0-0.0-1.33","null","<span style='color:GreenYellow; font-size: 70px;'>正确! </span>","null","","","","","","","","","","","","","","","","","","","","","","","feedback_test"
"","","","","","psychophysics","227","402230","0.0-13.0-0.0-1.0-0.0-0.34","860","","j","","","","","","","","","","","","","key","j","16.66828333333348","640","356","j","true","img/S_ambi40.png","坏人","image_first",""
"","","","","","html-keyboard-response","228","402545","0.0-13.0-0.0-1.0-0.0-1.34","null","<span style='color:GreenYellow; font-size: 70px;'>正确! </span>","null","","","","","","","","","","","","","","","","","","","","","","","feedback_test"
"","","","","","psychophysics","229","404317","0.0-13.0-0.0-1.0-0.0-0.35","621","","f","","","","","","","","","","","","","key","f","16.66964761904729","640","356","f","true","img/T_ambi40.png","坏人","image_first",""
"","","","","","html-keyboard-response","230","404635","0.0-13.0-0.0-1.0-0.0-1.35","null","<span style='color:GreenYellow; font-size: 70px;'>正确! </span>","null","","","","","","","","","","","","","","","","","","","","","","","feedback_test"
"","","","","","psychophysics","231","406593","0.0-13.0-0.0-1.0-0.0-0.36","806","","f","","","","","","","","","","","","","key","f","16.669413793103466","640","356","j","false","img/S_ambi40.png","坏人","image_first",""
"","","","","","html-keyboard-response","232","406909","0.0-13.0-0.0-1.0-0.0-1.36","null","<span style='color:red; font-size: 70px;'>错误! </span>","null","","","","","","","","","","","","","","","","","","","","","","","feedback_test"
"","","","","","psychophysics","233","408648","0.0-13.0-0.0-1.0-0.0-0.37","587","","f","","","","","","","","","","","","","key","f","16.670038461538542","640","356","j","false","img/S_ambi40.png","坏人","image_first",""
"","","","","","html-keyboard-response","234","408951","0.0-13.0-0.0-1.0-0.0-1.37","null","<span style='color:red; font-size: 70px;'>错误! </span>","null","","","","","","","","","","","","","","","","","","","","","","","feedback_test"
"","","","","","psychophysics","235","411052","0.0-13.0-0.0-1.0-0.0-0.38","949","","f","","","","","","","","","","","","","key","f","16.667736000000033","640","356","f","true","img/C_ambi40.png","坏人","image_first",""
"","","","","","html-keyboard-response","236","411370","0.0-13.0-0.0-1.0-0.0-1.38","null","<span style='color:GreenYellow; font-size: 70px;'>正确! </span>","null","","","","","","","","","","","","","","","","","","","","","","","feedback_test"
"","","","","","psychophysics","237","413416","0.0-13.0-0.0-1.0-0.0-0.39","895","","f","","","","","","","","","","","","","key","f","16.671032786885082","640","356","f","true","img/T_ambi40.png","好人","image_first",""
"","","","","","html-keyboard-response","238","413730","0.0-13.0-0.0-1.0-0.0-1.39","null","<span style='color:GreenYellow; font-size: 70px;'>正确! </span>","null","","","","","","","","","","","","","","","","","","","","","","","feedback_test"
"","","","","","psychophysics","239","415384","0.0-13.0-0.0-1.0-0.0-0.40","503","","j","","","","","","","","","","","","","key","j","16.669255102041404","640","356","j","true","img/C_ambi40.png","好人","image_first",""
"","","","","","html-keyboard-response","240","415700","0.0-13.0-0.0-1.0-0.0-1.40","null","<span style='color:GreenYellow; font-size: 70px;'>正确! </span>","null","","","","","","","","","","","","","","","","","","","","","","","feedback_test"
"","","","","","psychophysics","241","417341","0.0-13.0-0.0-1.0-0.0-0.41","491","","f","","","","","","","","","","","","","key","f","16.668979381443332","640","356","f","true","img/S_ambi40.png","好人","image_first",""
"","","","","","html-keyboard-response","242","417655","0.0-13.0-0.0-1.0-0.0-1.41","null","<span style='color:GreenYellow; font-size: 70px;'>正确! </span>","null","","","","","","","","","","","","","","","","","","","","","","","feedback_test"
"","","","","","psychophysics","243","419552","0.0-13.0-0.0-1.0-0.0-0.42","745","","f","","","","","","","","","","","","","key","f","16.668831858406897","640","356","j","false","img/T_ambi40.png","常人","image_first",""
"","","","","","html-keyboard-response","244","419860","0.0-13.0-0.0-1.0-0.0-1.42","null","<span style='color:red; font-size: 70px;'>错误! </span>","null","","","","","","","","","","","","","","","","","","","","","","","feedback_test"
"","","","","","psychophysics","245","421775","0.0-13.0-0.0-1.0-0.0-0.43","763","","f","","","","","","","","","","","","","key","f","16.669605263157568","640","356","f","true","img/S_ambi40.png","常人","image_first",""
"","","","","","html-keyboard-response","246","422081","0.0-13.0-0.0-1.0-0.0-1.43","null","<span style='color:GreenYellow; font-size: 70px;'>正确! </span>","null","","","","","","","","","","","","","","","","","","","","","","","feedback_test"
"","","","","","psychophysics","247","423948","0.0-13.0-0.0-1.0-0.0-0.44","716","","f","","","","","","","","","","","","","key","f","16.670018181818094","640","356","j","false","img/C_ambi40.png","好人","image_first",""
"","","","","","html-keyboard-response","248","424257","0.0-13.0-0.0-1.0-0.0-1.44","null","<span style='color:red; font-size: 70px;'>错误! </span>","null","","","","","","","","","","","","","","","","","","","","","","","feedback_test"
"","","","","","psychophysics","249","426409","0.0-13.0-0.0-1.0-0.0-0.45","1001","","f","","","","","","","","","","","","","key","f","16.669109375000062","640","356","f","true","img/C_ambi40.png","常人","image_first",""
"","","","","","html-keyboard-response","250","426723","0.0-13.0-0.0-1.0-0.0-1.45","null","<span style='color:GreenYellow; font-size: 70px;'>正确! </span>","null","","","","","","","","","","","","","","","","","","","","","","","feedback_test"
"","","","","","psychophysics","251","428421","0.0-13.0-0.0-1.0-0.0-0.46","547","","f","","","","","","","","","","","","","key","f","16.668544554455313","640","356","f","true","img/T_ambi40.png","坏人","image_first",""
"","","","","","html-keyboard-response","252","428726","0.0-13.0-0.0-1.0-0.0-1.46","null","<span style='color:GreenYellow; font-size: 70px;'>正确! </span>","null","","","","","","","","","","","","","","","","","","","","","","","feedback_test"
"","","","","","psychophysics","253","430606","0.0-13.0-0.0-1.0-0.0-0.47","729","","f","","","","","","","","","","","","","key","f","16.66990178571411","640","356","j","false","img/T_ambi40.png","常人","image_first",""
"","","","","","html-keyboard-response","254","430915","0.0-13.0-0.0-1.0-0.0-1.47","null","<span style='color:red; font-size: 70px;'>错误! </span>","null","","","","","","","","","","","","","","","","","","","","","","","feedback_test"
"","","","","","psychophysics","255","432857","0.0-13.0-0.0-1.0-0.0-0.48","776","","j","","","","","","","","","","","","","key","j","16.542295652173927","640","356","j","true","img/T_ambi40.png","常人","image_first",""
"","","","","","html-keyboard-response","256","433164","0.0-13.0-0.0-1.0-0.0-1.48","null","<span style='color:GreenYellow; font-size: 70px;'>正确! </span>","null","","","","","","","","","","","","","","","","","","","","","","","feedback_test"
"","","","","","psychophysics","257","434797","0.0-13.0-0.0-1.0-0.0-0.49","478","","j","","","","","","","","","","","","","key","j","16.528885416666526","640","356","j","true","img/T_ambi40.png","常人","image_first",""
"","","","","","html-keyboard-response","258","435099","0.0-13.0-0.0-1.0-0.0-1.49","null","<span style='color:GreenYellow; font-size: 70px;'>正确! </span>","null","","","","","","","","","","","","","","","","","","","","","","","feedback_test"
"","","","","","psychophysics","259","436818","0.0-13.0-0.0-1.0-0.0-0.50","568","","f","","","","","","","","","","","","","key","f","16.547754901960634","640","356","f","true","img/T_ambi40.png","好人","image_first",""
"","","","","","html-keyboard-response","260","437129","0.0-13.0-0.0-1.0-0.0-1.50","null","<span style='color:GreenYellow; font-size: 70px;'>正确! </span>","null","","","","","","","","","","","","","","","","","","","","","","","feedback_test"
"","","","","","psychophysics","261","438812","0.0-13.0-0.0-1.0-0.0-0.51","531","","f","","","","","","","","","","","","","key","f","16.66907999999996","640","356","f","true","img/T_ambi40.png","坏人","image_first",""
"","","","","","html-keyboard-response","262","439126","0.0-13.0-0.0-1.0-0.0-1.51","null","<span style='color:GreenYellow; font-size: 70px;'>正确! </span>","null","","","","","","","","","","","","","","","","","","","","","","","feedback_test"
"","","","","","psychophysics","263","440887","0.0-13.0-0.0-1.0-0.0-0.52","609","","f","","","","","","","","","","","","","key","f","16.669504761904854","640","356","f","true","img/C_ambi40.png","常人","image_first",""
"","","","","","html-keyboard-response","264","441190","0.0-13.0-0.0-1.0-0.0-1.52","null","<span style='color:GreenYellow; font-size: 70px;'>正确! </span>","null","","","","","","","","","","","","","","","","","","","","","","","feedback_test"
"","","","","","psychophysics","265","443045","0.0-13.0-0.0-1.0-0.0-0.53","704","","f","","","","","","","","","","","","","key","f","16.667981818181843","640","356","f","true","img/C_ambi40.png","坏人","image_first",""
"","","","","","html-keyboard-response","266","443358","0.0-13.0-0.0-1.0-0.0-1.53","null","<span style='color:GreenYellow; font-size: 70px;'>正确! </span>","null","","","","","","","","","","","","","","","","","","","","","","","feedback_test"
"","","","","","psychophysics","267","445414","0.0-13.0-0.0-1.0-0.0-0.54","903","","f","","","","","","","","","","","","","key","f","16.66908196721333","640","356","f","true","img/S_ambi40.png","常人","image_first",""
"","","","","","html-keyboard-response","268","445730","0.0-13.0-0.0-1.0-0.0-1.54","null","<span style='color:GreenYellow; font-size: 70px;'>正确! </span>","null","","","","","","","","","","","","","","","","","","","","","","","feedback_test"
"","","","","","psychophysics","269","447378","0.0-13.0-0.0-1.0-0.0-0.55","496","","f","","","","","","","","","","","","","key","f","16.66987755102027","640","356","j","false","img/S_ambi40.png","坏人","image_first",""
"","","","","","html-keyboard-response","270","447694","0.0-13.0-0.0-1.0-0.0-1.55","null","<span style='color:red; font-size: 70px;'>错误! </span>","null","","","","","","","","","","","","","","","","","","","","","","","feedback_test"
"","","","","","psychophysics","271","449508","0.0-13.0-0.0-1.0-0.0-0.56","662","","f","","","","","","","","","","","","","key","f","16.670240740740727","640","356","f","true","img/S_ambi40.png","好人","image_first",""
"","","","","","html-keyboard-response","272","449818","0.0-13.0-0.0-1.0-0.0-1.56","null","<span style='color:GreenYellow; font-size: 70px;'>正确! </span>","null","","","","","","","","","","","","","","","","","","","","","","","feedback_test"
"","","","","","psychophysics","273","451372","0.0-13.0-0.0-1.0-0.0-0.57","403","","j","","","","","","","","","","","","","key","j","16.528782608695504","640","356","j","true","img/C_ambi40.png","好人","image_first",""
"","","","","","html-keyboard-response","274","451686","0.0-13.0-0.0-1.0-0.0-1.57","null","<span style='color:GreenYellow; font-size: 70px;'>正确! </span>","null","","","","","","","","","","","","","","","","","","","","","","","feedback_test"
"","","","","","psychophysics","275","453239","0.0-13.0-0.0-1.0-0.0-0.58","403","","j","","","","","","","","","","","","","key","j","16.669500000000447","640","356","j","true","img/C_ambi40.png","好人","image_first",""
"","","","","","html-keyboard-response","276","453551","0.0-13.0-0.0-1.0-0.0-1.58","null","<span style='color:GreenYellow; font-size: 70px;'>正确! </span>","null","","","","","","","","","","","","","","","","","","","","","","","feedback_test"
"","","","","","psychophysics","277","455445","0.0-13.0-0.0-1.0-0.0-0.59","742","","j","","","","","","","","","","","","","key","j","16.555437500000284","640","356","j","true","img/S_ambi40.png","坏人","image_first",""
"","","","","","html-keyboard-response","278","455748","0.0-13.0-0.0-1.0-0.0-1.59","null","<span style='color:GreenYellow; font-size: 70px;'>正确! </span>","null","","","","","","","","","","","","","","","","","","","","","","","feedback_test"
"","","","","","html-keyboard-response","279","457654","0.0-13.0-0.0-1.0-1.0","1904","<style>.context{color:white; font-size: 35px; line-height:40px}</style>                              <div><p class='context'>您正确回答了72% 的试次。</p><p class='context'>您的平均反应时为649毫秒。</p><p class='context'>请按任意键进入休息</p></div>"," ","","","","","","","","","","","","","","","","","","","","","","",""
"","","","","","html-button-response","280","538458","0.0-13.0-0.0-1.0-2.0","80799","
                      <p>您当前还剩余3组实验</p>
                      <p>现在是休息时间，当您结束休息后，您可以点击 结束休息 按钮 继续</p>
                      <p>建议休息时间还剩余<span id=""iii"">60</span>秒</p>","0","","","","","","","","","","","","","","","","","","","","","","",""
"","","","","","psychophysics","281","540314","0.0-13.0-0.0-1.0-0.1-0.60","703","","f","","","","","","","","","","","","","key","f","16.6694181818187","640","356","f","true","img/S_ambi40.png","好人","image_first",""
"","","","","","html-keyboard-response","282","540625","0.0-13.0-0.0-1.0-0.1-1.60","null","<span style='color:GreenYellow; font-size: 70px;'>正确! </span>","null","","","","","","","","","","","","","","","","","","","","","","","feedback_test"
"","","","","","psychophysics","283","542331","0.0-13.0-0.0-1.0-0.1-0.61","555","","f","","","","","","","","","","","","","key","f","16.669168316831783","640","356","f","true","img/T_ambi40.png","好人","image_first",""
"","","","","","html-keyboard-response","284","542646","0.0-13.0-0.0-1.0-0.1-1.61","null","<span style='color:GreenYellow; font-size: 70px;'>正确! </span>","null","","","","","","","","","","","","","","","","","","","","","","","feedback_test"
"","","","","","psychophysics","285","544655","0.0-13.0-0.0-1.0-0.1-0.62","855","","f","","","","","","","","","","","","","key","f","16.669708333333254","640","356","j","false","img/C_ambi40.png","好人","image_first",""
"","","","","","html-keyboard-response","286","544963","0.0-13.0-0.0-1.0-0.1-1.62","null","<span style='color:red; font-size: 70px;'>错误! </span>","null","","","","","","","","","","","","","","","","","","","","","","","feedback_test"
"","","","","","psychophysics","287","546565","0.0-13.0-0.0-1.0-0.1-0.63","448","","j","","","","","","","","","","","","","key","j","16.669189473683947","640","356","f","false","img/S_ambi40.png","常人","image_first",""
"","","","","","html-keyboard-response","288","546875","0.0-13.0-0.0-1.0-0.1-1.63","null","<span style='color:red; font-size: 70px;'>错误! </span>","null","","","","","","","","","","","","","","","","","","","","","","","feedback_test"
"","","","","","psychophysics","289","548750","0.0-13.0-0.0-1.0-0.1-0.64","724","","f","","","","","","","","","","","","","key","f","16.669099099099267","640","356","j","false","img/T_ambi40.png","常人","image_first",""
"","","","","","html-keyboard-response","290","549053","0.0-13.0-0.0-1.0-0.1-1.64","null","<span style='color:red; font-size: 70px;'>错误! </span>","null","","","","","","","","","","","","","","","","","","","","","","","feedback_test"
"","","","","","psychophysics","291","550930","0.0-13.0-0.0-1.0-0.1-0.65","725","","j","","","","","","","","","","","","","key","j","16.669531531531263","640","356","j","true","img/T_ambi40.png","常人","image_first",""
"","","","","","html-keyboard-response","292","551247","0.0-13.0-0.0-1.0-0.1-1.65","null","<span style='color:GreenYellow; font-size: 70px;'>正确! </span>","null","","","","","","","","","","","","","","","","","","","","","","","feedback_test"
"","","","","","psychophysics","293","552926","0.0-13.0-0.0-1.0-0.1-0.66","527","","j","","","","","","","","","","","","","key","j","16.66900000000023","640","356","j","true","img/S_ambi40.png","坏人","image_first",""
"","","","","","html-keyboard-response","294","553232","0.0-13.0-0.0-1.0-0.1-1.66","null","<span style='color:GreenYellow; font-size: 70px;'>正确! </span>","null","","","","","","","","","","","","","","","","","","","","","","","feedback_test"
"","","","","","psychophysics","295","555012","0.0-13.0-0.0-1.0-0.1-0.67","629","","f","","","","","","","","","","","","","key","f","16.669811320754718","640","356","f","true","img/C_ambi40.png","常人","image_first",""
"","","","","","html-keyboard-response","296","555319","0.0-13.0-0.0-1.0-0.1-1.67","null","<span style='color:GreenYellow; font-size: 70px;'>正确! </span>","null","","","","","","","","","","","","","","","","","","","","","","","feedback_test"
"","","","","","psychophysics","297","557210","0.0-13.0-0.0-1.0-0.1-0.68","740","","f","","","","","","","","","","","","","key","f","16.670383928571287","640","356","f","true","img/T_ambi40.png","坏人","image_first",""
"","","","","","html-keyboard-response","298","557525","0.0-13.0-0.0-1.0-0.1-1.68","null","<span style='color:GreenYellow; font-size: 70px;'>正确! </span>","null","","","","","","","","","","","","","","","","","","","","","","","feedback_test"
"","","","","","psychophysics","299","559404","0.0-13.0-0.0-1.0-0.1-0.69","727","","f","","","","","","","","","","","","","key","f","16.66915178571383","640","356","f","true","img/C_ambi40.png","坏人","image_first",""
"","","","","","html-keyboard-response","300","559709","0.0-13.0-0.0-1.0-0.1-1.69","null","<span style='color:GreenYellow; font-size: 70px;'>正确! </span>","null","","","","","","","","","","","","","","","","","","","","","","","feedback_test"
"","","","","","psychophysics","301","561468","0.0-13.0-0.0-1.0-0.1-0.70","607","","j","","","","","","","","","","","","","key","j","16.669192307692494","640","356","j","true","img/S_ambi40.png","坏人","image_first",""
"","","","","","html-keyboard-response","302","561780","0.0-13.0-0.0-1.0-0.1-1.70","null","<span style='color:GreenYellow; font-size: 70px;'>正确! </span>","null","","","","","","","","","","","","","","","","","","","","","","","feedback_test"
"","","","","","psychophysics","303","563400","0.0-13.0-0.0-1.0-0.1-0.71","467","","j","","","","","","","","","","","","","key","j","16.66943750000064","640","356","j","true","img/C_ambi40.png","好人","image_first",""
"","","","","","html-keyboard-response","304","563708","0.0-13.0-0.0-1.0-0.1-1.71","null","<span style='color:GreenYellow; font-size: 70px;'>正确! </span>","null","","","","","","","","","","","","","","","","","","","","","","","feedback_test"
"","","","","","psychophysics","305","565397","0.0-13.0-0.0-1.0-0.1-0.72","537","","f","","","","","","","","","","","","","key","f","16.669290000000036","640","356","j","false","img/T_ambi40.png","常人","image_first",""
"","","","","","html-keyboard-response","306","565711","0.0-13.0-0.0-1.0-0.1-1.72","null","<span style='color:red; font-size: 70px;'>错误! </span>","null","","","","","","","","","","","","","","","","","","","","","","","feedback_test"
"","","","","","psychophysics","307","567495","0.0-13.0-0.0-1.0-0.1-0.73","633","","f","","","","","","","","","","","","","key","f","16.669009433961516","640","356","f","true","img/S_ambi40.png","常人","image_first",""
"","","","","","html-keyboard-response","308","567804","0.0-13.0-0.0-1.0-0.1-1.73","null","<span style='color:GreenYellow; font-size: 70px;'>正确! </span>","null","","","","","","","","","","","","","","","","","","","","","","","feedback_test"
"","","","","","psychophysics","309","569410","0.0-13.0-0.0-1.0-0.1-0.74","453","","j","","","","","","","","","","","","","key","j","16.668936842105254","640","356","j","true","img/C_ambi40.png","好人","image_first",""
"","","","","","html-keyboard-response","310","569727","0.0-13.0-0.0-1.0-0.1-1.74","null","<span style='color:GreenYellow; font-size: 70px;'>正确! </span>","null","","","","","","","","","","","","","","","","","","","","","","","feedback_test"
"","","","","","psychophysics","311","571470","0.0-13.0-0.0-1.0-0.1-0.75","592","","f","","","","","","","","","","","","","key","f","16.667757281554337","640","356","f","true","img/C_ambi40.png","常人","image_first",""
"","","","","","html-keyboard-response","312","571778","0.0-13.0-0.0-1.0-0.1-1.75","null","<span style='color:GreenYellow; font-size: 70px;'>正确! </span>","null","","","","","","","","","","","","","","","","","","","","","","","feedback_test"
"","","","","","psychophysics","313","574079","0.0-13.0-0.0-1.0-0.1-0.76","1149","","j","","","","","","","","","","","","","key","j","16.669116788321126","640","356","j","true","img/S_ambi40.png","坏人","image_first",""
"","","","","","html-keyboard-response","314","574382","0.0-13.0-0.0-1.0-0.1-1.76","null","<span style='color:GreenYellow; font-size: 70px;'>正确! </span>","null","","","","","","","","","","","","","","","","","","","","","","","feedback_test"
"","","","","","psychophysics","315","576133","0.0-13.0-0.0-1.0-0.1-0.77","599","","f","","","","","","","","","","","","","key","f","16.668163461537915","640","356","f","true","img/T_ambi40.png","坏人","image_first",""
"","","","","","html-keyboard-response","316","576448","0.0-13.0-0.0-1.0-0.1-1.77","null","<span style='color:GreenYellow; font-size: 70px;'>正确! </span>","null","","","","","","","","","","","","","","","","","","","","","","","feedback_test"
"","","","","","psychophysics","317","578123","0.0-13.0-0.0-1.0-0.1-0.78","524","","j","","","","","","","","","","","","","key","j","16.66954000000027","640","356","j","true","img/C_ambi40.png","好人","image_first",""
"","","","","","html-keyboard-response","318","578431","0.0-13.0-0.0-1.0-0.1-1.78","null","<span style='color:GreenYellow; font-size: 70px;'>正确! </span>","null","","","","","","","","","","","","","","","","","","","","","","","feedback_test"
"","","","","","psychophysics","319","580178","0.0-13.0-0.0-1.0-0.1-0.79","595","","f","","","","","","","","","","","","","key","f","16.667634615383577","640","356","f","true","img/T_ambi40.png","好人","image_first",""
"","","","","","html-keyboard-response","320","580492","0.0-13.0-0.0-1.0-0.1-1.79","null","<span style='color:GreenYellow; font-size: 70px;'>正确! </span>","null","","","","","","","","","","","","","","","","","","","","","","","feedback_test"
"","","","","","psychophysics","321","582383","0.0-13.0-0.0-1.0-0.1-0.80","739","","f","","","","","","","","","","","","","key","f","16.66822321428585","640","356","f","true","img/S_ambi40.png","好人","image_first",""
"","","","","","html-keyboard-response","322","582691","0.0-13.0-0.0-1.0-0.1-1.80","null","<span style='color:GreenYellow; font-size: 70px;'>正确! </span>","null","","","","","","","","","","","","","","","","","","","","","","","feedback_test"
"","","","","","psychophysics","323","584369","0.0-13.0-0.0-1.0-0.1-0.81","526","","f","","","","","","","","","","","","","key","f","16.669141414141368","640","356","j","false","img/T_ambi40.png","常人","image_first",""
"","","","","","html-keyboard-response","324","584674","0.0-13.0-0.0-1.0-0.1-1.81","null","<span style='color:red; font-size: 70px;'>错误! </span>","null","","","","","","","","","","","","","","","","","","","","","","","feedback_test"
"","","","","","psychophysics","325","586463","0.0-13.0-0.0-1.0-0.1-0.82","638","","f","","","","","","","","","","","","","key","f","16.665528301887637","640","356","f","true","img/C_ambi40.png","坏人","image_first",""
"","","","","","html-keyboard-response","326","586766","0.0-13.0-0.0-1.0-0.1-1.82","null","<span style='color:GreenYellow; font-size: 70px;'>正确! </span>","null","","","","","","","","","","","","","","","","","","","","","","","feedback_test"
"","","","","","psychophysics","327","588604","0.0-13.0-0.0-1.0-0.1-0.83","687","","j","","","","","","","","","","","","","key","j","16.669678899082527","640","356","j","true","img/S_ambi40.png","坏人","image_first",""
"","","","","","html-keyboard-response","328","588910","0.0-13.0-0.0-1.0-0.1-1.83","null","<span style='color:GreenYellow; font-size: 70px;'>正确! </span>","null","","","","","","","","","","","","","","","","","","","","","","","feedback_test"
"","","","","","psychophysics","329","590542","0.0-13.0-0.0-1.0-0.1-0.84","480","","f","","","","","","","","","","","","","key","f","16.66894845360861","640","356","f","true","img/S_ambi40.png","好人","image_first",""
"","","","","","html-keyboard-response","330","590860","0.0-13.0-0.0-1.0-0.1-1.84","null","<span style='color:GreenYellow; font-size: 70px;'>正确! </span>","null","","","","","","","","","","","","","","","","","","","","","","","feedback_test"
"","","","","","psychophysics","331","592895","0.0-13.0-0.0-1.0-0.1-0.85","881","","f","","","","","","","","","","","","","key","f","16.66903305785107","640","356","f","true","img/S_ambi40.png","常人","image_first",""
"","","","","","html-keyboard-response","332","593200","0.0-13.0-0.0-1.0-0.1-1.85","null","<span style='color:GreenYellow; font-size: 70px;'>正确! </span>","null","","","","","","","","","","","","","","","","","","","","","","","feedback_test"
"","","","","","psychophysics","333","595145","0.0-13.0-0.0-1.0-0.1-0.86","792","","f","","","","","","","","","","","","","key","f","16.668896551724675","640","356","f","true","img/T_ambi40.png","坏人","image_first",""
"","","","","","html-keyboard-response","334","595457","0.0-13.0-0.0-1.0-0.1-1.86","null","<span style='color:GreenYellow; font-size: 70px;'>正确! </span>","null","","","","","","","","","","","","","","","","","","","","","","","feedback_test"
"","","","","","psychophysics","335","597368","0.0-13.0-0.0-1.0-0.1-0.87","761","","j","","","","","","","","","","","","","key","j","16.5431238938055","640","356","j","true","img/T_ambi40.png","常人","image_first",""
"","","","","","html-keyboard-response","336","597685","0.0-13.0-0.0-1.0-0.1-1.87","null","<span style='color:GreenYellow; font-size: 70px;'>正确! </span>","null","","","","","","","","","","","","","","","","","","","","","","","feedback_test"
"","","","","","psychophysics","337","599550","0.0-13.0-0.0-1.0-0.1-0.88","713","","j","","","","","","","","","","","","","key","j","16.67007207207231","640","356","j","true","img/S_ambi40.png","坏人","image_first",""
"","","","","","html-keyboard-response","338","599852","0.0-13.0-0.0-1.0-0.1-1.88","null","<span style='color:GreenYellow; font-size: 70px;'>正确! </span>","null","","","","","","","","","","","","","","","","","","","","","","","feedback_test"
"","","","","","psychophysics","339","601563","0.0-13.0-0.0-1.0-0.1-0.89","559","","f","","","","","","","","","","","","","key","f","16.669196078431675","640","356","j","false","img/T_ambi40.png","常人","image_first",""
"","","","","","html-keyboard-response","340","601873","0.0-13.0-0.0-1.0-0.1-1.89","null","<span style='color:red; font-size: 70px;'>错误! </span>","null","","","","","","","","","","","","","","","","","","","","","","","feedback_test"
"","","","","","psychophysics","341","603679","0.0-13.0-0.0-1.0-0.1-0.90","653","","f","","","","","","","","","","","","","key","f","16.5532616822432","640","356","f","true","img/C_ambi40.png","坏人","image_first",""
"","","","","","html-keyboard-response","342","603997","0.0-13.0-0.0-1.0-0.1-1.90","null","<span style='color:GreenYellow; font-size: 70px;'>正确! </span>","null","","","","","","","","","","","","","","","","","","","","","","","feedback_test"
"","","","","","psychophysics","343","605646","0.0-13.0-0.0-1.0-0.1-0.91","497","","f","","","","","","","","","","","","","key","f","16.668989795918236","640","356","f","true","img/T_ambi40.png","好人","image_first",""
"","","","","","html-keyboard-response","344","605953","0.0-13.0-0.0-1.0-0.1-1.91","null","<span style='color:GreenYellow; font-size: 70px;'>正确! </span>","null","","","","","","","","","","","","","","","","","","","","","","","feedback_test"
"","","","","","psychophysics","345","607841","0.0-13.0-0.0-1.0-0.1-0.92","736","","j","","","","","","","","","","","","","key","j","16.66934821428627","640","356","j","true","img/C_ambi40.png","好人","image_first",""
"","","","","","html-keyboard-response","346","608148","0.0-13.0-0.0-1.0-0.1-1.92","null","<span style='color:GreenYellow; font-size: 70px;'>正确! </span>","null","","","","","","","","","","","","","","","","","","","","","","","feedback_test"
"","","","","","psychophysics","347","609931","0.0-13.0-0.0-1.0-0.1-0.93","630","","f","","","","","","","","","","","","","key","f","16.668952830188537","640","356","f","true","img/C_ambi40.png","常人","image_first",""
"","","","","","html-keyboard-response","348","610244","0.0-13.0-0.0-1.0-0.1-1.93","null","<span style='color:GreenYellow; font-size: 70px;'>正确! </span>","null","","","","","","","","","","","","","","","","","","","","","","","feedback_test"
"","","","","","psychophysics","349","611997","0.0-13.0-0.0-1.0-0.1-0.94","600","","j","","","","","","","","","","","","","key","j","16.67009708737882","640","356","j","true","img/S_ambi40.png","坏人","image_first",""
"","","","","","html-keyboard-response","350","612306","0.0-13.0-0.0-1.0-0.1-1.94","null","<span style='color:GreenYellow; font-size: 70px;'>正确! </span>","null","","","","","","","","","","","","","","","","","","","","","","","feedback_test"
"","","","","","psychophysics","351","613978","0.0-13.0-0.0-1.0-0.1-0.95","518","","j","","","","","","","","","","","","","key","j","16.669100000000327","640","356","j","true","img/C_ambi40.png","好人","image_first",""
"","","","","","html-keyboard-response","352","614286","0.0-13.0-0.0-1.0-0.1-1.95","null","<span style='color:GreenYellow; font-size: 70px;'>正确! </span>","null","","","","","","","","","","","","","","","","","","","","","","","feedback_test"
"","","","","","psychophysics","353","615868","0.0-13.0-0.0-1.0-0.1-0.96","430","","j","","","","","","","","","","","","","key","j","16.669744680851124","640","356","j","true","img/C_ambi40.png","好人","image_first",""
"","","","","","html-keyboard-response","354","616177","0.0-13.0-0.0-1.0-0.1-1.96","null","<span style='color:GreenYellow; font-size: 70px;'>正确! </span>","null","","","","","","","","","","","","","","","","","","","","","","","feedback_test"
"","","","","","psychophysics","355","617852","0.0-13.0-0.0-1.0-0.1-0.97","523","","f","","","","","","","","","","","","","key","f","16.670050505051304","640","356","j","false","img/T_ambi40.png","常人","image_first",""
"","","","","","html-keyboard-response","356","618159","0.0-13.0-0.0-1.0-0.1-1.97","null","<span style='color:red; font-size: 70px;'>错误! </span>","null","","","","","","","","","","","","","","","","","","","","","","","feedback_test"
"","","","","","psychophysics","357","620233","0.0-13.0-0.0-1.0-0.1-0.98","922","","f","","","","","","","","","","","","","key","f","16.556479674797103","640","356","j","false","img/S_ambi40.png","坏人","image_first",""
"","","","","","html-keyboard-response","358","620536","0.0-13.0-0.0-1.0-0.1-1.98","null","<span style='color:red; font-size: 70px;'>错误! </span>","null","","","","","","","","","","","","","","","","","","","","","","","feedback_test"
"","","","","","psychophysics","359","622358","0.0-13.0-0.0-1.0-0.1-0.99","670","","f","","","","","","","","","","","","","key","f","16.669685185185195","640","356","f","true","img/S_ambi40.png","好人","image_first",""
"","","","","","html-keyboard-response","360","622662","0.0-13.0-0.0-1.0-0.1-1.99","null","<span style='color:GreenYellow; font-size: 70px;'>正确! </span>","null","","","","","","","","","","","","","","","","","","","","","","","feedback_test"
"","","","","","psychophysics","361","624214","0.0-13.0-0.0-1.0-0.1-0.100","400","","j","","","","","","","","","","","","","key","j","16.668945652174603","640","356","j","true","img/C_ambi40.png","好人","image_first",""
"","","","","","html-keyboard-response","362","624529","0.0-13.0-0.0-1.0-0.1-1.100","null","<span style='color:GreenYellow; font-size: 70px;'>正确! </span>","null","","","","","","","","","","","","","","","","","","","","","","","feedback_test"
"","","","","","psychophysics","363","626404","0.0-13.0-0.0-1.0-0.1-0.101","724","","j","","","","","","","","","","","","","key","j","16.669135135135967","640","356","f","false","img/S_ambi40.png","常人","image_first",""
"","","","","","html-keyboard-response","364","626714","0.0-13.0-0.0-1.0-0.1-1.101","null","<span style='color:red; font-size: 70px;'>错误! </span>","null","","","","","","","","","","","","","","","","","","","","","","","feedback_test"
"","","","","","psychophysics","365","628583","0.0-13.0-0.0-1.0-0.1-0.102","716","","f","","","","","","","","","","","","","key","f","16.669594594594177","640","356","f","true","img/C_ambi40.png","坏人","image_first",""
"","","","","","html-keyboard-response","366","628898","0.0-13.0-0.0-1.0-0.1-1.102","null","<span style='color:GreenYellow; font-size: 70px;'>正确! </span>","null","","","","","","","","","","","","","","","","","","","","","","","feedback_test"
"","","","","","psychophysics","367","630717","0.0-13.0-0.0-1.0-0.1-0.103","667","","f","","","","","","","","","","","","","key","f","16.669444444443798","640","356","f","true","img/C_ambi40.png","常人","image_first",""
"","","","","","html-keyboard-response","368","631023","0.0-13.0-0.0-1.0-0.1-1.103","null","<span style='color:GreenYellow; font-size: 70px;'>正确! </span>","null","","","","","","","","","","","","","","","","","","","","","","","feedback_test"
"","","","","","psychophysics","369","632643","0.0-13.0-0.0-1.0-0.1-0.104","463","","f","","","","","","","","","","","","","key","f","16.669906249999865","640","356","j","false","img/T_ambi40.png","常人","image_first",""
"","","","","","html-keyboard-response","370","632946","0.0-13.0-0.0-1.0-0.1-1.104","null","<span style='color:red; font-size: 70px;'>错误! </span>","null","","","","","","","","","","","","","","","","","","","","","","","feedback_test"
"","","","","","psychophysics","371","634829","0.0-13.0-0.0-1.0-0.1-0.105","733","","f","","","","","","","","","","","","","key","f","16.550018018018246","640","356","f","true","img/T_ambi40.png","好人","image_first",""
"","","","","","html-keyboard-response","372","635133","0.0-13.0-0.0-1.0-0.1-1.105","null","<span style='color:GreenYellow; font-size: 70px;'>正确! </span>","null","","","","","","","","","","","","","","","","","","","","","","","feedback_test"
"","","","","","psychophysics","373","636910","0.0-13.0-0.0-1.0-0.1-0.106","624","","f","","","","","","","","","","","","","key","f","16.67031428571458","640","356","f","true","img/T_ambi40.png","坏人","image_first",""
"","","","","","html-keyboard-response","374","637224","0.0-13.0-0.0-1.0-0.1-1.106","null","<span style='color:GreenYellow; font-size: 70px;'>正确! </span>","null","","","","","","","","","","","","","","","","","","","","","","","feedback_test"
"","","","","","psychophysics","375","638773","0.0-13.0-0.0-1.0-0.1-0.107","397","","j","","","","","","","","","","","","","key","j","16.67325000000014","640","356","j","true","img/S_ambi40.png","坏人","image_first",""
"","","","","","html-keyboard-response","376","639075","0.0-13.0-0.0-1.0-0.1-1.107","null","<span style='color:GreenYellow; font-size: 70px;'>正确! </span>","null","","","","","","","","","","","","","","","","","","","","","","","feedback_test"
"","","","","","psychophysics","377","641207","0.0-13.0-0.0-1.0-0.1-0.108","980","","f","","","","","","","","","","","","","key","f","16.66944094488166","640","356","j","false","img/T_ambi40.png","常人","image_first",""
"","","","","","html-keyboard-response","378","641515","0.0-13.0-0.0-1.0-0.1-1.108","null","<span style='color:red; font-size: 70px;'>错误! </span>","null","","","","","","","","","","","","","","","","","","","","","","","feedback_test"
"","","","","","psychophysics","379","643195","0.0-13.0-0.0-1.0-0.1-0.109","527","","j","","","","","","","","","","","","","key","j","16.669858585858503","640","356","j","true","img/C_ambi40.png","好人","image_first",""
"","","","","","html-keyboard-response","380","643500","0.0-13.0-0.0-1.0-0.1-1.109","null","<span style='color:GreenYellow; font-size: 70px;'>正确! </span>","null","","","","","","","","","","","","","","","","","","","","","","","feedback_test"
"","","","","","psychophysics","381","645131","0.0-13.0-0.0-1.0-0.1-0.110","479","","f","","","","","","","","","","","","","key","f","16.66973958333377","640","356","f","true","img/T_ambi40.png","好人","image_first",""
"","","","","","html-keyboard-response","382","645441","0.0-13.0-0.0-1.0-0.1-1.110","null","<span style='color:GreenYellow; font-size: 70px;'>正确! </span>","null","","","","","","","","","","","","","","","","","","","","","","","feedback_test"
"","","","","","psychophysics","383","647165","0.0-13.0-0.0-1.0-0.1-0.111","572","","j","","","","","","","","","","","","","key","j","16.669421568627047","640","356","f","false","img/S_ambi40.png","常人","image_first",""
"","","","","","html-keyboard-response","384","647471","0.0-13.0-0.0-1.0-0.1-1.111","null","<span style='color:red; font-size: 70px;'>错误! </span>","null","","","","","","","","","","","","","","","","","","","","","","","feedback_test"
"","","","","","psychophysics","385","649134","0.0-13.0-0.0-1.0-0.1-0.112","511","","j","","","","","","","","","","","","","key","j","16.669282828282444","640","356","j","true","img/C_ambi40.png","好人","image_first",""
"","","","","","html-keyboard-response","386","649443","0.0-13.0-0.0-1.0-0.1-1.112","null","<span style='color:GreenYellow; font-size: 70px;'>正确! </span>","null","","","","","","","","","","","","","","","","","","","","","","","feedback_test"
"","","","","","psychophysics","387","651119","0.0-13.0-0.0-1.0-0.1-0.113","524","","f","","","","","","","","","","","","","key","f","16.668819999999833","640","356","j","false","img/T_ambi40.png","常人","image_first",""
"","","","","","html-keyboard-response","388","651434","0.0-13.0-0.0-1.0-0.1-1.113","null","<span style='color:red; font-size: 70px;'>错误! </span>","null","","","","","","","","","","","","","","","","","","","","","","","feedback_test"
"","","","","","psychophysics","389","653147","0.0-13.0-0.0-1.0-0.1-0.114","560","","f","","","","","","","","","","","","","key","f","16.67007920792151","640","356","f","true","img/C_ambi40.png","坏人","image_first",""
"","","","","","html-keyboard-response","390","653454","0.0-13.0-0.0-1.0-0.1-1.114","null","<span style='color:GreenYellow; font-size: 70px;'>正确! </span>","null","","","","","","","","","","","","","","","","","","","","","","","feedback_test"
"","","","","","psychophysics","391","655391","0.0-13.0-0.0-1.0-0.1-0.115","784","","j","","","","","","","","","","","","","key","j","16.669278260870108","640","356","j","true","img/S_ambi40.png","坏人","image_first",""
"","","","","","html-keyboard-response","392","655703","0.0-13.0-0.0-1.0-0.1-1.115","null","<span style='color:GreenYellow; font-size: 70px;'>正确! </span>","null","","","","","","","","","","","","","","","","","","","","","","","feedback_test"
"","","","","","psychophysics","393","657603","0.0-13.0-0.0-1.0-0.1-0.116","747","","f","","","","","","","","","","","","","key","f","16.669185840708113","640","356","f","true","img/T_ambi40.png","坏人","image_first",""
"","","","","","html-keyboard-response","394","657922","0.0-13.0-0.0-1.0-0.1-1.116","null","<span style='color:GreenYellow; font-size: 70px;'>正确! </span>","null","","","","","","","","","","","","","","","","","","","","","","","feedback_test"
"","","","","","psychophysics","395","659832","0.0-13.0-0.0-1.0-0.1-0.117","759","","j","","","","","","","","","","","","","key","j","16.670115044247773","640","356","j","true","img/S_ambi40.png","坏人","image_first",""
"","","","","","html-keyboard-response","396","660141","0.0-13.0-0.0-1.0-0.1-1.117","null","<span style='color:GreenYellow; font-size: 70px;'>正确! </span>","null","","","","","","","","","","","","","","","","","","","","","","","feedback_test"
"","","","","","psychophysics","397","661825","0.0-13.0-0.0-1.0-0.1-0.118","531","","j","","","","","","","","","","","","","key","j","16.668460000000195","640","356","f","false","img/C_ambi40.png","常人","image_first",""
"","","","","","html-keyboard-response","398","662140","0.0-13.0-0.0-1.0-0.1-1.118","null","<span style='color:red; font-size: 70px;'>错误! </span>","null","","","","","","","","","","","","","","","","","","","","","","","feedback_test"
"","","","","","psychophysics","399","663917","0.0-13.0-0.0-1.0-0.1-0.119","625","","j","","","","","","","","","","","","","key","j","16.66941904761895","640","356","f","false","img/S_ambi40.png","好人","image_first",""
"","","","","","html-keyboard-response","400","664223","0.0-13.0-0.0-1.0-0.1-1.119","null","<span style='color:red; font-size: 70px;'>错误! </span>","null","","","","","","","","","","","","","","","","","","","","","","","feedback_test"
"","","","","","html-keyboard-response","401","666108","0.0-13.0-0.0-1.0-1.1","1883","<style>.context{color:white; font-size: 35px; line-height:40px}</style>                              <div><p class='context'>您正确回答了75% 的试次。</p><p class='context'>您的平均反应时为635毫秒。</p><p class='context'>请按任意键进入休息</p></div>"," ","","","","","","","","","","","","","","","","","","","","","","",""
"","","","","","html-button-response","402","738418","0.0-13.0-0.0-1.0-2.1","72306","
                      <p>您当前还剩余2组实验</p>
                      <p>现在是休息时间，当您结束休息后，您可以点击 结束休息 按钮 继续</p>
                      <p>建议休息时间还剩余<span id=""iii"">60</span>秒</p>","0","","","","","","","","","","","","","","","","","","","","","","",""
"","","","","","psychophysics","403","740149","0.0-13.0-0.0-1.0-0.2-0.120","578","","f","","","","","","","","","","","","","key","f","16.671281553397986","640","356","f","true","img/T_ambi40.png","坏人","image_first",""
"","","","","","html-keyboard-response","404","740454","0.0-13.0-0.0-1.0-0.2-1.120","null","<span style='color:GreenYellow; font-size: 70px;'>正确! </span>","null","","","","","","","","","","","","","","","","","","","","","","","feedback_test"
"","","","","","psychophysics","405","742340","0.0-13.0-0.0-1.0-0.2-0.121","735","","f","","","","","","","","","","","","","key","f","16.66927678571457","640","356","f","true","img/S_ambi40.png","好人","image_first",""
"","","","","","html-keyboard-response","406","742643","0.0-13.0-0.0-1.0-0.2-1.121","null","<span style='color:GreenYellow; font-size: 70px;'>正确! </span>","null","","","","","","","","","","","","","","","","","","","","","","","feedback_test"
"","","","","","psychophysics","407","744219","0.0-13.0-0.0-1.0-0.2-0.122","424","","j","","","","","","","","","","","","","key","j","16.669468085106928","640","356","j","true","img/C_ambi40.png","好人","image_first",""
"","","","","","html-keyboard-response","408","744532","0.0-13.0-0.0-1.0-0.2-1.122","null","<span style='color:GreenYellow; font-size: 70px;'>正确! </span>","null","","","","","","","","","","","","","","","","","","","","","","","feedback_test"
"","","","","","psychophysics","409","746302","0.0-13.0-0.0-1.0-0.2-0.123","618","","f","","","","","","","","","","","","","key","f","16.669257142857116","640","356","f","true","img/C_ambi40.png","常人","image_first",""
"","","","","","html-keyboard-response","410","746615","0.0-13.0-0.0-1.0-0.2-1.123","null","<span style='color:GreenYellow; font-size: 70px;'>正确! </span>","null","","","","","","","","","","","","","","","","","","","","","","","feedback_test"
"","","","","","psychophysics","411","748341","0.0-13.0-0.0-1.0-0.2-0.124","573","","j","","","","","","","","","","","","","key","j","16.668705882352786","640","356","j","true","img/S_ambi40.png","坏人","image_first",""
"","","","","","html-keyboard-response","412","748649","0.0-13.0-0.0-1.0-0.2-1.124","null","<span style='color:GreenYellow; font-size: 70px;'>正确! </span>","null","","","","","","","","","","","","","","","","","","","","","","","feedback_test"
"","","","","","psychophysics","413","750269","0.0-13.0-0.0-1.0-0.2-0.125","468","","j","","","","","","","","","","","","","key","j","16.668812500000058","640","356","j","true","img/S_ambi40.png","坏人","image_first",""
"","","","","","html-keyboard-response","414","750573","0.0-13.0-0.0-1.0-0.2-1.125","null","<span style='color:GreenYellow; font-size: 70px;'>正确! </span>","null","","","","","","","","","","","","","","","","","","","","","","","feedback_test"
"","","","","","psychophysics","415","752247","0.0-13.0-0.0-1.0-0.2-0.126","523","","f","","","","","","","","","","","","","key","f","16.669232323231892","640","356","f","true","img/S_ambi40.png","常人","image_first",""
"","","","","","html-keyboard-response","416","752560","0.0-13.0-0.0-1.0-0.2-1.126","null","<span style='color:GreenYellow; font-size: 70px;'>正确! </span>","null","","","","","","","","","","","","","","","","","","","","","","","feedback_test"
"","","","","","psychophysics","417","754269","0.0-13.0-0.0-1.0-0.2-0.127","557","","j","","","","","","","","","","","","","key","j","16.66896078431312","640","356","j","true","img/T_ambi40.png","常人","image_first",""
"","","","","","html-keyboard-response","418","754577","0.0-13.0-0.0-1.0-0.2-1.127","null","<span style='color:GreenYellow; font-size: 70px;'>正确! </span>","null","","","","","","","","","","","","","","","","","","","","","","","feedback_test"
"","","","","","psychophysics","419","756351","0.0-13.0-0.0-1.0-0.2-0.128","622","","f","","","","","","","","","","","","","key","f","16.66844339622624","640","356","j","false","img/T_ambi40.png","常人","image_first",""
"","","","","","html-keyboard-response","420","756658","0.0-13.0-0.0-1.0-0.2-1.128","null","<span style='color:red; font-size: 70px;'>错误! </span>","null","","","","","","","","","","","","","","","","","","","","","","","feedback_test"
"","","","","","psychophysics","421","758526","0.0-13.0-0.0-1.0-0.2-0.129","715","","f","","","","","","","","","","","","","key","f","16.669936936937045","640","356","f","true","img/C_ambi40.png","坏人","image_first",""
"","","","","","html-keyboard-response","422","758840","0.0-13.0-0.0-1.0-0.2-1.129","null","<span style='color:GreenYellow; font-size: 70px;'>正确! </span>","null","","","","","","","","","","","","","","","","","","","","","","","feedback_test"
"","","","","","psychophysics","423","760526","0.0-13.0-0.0-1.0-0.2-0.130","534","","j","","","","","","","","","","","","","key","j","16.667600000000093","640","356","j","true","img/C_ambi40.png","好人","image_first",""
"","","","","","html-keyboard-response","424","760827","0.0-13.0-0.0-1.0-0.2-1.130","null","<span style='color:GreenYellow; font-size: 70px;'>正确! </span>","null","","","","","","","","","","","","","","","","","","","","","","","feedback_test"
"","","","","","psychophysics","425","762559","0.0-13.0-0.0-1.0-0.2-0.131","581","","f","","","","","","","","","","","","","key","f","16.669417475728835","640","356","f","true","img/T_ambi40.png","好人","image_first",""
"","","","","","html-keyboard-response","426","762864","0.0-13.0-0.0-1.0-0.2-1.131","null","<span style='color:GreenYellow; font-size: 70px;'>正确! </span>","null","","","","","","","","","","","","","","","","","","","","","","","feedback_test"
"","","","","","psychophysics","427","764853","0.0-13.0-0.0-1.0-0.2-0.132","836","","f","","","","","","","","","","","","","key","f","16.670050420168348","640","356","f","true","img/S_ambi40.png","好人","image_first",""
"","","","","","html-keyboard-response","428","765161","0.0-13.0-0.0-1.0-0.2-1.132","null","<span style='color:GreenYellow; font-size: 70px;'>正确! </span>","null","","","","","","","","","","","","","","","","","","","","","","","feedback_test"
"","","","","","psychophysics","429","766855","0.0-13.0-0.0-1.0-0.2-0.133","543","","f","","","","","","","","","","","","","key","f","16.669673267326612","640","356","f","true","img/C_ambi40.png","常人","image_first",""
"","","","","","html-keyboard-response","430","767161","0.0-13.0-0.0-1.0-0.2-1.133","null","<span style='color:GreenYellow; font-size: 70px;'>正确! </span>","null","","","","","","","","","","","","","","","","","","","","","","","feedback_test"
"","","","","","psychophysics","431","768940","0.0-13.0-0.0-1.0-0.2-0.134","628","","f","","","","","","","","","","","","","key","f","16.669273584906477","640","356","j","false","img/T_ambi40.png","常人","image_first",""
"","","","","","html-keyboard-response","432","769243","0.0-13.0-0.0-1.0-0.2-1.134","null","<span style='color:red; font-size: 70px;'>错误! </span>","null","","","","","","","","","","","","","","","","","","","","","","","feedback_test"
