"success","timeout","failed_images","failed_audio","failed_video","trial_type","trial_index","time_elapsed","internal_node_id","rt","stimulus","response","value","item_width_mm","item_height_mm","item_width_px","px2mm","view_dist_mm","item_width_deg","px2deg","scale_factor","win_width_deg","win_height_deg","view_history","response_type","key_press","avg_frame_time","center_x","center_y","correct_response","correct","Image","word","condition","screen_id"
"true","false","[]","[]","[]","preload","0","28","0.0-0.0","","","","","","","","","","","","","","","","","","","","","","","","","",""
"","","","","","html-keyboard-response","1","6638","0.0-1.0","6608","
     <p>您好，欢迎参加本次实验。</p>
     <p>为充分保障您的权利，请确保您已经知晓并同意《参与实验同意书》以及《数据公开知情同意书》。</p>
     <p>如果您未见过上述内容，请咨询实验员。</p>
     <p>如果您选择继续实验，则表示您已经清楚两份知情同意书的内容并同意。</p>
     <p> <div style = ""color: green""><按任意键至下页></div> </p>
     "," ","","","","","","","","","","","","","","","","","","","","","","",""
"","","","","","html-keyboard-response","2","6644","0.0-2.0","5","
     <p>本实验首先需要您填写一些基本个人信息。</p>
     <p> <div style = ""color: green""><按任意键至下页></div></p>
     ","v","","","","","","","","","","","","","","","","","","","","","","",""
"","","","","","call-function","3","6644","0.0-3.0-0.0","","","","","","","","","","","","","","","","","","","","","","","","","",""
"","","","","","survey-html-form","4","14647","0.0-3.0-1.0","8001","","{""Q0"":""22""}","","","","","","","","","","","","","","","","","","","","","","",""
"","","","","","html-button-response","5","16037","0.0-3.0-2.0","1389","<p style = 'color : white'>您的性别</p>","0","","","","","","","","","","","","","","","","","","","","","","",""
"","","","","","survey-html-form","6","19577","0.0-3.0-3.0","3539","","{""Q0"":""2001""}","","","","","","","","","","","","","","","","","","","","","","",""
"","","","","","survey-html-form","7","22657","0.0-3.0-4.0","3079","","{""Q0"":""5""}","","","","","","","","","","","","","","","","","","","","","","",""
"","","","","","virtual-chinrest","8","66878","0.0-4.0","44220","","","","85.6","53.98","386.6556569504631","4.517660655042975","633.26","7.733113139009261","50","0.9983042871902245","29.8","15.84","","","","","","","","","","","",""
"true","","","","","fullscreen","9","71735","0.0-5.0","","","","","","","","","","","","","","","","","","","","","","","","","",""
"","","","","","instructions","10","168000","0.0-6.0","96264","","","","","","","","","","","","","","[{""page_index"":0,""viewing_time"":11255},{""page_index"":1,""viewing_time"":81575},{""page_index"":2,""viewing_time"":1900},{""page_index"":3,""viewing_time"":1534}]","","","","","","","","","","",""
"","","","","","psychophysics","11","170085","0.0-7.0-0.0-0.0","925","","f","","","","","","","","","","","","","key","f","16.542274193548373","768","428","f","true","img/S_ambi40.png","好人","prac_image_first",""
"","","","","","html-keyboard-response","12","170387","0.0-7.0-0.0-1.0","null","<span style='color:GreenYellow; font-size: 70px;'>正确! </span>","null","","","","","","","","","","","","","","","","","","","","","","","feedback_test"
"","","","","","psychophysics","13","172133","0.0-7.0-0.0-0.1","585","","j","","","","","","","","","","","","","key","j","16.65129807692294","768","428","j","true","img/T_ambi40.png","坏人","prac_image_first",""
"","","","","","html-keyboard-response","14","172434","0.0-7.0-0.0-1.1","null","<span style='color:GreenYellow; font-size: 70px;'>正确! </span>","null","","","","","","","","","","","","","","","","","","","","","","","feedback_test"
"","","","","","psychophysics","15","174188","0.0-7.0-0.0-0.2","592","","j","","","","","","","","","","","","","key","j","16.651600000000048","768","428","j","true","img/S_ambi40.png","坏人","prac_image_first",""
"","","","","","html-keyboard-response","16","174494","0.0-7.0-0.0-1.2","null","<span style='color:GreenYellow; font-size: 70px;'>正确! </span>","null","","","","","","","","","","","","","","","","","","","","","","","feedback_test"
"","","","","","psychophysics","17","176636","0.0-7.0-0.0-0.3","991","","f","","","","","","","","","","","","","key","f","16.651289062500155","768","428","f","true","img/T_ambi40.png","常人","prac_image_first",""
"","","","","","html-keyboard-response","18","176945","0.0-7.0-0.0-1.3","null","<span style='color:GreenYellow; font-size: 70px;'>正确! </span>","null","","","","","","","","","","","","","","","","","","","","","","","feedback_test"
"","","","","","psychophysics","19","178852","0.0-7.0-0.0-0.4","742","","j","","","","","","","","","","","","","key","j","16.65081415929192","768","428","f","false","img/S_ambi40.png","好人","prac_image_first",""
"","","","","","html-keyboard-response","20","179162","0.0-7.0-0.0-1.4","null","<span style='color:red; font-size: 70px;'>错误! </span>","null","","","","","","","","","","","","","","","","","","","","","","","feedback_test"
"","","","","","psychophysics","21","181436","0.0-7.0-0.0-0.5","1119","","f","","","","","","","","","","","","","key","f","16.65120000000008","768","428","f","true","img/T_ambi40.png","常人","prac_image_first",""
"","","","","","html-keyboard-response","22","181751","0.0-7.0-0.0-1.5","null","<span style='color:GreenYellow; font-size: 70px;'>正确! </span>","null","","","","","","","","","","","","","","","","","","","","","","","feedback_test"
"","","","","","psychophysics","23","183773","0.0-7.0-0.0-0.6","870","","j","","","","","","","","","","","","","key","j","16.65160655737716","768","428","j","true","img/T_ambi40.png","好人","prac_image_first",""
"","","","","","html-keyboard-response","24","184074","0.0-7.0-0.0-1.6","null","<span style='color:GreenYellow; font-size: 70px;'>正确! </span>","null","","","","","","","","","","","","","","","","","","","","","","","feedback_test"
"","","","","","psychophysics","25","185708","0.0-7.0-0.0-0.7","472","","j","","","","","","","","","","","","","key","j","16.651484536082357","768","428","f","false","img/C_ambi40.png","坏人","prac_image_first",""
"","","","","","html-keyboard-response","26","186016","0.0-7.0-0.0-1.7","null","<span style='color:red; font-size: 70px;'>错误! </span>","null","","","","","","","","","","","","","","","","","","","","","","","feedback_test"
"","","","","","psychophysics","27","188269","0.0-7.0-0.0-0.8","1101","","f","","","","","","","","","","","","","key","f","16.650999999999854","768","428","f","true","img/C_ambi40.png","坏人","prac_image_first",""
"","","","","","html-keyboard-response","28","188573","0.0-7.0-0.0-1.8","null","<span style='color:GreenYellow; font-size: 70px;'>正确! </span>","null","","","","","","","","","","","","","","","","","","","","","","","feedback_test"
"","","","","","psychophysics","29","190324","0.0-7.0-0.0-0.9","592","","j","","","","","","","","","","","","","key","j","16.651365384615367","768","428","j","true","img/C_ambi40.png","常人","prac_image_first",""
"","","","","","html-keyboard-response","30","190636","0.0-7.0-0.0-1.9","null","<span style='color:GreenYellow; font-size: 70px;'>正确! </span>","null","","","","","","","","","","","","","","","","","","","","","","","feedback_test"
"","","","","","psychophysics","31","193295","0.0-7.0-0.0-0.10","null","","null","","","","","","","","","","","","","key","null","16.651487341772135","768","428","j","false","img/S_ambi40.png","常人","prac_image_first",""
"","","","","","html-keyboard-response","32","193598","0.0-7.0-0.0-1.10","null","<span class='add_' style='color:yellow; font-size: 70px;'> 太慢! </span>","null","","","","","","","","","","","","","","","","","","","","","","","feedback_test"
"","","","","","psychophysics","33","195516","0.0-7.0-0.0-0.11","755","","j","","","","","","","","","","","","","key","j","16.653096491227892","768","428","j","true","img/C_ambi40.png","好人","prac_image_first",""
"","","","","","html-keyboard-response","34","195822","0.0-7.0-0.0-1.11","null","<span style='color:GreenYellow; font-size: 70px;'>正确! </span>","null","","","","","","","","","","","","","","","","","","","","","","","feedback_test"
"","","","","","psychophysics","35","197972","0.0-7.0-0.0-0.12","997","","f","","","","","","","","","","","","","key","f","16.65175781249991","768","428","f","true","img/T_ambi40.png","常人","prac_image_first",""
"","","","","","html-keyboard-response","36","198288","0.0-7.0-0.0-1.12","null","<span style='color:GreenYellow; font-size: 70px;'>正确! </span>","null","","","","","","","","","","","","","","","","","","","","","","","feedback_test"
"","","","","","psychophysics","37","200077","0.0-7.0-0.0-0.13","639","","f","","","","","","","","","","","","","key","f","16.651878504672798","768","428","f","true","img/S_ambi40.png","好人","prac_image_first",""
"","","","","","html-keyboard-response","38","200382","0.0-7.0-0.0-1.13","null","<span style='color:GreenYellow; font-size: 70px;'>正确! </span>","null","","","","","","","","","","","","","","","","","","","","","","","feedback_test"
"","","","","","psychophysics","39","202516","0.0-7.0-0.0-0.14","979","","j","","","","","","","","","","","","","key","j","16.652179687500166","768","428","j","true","img/T_ambi40.png","坏人","prac_image_first",""
"","","","","","html-keyboard-response","40","202829","0.0-7.0-0.0-1.14","null","<span style='color:GreenYellow; font-size: 70px;'>正确! </span>","null","","","","","","","","","","","","","","","","","","","","","","","feedback_test"
"","","","","","psychophysics","41","204661","0.0-7.0-0.0-0.15","676","","j","","","","","","","","","","","","","key","j","16.651572727272818","768","428","f","false","img/T_ambi40.png","常人","prac_image_first",""
"","","","","","html-keyboard-response","42","204968","0.0-7.0-0.0-1.15","null","<span style='color:red; font-size: 70px;'>错误! </span>","null","","","","","","","","","","","","","","","","","","","","","","","feedback_test"
"","","","","","psychophysics","43","206860","0.0-7.0-0.0-0.16","740","","f","","","","","","","","","","","","","key","f","16.652116071428672","768","428","f","true","img/S_ambi40.png","好人","prac_image_first",""
"","","","","","html-keyboard-response","44","207162","0.0-7.0-0.0-1.16","null","<span style='color:GreenYellow; font-size: 70px;'>正确! </span>","null","","","","","","","","","","","","","","","","","","","","","","","feedback_test"
"","","","","","psychophysics","45","208924","0.0-7.0-0.0-0.17","609","","j","","","","","","","","","","","","","key","j","16.651358490565986","768","428","j","true","img/S_ambi40.png","常人","prac_image_first",""
"","","","","","html-keyboard-response","46","209232","0.0-7.0-0.0-1.17","null","<span style='color:GreenYellow; font-size: 70px;'>正确! </span>","null","","","","","","","","","","","","","","","","","","","","","","","feedback_test"
"","","","","","psychophysics","47","211133","0.0-7.0-0.0-0.18","737","","j","","","","","","","","","","","","","key","j","16.651570175438682","768","428","j","true","img/C_ambi40.png","好人","prac_image_first",""
"","","","","","html-keyboard-response","48","211438","0.0-7.0-0.0-1.18","null","<span style='color:GreenYellow; font-size: 70px;'>正确! </span>","null","","","","","","","","","","","","","","","","","","","","","","","feedback_test"
"","","","","","psychophysics","49","213333","0.0-7.0-0.0-0.19","739","","j","","","","","","","","","","","","","key","j","16.6511769911503","768","428","j","true","img/C_ambi40.png","常人","prac_image_first",""
"","","","","","html-keyboard-response","50","213636","0.0-7.0-0.0-1.19","null","<span style='color:GreenYellow; font-size: 70px;'>正确! </span>","null","","","","","","","","","","","","","","","","","","","","","","","feedback_test"
"","","","","","psychophysics","51","215548","0.0-7.0-0.0-0.20","756","","j","","","","","","","","","","","","","key","j","16.651739130434883","768","428","j","true","img/S_ambi40.png","坏人","prac_image_first",""
"","","","","","html-keyboard-response","52","215853","0.0-7.0-0.0-1.20","null","<span style='color:GreenYellow; font-size: 70px;'>正确! </span>","null","","","","","","","","","","","","","","","","","","","","","","","feedback_test"
"","","","","","psychophysics","53","218180","0.0-7.0-0.0-0.21","1173","","f","","","","","","","","","","","","","key","f","16.652507142857317","768","428","f","true","img/C_ambi40.png","坏人","prac_image_first",""
"","","","","","html-keyboard-response","54","218489","0.0-7.0-0.0-1.21","null","<span style='color:GreenYellow; font-size: 70px;'>正确! </span>","null","","","","","","","","","","","","","","","","","","","","","","","feedback_test"
"","","","","","psychophysics","55","220292","0.0-7.0-0.0-0.22","639","","j","","","","","","","","","","","","","key","j","16.650280373831656","768","428","j","true","img/T_ambi40.png","好人","prac_image_first",""
"","","","","","html-keyboard-response","56","220600","0.0-7.0-0.0-1.22","null","<span style='color:GreenYellow; font-size: 70px;'>正确! </span>","null","","","","","","","","","","","","","","","","","","","","","","","feedback_test"
"","","","","","psychophysics","57","222556","0.0-7.0-0.0-0.23","804","","f","","","","","","","","","","","","","key","f","16.793999999999883","768","428","f","true","img/C_ambi40.png","坏人","prac_image_first",""
"","","","","","html-keyboard-response","58","222857","0.0-7.0-0.0-1.23","null","<span style='color:GreenYellow; font-size: 70px;'>正确! </span>","null","","","","","","","","","","","","","","","","","","","","","","","feedback_test"
"","","","","","html-keyboard-response","59","226396","0.0-8.0","3538","<style>.context{color:white; font-size: 35px; line-height:40px}</style>                              <div><p class='context'>您正确回答了83% 的试次。</p><p class='context'>您的平均反应时为817毫秒。</p><p class='context'>恭喜您完成这一阶段的练习。按任意键进入<span style='color: yellow;'>先文字后图形条件</span>的练习。</p></div>"," ","","","","","","","","","","","","","","","","","","","","","","",""
"","","","","","psychophysics","60","228580","0.0-9.0-0.0-0.0","1021","","j","","","","","","","","","","","","","key","j","16.640376923076783","768","428","j","true","img/T_ambi40.png","好人","prac_word_first",""
"","","","","","html-keyboard-response","61","228884","0.0-9.0-0.0-1.0","null","<span style='color:GreenYellow; font-size: 70px;'>正确! </span>","null","","","","","","","","","","","","","","","","","","","","","","","feedback_test"
"","","","","","psychophysics","62","231013","0.0-9.0-0.0-0.1","969","","j","","","","","","","","","","","","","key","j","16.651149606299413","768","428","j","true","img/T_ambi40.png","坏人","prac_word_first",""
"","","","","","html-keyboard-response","63","231323","0.0-9.0-0.0-1.1","null","<span style='color:GreenYellow; font-size: 70px;'>正确! </span>","null","","","","","","","","","","","","","","","","","","","","","","","feedback_test"
"","","","","","psychophysics","64","233132","0.0-9.0-0.0-0.2","657","","j","","","","","","","","","","","","","key","j","16.80521296296286","768","428","j","true","img/C_ambi40.png","好人","prac_word_first",""
"","","","","","html-keyboard-response","65","233438","0.0-9.0-0.0-1.2","null","<span style='color:GreenYellow; font-size: 70px;'>正确! </span>","null","","","","","","","","","","","","","","","","","","","","","","","feedback_test"
"","","","","","psychophysics","66","235398","0.0-9.0-0.0-0.3","808","","f","","","","","","","","","","","","","key","f","16.65211965811974","768","428","f","true","img/C_ambi40.png","坏人","prac_word_first",""
"","","","","","html-keyboard-response","67","235708","0.0-9.0-0.0-1.3","null","<span style='color:GreenYellow; font-size: 70px;'>正确! </span>","null","","","","","","","","","","","","","","","","","","","","","","","feedback_test"
"","","","","","psychophysics","68","237708","0.0-9.0-0.0-0.4","848","","f","","","","","","","","","","","","","key","f","16.650386554621914","768","428","f","true","img/S_ambi40.png","好人","prac_word_first",""
"","","","","","html-keyboard-response","69","238009","0.0-9.0-0.0-1.4","null","<span style='color:GreenYellow; font-size: 70px;'>正确! </span>","null","","","","","","","","","","","","","","","","","","","","","","","feedback_test"
"","","","","","psychophysics","70","239628","0.0-9.0-0.0-0.5","459","","f","","","","","","","","","","","","","key","f","16.65184536082496","768","428","f","true","img/T_ambi40.png","常人","prac_word_first",""
"","","","","","html-keyboard-response","71","239930","0.0-9.0-0.0-1.5","null","<span style='color:GreenYellow; font-size: 70px;'>正确! </span>","null","","","","","","","","","","","","","","","","","","","","","","","feedback_test"
"","","","","","psychophysics","72","241844","0.0-9.0-0.0-0.6","761","","f","","","","","","","","","","","","","key","f","16.651156521739143","768","428","f","true","img/S_ambi40.png","好人","prac_word_first",""
"","","","","","html-keyboard-response","73","242151","0.0-9.0-0.0-1.6","null","<span style='color:GreenYellow; font-size: 70px;'>正确! </span>","null","","","","","","","","","","","","","","","","","","","","","","","feedback_test"
"","","","","","psychophysics","74","244092","0.0-9.0-0.0-0.7","777","","j","","","","","","","","","","","","","key","j","16.65112173913057","768","428","j","true","img/S_ambi40.png","常人","prac_word_first",""
"","","","","","html-keyboard-response","75","244402","0.0-9.0-0.0-1.7","null","<span style='color:GreenYellow; font-size: 70px;'>正确! </span>","null","","","","","","","","","","","","","","","","","","","","","","","feedback_test"
"","","","","","psychophysics","76","246300","0.0-9.0-0.0-0.8","737","","j","","","","","","","","","","","","","key","j","16.649194690265457","768","428","j","true","img/C_ambi40.png","常人","prac_word_first",""
"","","","","","html-keyboard-response","77","246607","0.0-9.0-0.0-1.8","null","<span style='color:GreenYellow; font-size: 70px;'>正确! </span>","null","","","","","","","","","","","","","","","","","","","","","","","feedback_test"
"","","","","","psychophysics","78","248324","0.0-9.0-0.0-0.9","563","","f","","","","","","","","","","","","","key","f","16.651067961165026","768","428","f","true","img/C_ambi40.png","坏人","prac_word_first",""
"","","","","","html-keyboard-response","79","248640","0.0-9.0-0.0-1.9","null","<span style='color:GreenYellow; font-size: 70px;'>正确! </span>","null","","","","","","","","","","","","","","","","","","","","","","","feedback_test"
"","","","","","psychophysics","80","250444","0.0-9.0-0.0-0.10","652","","f","","","","","","","","","","","","","key","f","16.653148148148222","768","428","f","true","img/T_ambi40.png","常人","prac_word_first",""
"","","","","","html-keyboard-response","81","250748","0.0-9.0-0.0-1.10","null","<span style='color:GreenYellow; font-size: 70px;'>正确! </span>","null","","","","","","","","","","","","","","","","","","","","","","","feedback_test"
"","","","","","psychophysics","82","252604","0.0-9.0-0.0-0.11","697","","j","","","","","","","","","","","","","key","j","16.650563636363685","768","428","j","true","img/S_ambi40.png","坏人","prac_word_first",""
"","","","","","html-keyboard-response","83","252905","0.0-9.0-0.0-1.11","null","<span style='color:GreenYellow; font-size: 70px;'>正确! </span>","null","","","","","","","","","","","","","","","","","","","","","","","feedback_test"
"","","","","","psychophysics","84","254620","0.0-9.0-0.0-0.12","562","","f","","","","","","","","","","","","","key","f","16.65294059405955","768","428","f","true","img/C_ambi40.png","坏人","prac_word_first",""
"","","","","","html-keyboard-response","85","254927","0.0-9.0-0.0-1.12","null","<span style='color:GreenYellow; font-size: 70px;'>正确! </span>","null","","","","","","","","","","","","","","","","","","","","","","","feedback_test"
"","","","","","psychophysics","86","256740","0.0-9.0-0.0-0.13","661","","j","","","","","","","","","","","","","key","j","16.650458715596276","768","428","j","true","img/T_ambi40.png","好人","prac_word_first",""
"","","","","","html-keyboard-response","87","257054","0.0-9.0-0.0-1.13","null","<span style='color:GreenYellow; font-size: 70px;'>正确! </span>","null","","","","","","","","","","","","","","","","","","","","","","","feedback_test"
"","","","","","psychophysics","88","259101","0.0-9.0-0.0-0.14","886","","j","","","","","","","","","","","","","key","j","16.650467213114663","768","428","f","false","img/T_ambi40.png","常人","prac_word_first",""
"","","","","","html-keyboard-response","89","259407","0.0-9.0-0.0-1.14","null","<span style='color:red; font-size: 70px;'>错误! </span>","null","","","","","","","","","","","","","","","","","","","","","","","feedback_test"
"","","","","","psychophysics","90","261268","0.0-9.0-0.0-0.15","710","","j","","","","","","","","","","","","","key","j","16.65138738738742","768","428","j","true","img/C_ambi40.png","好人","prac_word_first",""
"","","","","","html-keyboard-response","91","261582","0.0-9.0-0.0-1.15","null","<span style='color:GreenYellow; font-size: 70px;'>正确! </span>","null","","","","","","","","","","","","","","","","","","","","","","","feedback_test"
"","","","","","psychophysics","92","263452","0.0-9.0-0.0-0.16","705","","j","","","","","","","","","","","","","key","j","16.65173214285746","768","428","f","false","img/C_ambi40.png","坏人","prac_word_first",""
"","","","","","html-keyboard-response","93","263756","0.0-9.0-0.0-1.16","null","<span style='color:red; font-size: 70px;'>错误! </span>","null","","","","","","","","","","","","","","","","","","","","","","","feedback_test"
"","","","","","psychophysics","94","265604","0.0-9.0-0.0-0.17","697","","f","","","","","","","","","","","","","key","f","16.650954545454905","768","428","f","true","img/S_ambi40.png","好人","prac_word_first",""
"","","","","","html-keyboard-response","95","265916","0.0-9.0-0.0-1.17","null","<span style='color:GreenYellow; font-size: 70px;'>正确! </span>","null","","","","","","","","","","","","","","","","","","","","","","","feedback_test"
"","","","","","psychophysics","96","267684","0.0-9.0-0.0-0.18","616","","j","","","","","","","","","","","","","key","j","16.650405660377626","768","428","f","false","img/T_ambi40.png","常人","prac_word_first",""
"","","","","","html-keyboard-response","97","267996","0.0-9.0-0.0-1.18","null","<span style='color:red; font-size: 70px;'>错误! </span>","null","","","","","","","","","","","","","","","","","","","","","","","feedback_test"
"","","","","","psychophysics","98","270212","0.0-9.0-0.0-0.19","1062","","j","","","","","","","","","","","","","key","j","16.650736842105335","768","428","j","true","img/T_ambi40.png","坏人","prac_word_first",""
"","","","","","html-keyboard-response","99","270519","0.0-9.0-0.0-1.19","null","<span style='color:GreenYellow; font-size: 70px;'>正确! </span>","null","","","","","","","","","","","","","","","","","","","","","","","feedback_test"
"","","","","","psychophysics","100","272340","0.0-9.0-0.0-0.20","668","","j","","","","","","","","","","","","","key","j","16.65070642201858","768","428","j","true","img/S_ambi40.png","坏人","prac_word_first",""
"","","","","","html-keyboard-response","101","272643","0.0-9.0-0.0-1.20","null","<span style='color:GreenYellow; font-size: 70px;'>正确! </span>","null","","","","","","","","","","","","","","","","","","","","","","","feedback_test"
"","","","","","psychophysics","102","274412","0.0-9.0-0.0-0.21","609","","f","","","","","","","","","","","","","key","f","16.650471698113318","768","428","f","true","img/S_ambi40.png","好人","prac_word_first",""
"","","","","","html-keyboard-response","103","274724","0.0-9.0-0.0-1.21","null","<span style='color:GreenYellow; font-size: 70px;'>正确! </span>","null","","","","","","","","","","","","","","","","","","","","","","","feedback_test"
"","","","","","psychophysics","104","276412","0.0-9.0-0.0-0.22","528","","f","","","","","","","","","","","","","key","f","16.651240000000108","768","428","j","false","img/C_ambi40.png","常人","prac_word_first",""
"","","","","","html-keyboard-response","105","276727","0.0-9.0-0.0-1.22","null","<span style='color:red; font-size: 70px;'>错误! </span>","null","","","","","","","","","","","","","","","","","","","","","","","feedback_test"
"","","","","","psychophysics","106","278685","0.0-9.0-0.0-0.23","806","","j","","","","","","","","","","","","","key","j","16.651222222221968","768","428","j","true","img/S_ambi40.png","常人","prac_word_first",""
"","","","","","html-keyboard-response","107","278994","0.0-9.0-0.0-1.23","null","<span style='color:GreenYellow; font-size: 70px;'>正确! </span>","null","","","","","","","","","","","","","","","","","","","","","","","feedback_test"
"","","","","","html-keyboard-response","108","281213","0.0-10.0","2218","<style>.context{color:white; font-size: 35px; line-height:40px}</style>                              <div><p class='context'>您正确回答了83% 的试次。</p><p class='context'>您的平均反应时为736毫秒。</p><p class='context'>恭喜您完成练习。按任意键进入<span style='color: yellow;'>图形和文字同时呈现条件</span>的练习。</p></div>"," ","","","","","","","","","","","","","","","","","","","","","","",""
"","","","","","psychophysics","109","283726","0.0-11.0-0.0-0.0","null","","null","","","","","","","","","","","","","key","null","16.65160402684549","768","428","j","false","img/S_ambi40.png","常人","prac_simultaneous",""
"","","","","","html-keyboard-response","110","284034","0.0-11.0-0.0-1.0","null","<span class='add_' style='color:yellow; font-size: 70px;'> 太慢! </span>","null","","","","","","","","","","","","","","","","","","","","","","","feedback_test"
"","","","","","psychophysics","111","285797","0.0-11.0-0.0-0.1","754","","j","","","","","","","","","","","","","key","j","16.651142857142812","768","428","j","true","img/T_ambi40.png","好人","prac_simultaneous",""
"","","","","","html-keyboard-response","112","286100","0.0-11.0-0.0-1.1","null","<span style='color:GreenYellow; font-size: 70px;'>正确! </span>","null","","","","","","","","","","","","","","","","","","","","","","","feedback_test"
"","","","","","psychophysics","113","287860","0.0-11.0-0.0-0.2","756","","j","","","","","","","","","","","","","key","j","16.650095238095325","768","428","f","false","img/T_ambi40.png","常人","prac_simultaneous",""
"","","","","","html-keyboard-response","114","288162","0.0-11.0-0.0-1.2","null","<span style='color:red; font-size: 70px;'>错误! </span>","null","","","","","","","","","","","","","","","","","","","","","","","feedback_test"
"","","","","","psychophysics","115","289964","0.0-11.0-0.0-0.3","791","","f","","","","","","","","","","","","","key","f","16.65141666666669","768","428","f","true","img/C_ambi40.png","坏人","prac_simultaneous",""
"","","","","","html-keyboard-response","116","290273","0.0-11.0-0.0-1.3","null","<span style='color:GreenYellow; font-size: 70px;'>正确! </span>","null","","","","","","","","","","","","","","","","","","","","","","","feedback_test"
"","","","","","psychophysics","117","291917","0.0-11.0-0.0-0.4","636","","f","","","","","","","","","","","","","key","f","16.651257731958374","768","428","f","true","img/S_ambi40.png","好人","prac_simultaneous",""
"","","","","","html-keyboard-response","118","292226","0.0-11.0-0.0-1.4","null","<span style='color:GreenYellow; font-size: 70px;'>正确! </span>","null","","","","","","","","","","","","","","","","","","","","","","","feedback_test"
"","","","","","psychophysics","119","293892","0.0-11.0-0.0-0.5","658","","f","","","","","","","","","","","","","key","f","16.652242424242868","768","428","f","true","img/S_ambi40.png","好人","prac_simultaneous",""
"","","","","","html-keyboard-response","120","294198","0.0-11.0-0.0-1.5","null","<span style='color:GreenYellow; font-size: 70px;'>正确! </span>","null","","","","","","","","","","","","","","","","","","","","","","","feedback_test"
"","","","","","psychophysics","121","295805","0.0-11.0-0.0-0.6","605","","j","","","","","","","","","","","","","key","j","16.65079381443277","768","428","j","true","img/S_ambi40.png","坏人","prac_simultaneous",""
"","","","","","html-keyboard-response","122","296109","0.0-11.0-0.0-1.6","null","<span style='color:GreenYellow; font-size: 70px;'>正确! </span>","null","","","","","","","","","","","","","","","","","","","","","","","feedback_test"
"","","","","","psychophysics","123","297660","0.0-11.0-0.0-0.7","545","","j","","","","","","","","","","","","","key","j","16.65191304347789","768","428","f","false","img/C_ambi40.png","坏人","prac_simultaneous",""
"","","","","","html-keyboard-response","124","297963","0.0-11.0-0.0-1.7","null","<span style='color:red; font-size: 70px;'>错误! </span>","null","","","","","","","","","","","","","","","","","","","","","","","feedback_test"
"","","","","","psychophysics","125","299636","0.0-11.0-0.0-0.8","661","","j","","","","","","","","","","","","","key","j","16.652070707070635","768","428","j","true","img/T_ambi40.png","坏人","prac_simultaneous",""
"","","","","","html-keyboard-response","126","299952","0.0-11.0-0.0-1.8","null","<span style='color:GreenYellow; font-size: 70px;'>正确! </span>","null","","","","","","","","","","","","","","","","","","","","","","","feedback_test"
"","","","","","psychophysics","127","301684","0.0-11.0-0.0-0.9","723","","j","","","","","","","","","","","","","key","j","16.651499999999942","768","428","j","true","img/C_ambi40.png","常人","prac_simultaneous",""
"","","","","","html-keyboard-response","128","301999","0.0-11.0-0.0-1.9","null","<span style='color:GreenYellow; font-size: 70px;'>正确! </span>","null","","","","","","","","","","","","","","","","","","","","","","","feedback_test"
"","","","","","psychophysics","129","303604","0.0-11.0-0.0-0.10","597","","j","","","","","","","","","","","","","key","j","16.651833333333343","768","428","j","true","img/C_ambi40.png","好人","prac_simultaneous",""
"","","","","","html-keyboard-response","130","303909","0.0-11.0-0.0-1.10","null","<span style='color:GreenYellow; font-size: 70px;'>正确! </span>","null","","","","","","","","","","","","","","","","","","","","","","","feedback_test"
"","","","","","psychophysics","131","305548","0.0-11.0-0.0-0.11","631","","f","","","","","","","","","","","","","key","f","16.65176288659814","768","428","f","true","img/T_ambi40.png","常人","prac_simultaneous",""
"","","","","","html-keyboard-response","132","305852","0.0-11.0-0.0-1.11","null","<span style='color:GreenYellow; font-size: 70px;'>正确! </span>","null","","","","","","","","","","","","","","","","","","","","","","","feedback_test"
"","","","","","psychophysics","133","307428","0.0-11.0-0.0-0.12","572","","j","","","","","","","","","","","","","key","j","16.652000000000005","768","428","j","true","img/S_ambi40.png","坏人","prac_simultaneous",""
"","","","","","html-keyboard-response","134","307731","0.0-11.0-0.0-1.12","null","<span style='color:GreenYellow; font-size: 70px;'>正确! </span>","null","","","","","","","","","","","","","","","","","","","","","","","feedback_test"
"","","","","","psychophysics","135","309348","0.0-11.0-0.0-0.13","610","","f","","","","","","","","","","","","","key","f","16.651791666666515","768","428","f","true","img/S_ambi40.png","好人","prac_simultaneous",""
"","","","","","html-keyboard-response","136","309656","0.0-11.0-0.0-1.13","null","<span style='color:GreenYellow; font-size: 70px;'>正确! </span>","null","","","","","","","","","","","","","","","","","","","","","","","feedback_test"
"","","","","","psychophysics","137","311244","0.0-11.0-0.0-0.14","579","","j","","","","","","","","","","","","","key","j","16.650308510637842","768","428","j","true","img/C_ambi40.png","常人","prac_simultaneous",""
"","","","","","html-keyboard-response","138","311548","0.0-11.0-0.0-1.14","null","<span style='color:GreenYellow; font-size: 70px;'>正确! </span>","null","","","","","","","","","","","","","","","","","","","","","","","feedback_test"
"","","","","","psychophysics","139","313453","0.0-11.0-0.0-0.15","902","","f","","","","","","","","","","","","","key","f","16.6522608695653","768","428","f","true","img/T_ambi40.png","常人","prac_simultaneous",""
"","","","","","html-keyboard-response","140","313769","0.0-11.0-0.0-1.15","null","<span style='color:GreenYellow; font-size: 70px;'>正确! </span>","null","","","","","","","","","","","","","","","","","","","","","","","feedback_test"
"","","","","","psychophysics","141","315660","0.0-11.0-0.0-0.16","881","","j","","","","","","","","","","","","","key","j","16.651115044247796","768","428","j","true","img/S_ambi40.png","常人","prac_simultaneous",""
"","","","","","html-keyboard-response","142","315975","0.0-11.0-0.0-1.16","null","<span style='color:GreenYellow; font-size: 70px;'>正确! </span>","null","","","","","","","","","","","","","","","","","","","","","","","feedback_test"
"","","","","","psychophysics","143","317541","0.0-11.0-0.0-0.17","561","","j","","","","","","","","","","","","","key","j","16.65323655913967","768","428","f","false","img/C_ambi40.png","坏人","prac_simultaneous",""
"","","","","","html-keyboard-response","144","317852","0.0-11.0-0.0-1.17","null","<span style='color:red; font-size: 70px;'>错误! </span>","null","","","","","","","","","","","","","","","","","","","","","","","feedback_test"
"","","","","","psychophysics","145","319476","0.0-11.0-0.0-0.18","615","","j","","","","","","","","","","","","","key","j","16.6526770833334","768","428","j","true","img/T_ambi40.png","坏人","prac_simultaneous",""
"","","","","","html-keyboard-response","146","319779","0.0-11.0-0.0-1.18","null","<span style='color:GreenYellow; font-size: 70px;'>正确! </span>","null","","","","","","","","","","","","","","","","","","","","","","","feedback_test"
"","","","","","psychophysics","147","321324","0.0-11.0-0.0-0.19","537","","f","","","","","","","","","","","","","key","f","16.652043478261","768","428","f","true","img/S_ambi40.png","好人","prac_simultaneous",""
"","","","","","html-keyboard-response","148","321637","0.0-11.0-0.0-1.19","null","<span style='color:GreenYellow; font-size: 70px;'>正确! </span>","null","","","","","","","","","","","","","","","","","","","","","","","feedback_test"
"","","","","","psychophysics","149","323236","0.0-11.0-0.0-0.20","595","","j","","","","","","","","","","","","","key","j","16.651726315789364","768","428","f","false","img/C_ambi40.png","坏人","prac_simultaneous",""
"","","","","","html-keyboard-response","150","323540","0.0-11.0-0.0-1.20","null","<span style='color:red; font-size: 70px;'>错误! </span>","null","","","","","","","","","","","","","","","","","","","","","","","feedback_test"
"","","","","","psychophysics","151","325804","0.0-11.0-0.0-0.21","1257","","j","","","","","","","","","","","","","key","j","16.652380597014883","768","428","f","false","img/T_ambi40.png","常人","prac_simultaneous",""
"","","","","","html-keyboard-response","152","326119","0.0-11.0-0.0-1.21","null","<span style='color:red; font-size: 70px;'>错误! </span>","null","","","","","","","","","","","","","","","","","","","","","","","feedback_test"
"","","","","","psychophysics","153","327876","0.0-11.0-0.0-0.22","756","","j","","","","","","","","","","","","","key","j","16.81087619047612","768","428","j","true","img/T_ambi40.png","好人","prac_simultaneous",""
"","","","","","html-keyboard-response","154","328178","0.0-11.0-0.0-1.22","null","<span style='color:GreenYellow; font-size: 70px;'>正确! </span>","null","","","","","","","","","","","","","","","","","","","","","","","feedback_test"
"","","","","","psychophysics","155","329996","0.0-11.0-0.0-0.23","811","","j","","","","","","","","","","","","","key","j","16.652055045871766","768","428","j","true","img/C_ambi40.png","好人","prac_simultaneous",""
"","","","","","html-keyboard-response","156","330305","0.0-11.0-0.0-1.23","null","<span style='color:GreenYellow; font-size: 70px;'>正确! </span>","null","","","","","","","","","","","","","","","","","","","","","","","feedback_test"
"","","","","","html-keyboard-response","157","334124","0.0-12.0","3818","<style>.context{color:white; font-size: 35px; line-height:40px}</style>                              <div><p class='context'>您正确回答了75% 的试次。</p><p class='context'>您的平均反应时为684毫秒。</p><p class='context'>恭喜您完成练习。按任意键进入正式实验。</p><p class='footer' style='font-size: 35px; line-height:40px;'>请在进入正式实验实验之前将您的<span style='color: lightgreen;'>食指</span>放在电脑键盘的相应键位上进行按键。</p>"," ","","","","","","","","","","","","","","","","","","","","","","",""
"","","","","","html-keyboard-response","158","351388","0.0-13.0-0.0-0.0","17261","
      <p>请您将手指放在按键上，准备进入呈现顺序为<span style='color: yellow;'>先图形后文字条件</span>的正式匹配任务</p>
      <p> <div style = ""color: green""><按任意键进入下一阶段的匹配任务></div></p>
      "," ","","","","","","","","","","","","","","","","","","","","","","",""
"","","","","","psychophysics","159","353428","0.0-13.0-0.0-1.0-0.0-0.0","882","","f","","","","","","","","","","","","","key","f","16.652239669421746","768","428","j","false","img/T_ambi40.png","好人","image_first",""
"","","","","","html-keyboard-response","160","353735","0.0-13.0-0.0-1.0-0.0-1.0","null","<span style='color:red; font-size: 70px;'>错误! </span>","null","","","","","","","","","","","","","","","","","","","","","","","feedback_test"
"","","","","","psychophysics","161","355524","0.0-13.0-0.0-1.0-0.0-0.1","630","","f","","","","","","","","","","","","","key","f","16.652735849056626","768","428","f","true","img/S_ambi40.png","好人","image_first",""
"","","","","","html-keyboard-response","162","355827","0.0-13.0-0.0-1.0-0.0-1.1","null","<span style='color:GreenYellow; font-size: 70px;'>正确! </span>","null","","","","","","","","","","","","","","","","","","","","","","","feedback_test"
"","","","","","psychophysics","163","357478","0.0-13.0-0.0-1.0-0.0-0.2","487","","j","","","","","","","","","","","","","key","j","16.65309183673496","768","428","j","true","img/S_ambi40.png","坏人","image_first",""
"","","","","","html-keyboard-response","164","357790","0.0-13.0-0.0-1.0-0.0-1.2","null","<span style='color:GreenYellow; font-size: 70px;'>正确! </span>","null","","","","","","","","","","","","","","","","","","","","","","","feedback_test"
"","","","","","psychophysics","165","359620","0.0-13.0-0.0-1.0-0.0-0.3","679","","j","","","","","","","","","","","","","key","j","16.52117592592603","768","428","j","true","img/S_ambi40.png","常人","image_first",""
"","","","","","html-keyboard-response","166","359928","0.0-13.0-0.0-1.0-0.0-1.3","null","<span style='color:GreenYellow; font-size: 70px;'>正确! </span>","null","","","","","","","","","","","","","","","","","","","","","","","feedback_test"
"","","","","","psychophysics","167","361628","0.0-13.0-0.0-1.0-0.0-0.4","539","","f","","","","","","","","","","","","","key","f","16.651346534653683","768","428","f","true","img/C_ambi40.png","坏人","image_first",""
"","","","","","html-keyboard-response","168","361930","0.0-13.0-0.0-1.0-0.0-1.4","null","<span style='color:GreenYellow; font-size: 70px;'>正确! </span>","null","","","","","","","","","","","","","","","","","","","","","","","feedback_test"
"","","","","","psychophysics","169","363516","0.0-13.0-0.0-1.0-0.0-0.5","430","","j","","","","","","","","","","","","","key","j","16.652755319148902","768","428","f","false","img/C_ambi40.png","坏人","image_first",""
"","","","","","html-keyboard-response","170","363822","0.0-13.0-0.0-1.0-0.0-1.5","null","<span style='color:red; font-size: 70px;'>错误! </span>","null","","","","","","","","","","","","","","","","","","","","","","","feedback_test"
"","","","","","psychophysics","171","365564","0.0-13.0-0.0-1.0-0.0-0.6","579","","f","","","","","","","","","","","","","key","f","16.650442307692384","768","428","f","true","img/T_ambi40.png","常人","image_first",""
"","","","","","html-keyboard-response","172","365868","0.0-13.0-0.0-1.0-0.0-1.6","null","<span style='color:GreenYellow; font-size: 70px;'>正确! </span>","null","","","","","","","","","","","","","","","","","","","","","","","feedback_test"
"","","","","","psychophysics","173","367580","0.0-13.0-0.0-1.0-0.0-0.7","550","","j","","","","","","","","","","","","","key","j","16.65115841584151","768","428","j","true","img/C_ambi40.png","好人","image_first",""
"","","","","","html-keyboard-response","174","367883","0.0-13.0-0.0-1.0-0.0-1.7","null","<span style='color:GreenYellow; font-size: 70px;'>正确! </span>","null","","","","","","","","","","","","","","","","","","","","","","","feedback_test"
"","","","","","psychophysics","175","370165","0.0-13.0-0.0-1.0-0.0-0.8","1130","","f","","","","","","","","","","","","","key","f","16.651000000000252","768","428","j","false","img/C_ambi40.png","常人","image_first",""
"","","","","","html-keyboard-response","176","370470","0.0-13.0-0.0-1.0-0.0-1.8","null","<span style='color:red; font-size: 70px;'>错误! </span>","null","","","","","","","","","","","","","","","","","","","","","","","feedback_test"
"","","","","","psychophysics","177","372133","0.0-13.0-0.0-1.0-0.0-0.9","505","","f","","","","","","","","","","","","","key","f","16.652050000000163","768","428","f","true","img/S_ambi40.png","好人","image_first",""
"","","","","","html-keyboard-response","178","372443","0.0-13.0-0.0-1.0-0.0-1.9","null","<span style='color:GreenYellow; font-size: 70px;'>正确! </span>","null","","","","","","","","","","","","","","","","","","","","","","","feedback_test"
"","","","","","psychophysics","179","374468","0.0-13.0-0.0-1.0-0.0-0.10","874","","f","","","","","","","","","","","","","key","f","16.651591666666597","768","428","f","true","img/T_ambi40.png","常人","image_first",""
"","","","","","html-keyboard-response","180","374774","0.0-13.0-0.0-1.0-0.0-1.10","null","<span style='color:GreenYellow; font-size: 70px;'>正确! </span>","null","","","","","","","","","","","","","","","","","","","","","","","feedback_test"
"","","","","","psychophysics","181","376468","0.0-13.0-0.0-1.0-0.0-0.11","544","","j","","","","","","","","","","","","","key","j","16.519789999999922","768","428","j","true","img/T_ambi40.png","坏人","image_first",""
"","","","","","html-keyboard-response","182","376772","0.0-13.0-0.0-1.0-0.0-1.11","null","<span style='color:GreenYellow; font-size: 70px;'>正确! </span>","null","","","","","","","","","","","","","","","","","","","","","","","feedback_test"
"","","","","","psychophysics","183","378661","0.0-13.0-0.0-1.0-0.0-0.12","727","","j","","","","","","","","","","","","","key","j","16.530741071428306","768","428","j","true","img/S_ambi40.png","常人","image_first",""
"","","","","","html-keyboard-response","184","378972","0.0-13.0-0.0-1.0-0.0-1.12","null","<span style='color:GreenYellow; font-size: 70px;'>正确! </span>","null","","","","","","","","","","","","","","","","","","","","","","","feedback_test"
"","","","","","psychophysics","185","381484","0.0-13.0-0.0-1.0-0.0-0.13","1348","","f","","","","","","","","","","","","","key","f","16.65127333333328","768","428","j","false","img/C_ambi40.png","常人","image_first",""
"","","","","","html-keyboard-response","186","381797","0.0-13.0-0.0-1.0-0.0-1.13","null","<span style='color:red; font-size: 70px;'>错误! </span>","null","","","","","","","","","","","","","","","","","","","","","","","feedback_test"
"","","","","","psychophysics","187","383636","0.0-13.0-0.0-1.0-0.0-0.14","685","","j","","","","","","","","","","","","","key","j","16.65179999999977","768","428","j","true","img/T_ambi40.png","好人","image_first",""
"","","","","","html-keyboard-response","188","383948","0.0-13.0-0.0-1.0-0.0-1.14","null","<span style='color:GreenYellow; font-size: 70px;'>正确! </span>","null","","","","","","","","","","","","","","","","","","","","","","","feedback_test"
"","","","","","psychophysics","189","385596","0.0-13.0-0.0-1.0-0.0-0.15","497","","j","","","","","","","","","","","","","key","j","16.526195876288334","768","428","j","true","img/T_ambi40.png","坏人","image_first",""
"","","","","","html-keyboard-response","190","385903","0.0-13.0-0.0-1.0-0.0-1.15","null","<span style='color:GreenYellow; font-size: 70px;'>正确! </span>","null","","","","","","","","","","","","","","","","","","","","","","","feedback_test"
"","","","","","psychophysics","191","387476","0.0-13.0-0.0-1.0-0.0-0.16","412","","j","","","","","","","","","","","","","key","j","16.652827956989128","768","428","f","false","img/T_ambi40.png","常人","image_first",""
"","","","","","html-keyboard-response","192","387782","0.0-13.0-0.0-1.0-0.0-1.16","null","<span style='color:red; font-size: 70px;'>错误! </span>","null","","","","","","","","","","","","","","","","","","","","","","","feedback_test"
"","","","","","psychophysics","193","389428","0.0-13.0-0.0-1.0-0.0-0.17","495","","f","","","","","","","","","","","","","key","f","16.652234693877492","768","428","f","true","img/C_ambi40.png","坏人","image_first",""
"","","","","","html-keyboard-response","194","389741","0.0-13.0-0.0-1.0-0.0-1.17","null","<span style='color:GreenYellow; font-size: 70px;'>正确! </span>","null","","","","","","","","","","","","","","","","","","","","","","","feedback_test"
"","","","","","psychophysics","195","391629","0.0-13.0-0.0-1.0-0.0-0.18","735","","j","","","","","","","","","","","","","key","j","16.651628318583732","768","428","j","true","img/S_ambi40.png","坏人","image_first",""
"","","","","","html-keyboard-response","196","391944","0.0-13.0-0.0-1.0-0.0-1.18","null","<span style='color:GreenYellow; font-size: 70px;'>正确! </span>","null","","","","","","","","","","","","","","","","","","","","","","","feedback_test"
"","","","","","psychophysics","197","393604","0.0-13.0-0.0-1.0-0.0-0.19","496","","j","","","","","","","","","","","","","key","j","16.650295918367267","768","428","f","false","img/T_ambi40.png","常人","image_first",""
"","","","","","html-keyboard-response","198","393910","0.0-13.0-0.0-1.0-0.0-1.19","null","<span style='color:red; font-size: 70px;'>错误! </span>","null","","","","","","","","","","","","","","","","","","","","","","","feedback_test"
"","","","","","psychophysics","199","395572","0.0-13.0-0.0-1.0-0.0-0.20","509","","f","","","","","","","","","","","","","key","f","16.650367346938523","768","428","f","true","img/C_ambi40.png","坏人","image_first",""
"","","","","","html-keyboard-response","200","395885","0.0-13.0-0.0-1.0-0.0-1.20","null","<span style='color:GreenYellow; font-size: 70px;'>正确! </span>","null","","","","","","","","","","","","","","","","","","","","","","","feedback_test"
"","","","","","psychophysics","201","397692","0.0-13.0-0.0-1.0-0.0-0.21","656","","f","","","","","","","","","","","","","key","f","16.64894444444454","768","428","f","true","img/S_ambi40.png","好人","image_first",""
"","","","","","html-keyboard-response","202","397999","0.0-13.0-0.0-1.0-0.0-1.21","null","<span style='color:GreenYellow; font-size: 70px;'>正确! </span>","null","","","","","","","","","","","","","","","","","","","","","","","feedback_test"
"","","","","","psychophysics","203","399700","0.0-13.0-0.0-1.0-0.0-0.22","547","","j","","","","","","","","","","","","","key","j","16.651009803921482","768","428","j","true","img/C_ambi40.png","好人","image_first",""
"","","","","","html-keyboard-response","204","400015","0.0-13.0-0.0-1.0-0.0-1.22","null","<span style='color:GreenYellow; font-size: 70px;'>正确! </span>","null","","","","","","","","","","","","","","","","","","","","","","","feedback_test"
"","","","","","psychophysics","205","401692","0.0-13.0-0.0-1.0-0.0-0.23","524","","j","","","","","","","","","","","","","key","j","16.650089108910745","768","428","f","false","img/S_ambi40.png","好人","image_first",""
"","","","","","html-keyboard-response","206","402001","0.0-13.0-0.0-1.0-0.0-1.23","null","<span style='color:red; font-size: 70px;'>错误! </span>","null","","","","","","","","","","","","","","","","","","","","","","","feedback_test"
"","","","","","psychophysics","207","403700","0.0-13.0-0.0-1.0-0.0-0.24","535","","j","","","","","","","","","","","","","key","j","16.65215841584175","768","428","j","true","img/T_ambi40.png","好人","image_first",""
"","","","","","html-keyboard-response","208","404010","0.0-13.0-0.0-1.0-0.0-1.24","null","<span style='color:GreenYellow; font-size: 70px;'>正确! </span>","null","","","","","","","","","","","","","","","","","","","","","","","feedback_test"
"","","","","","psychophysics","209","406052","0.0-13.0-0.0-1.0-0.0-0.25","888","","j","","","","","","","","","","","","","key","j","16.65128688524586","768","428","j","true","img/C_ambi40.png","常人","image_first",""
"","","","","","html-keyboard-response","210","406353","0.0-13.0-0.0-1.0-0.0-1.25","null","<span style='color:GreenYellow; font-size: 70px;'>正确! </span>","null","","","","","","","","","","","","","","","","","","","","","","","feedback_test"
"","","","","","psychophysics","211","408060","0.0-13.0-0.0-1.0-0.0-0.26","549","","f","","","","","","","","","","","","","key","f","16.653117647058416","768","428","f","true","img/S_ambi40.png","好人","image_first",""
"","","","","","html-keyboard-response","212","408371","0.0-13.0-0.0-1.0-0.0-1.26","null","<span style='color:GreenYellow; font-size: 70px;'>正确! </span>","null","","","","","","","","","","","","","","","","","","","","","","","feedback_test"
"","","","","","psychophysics","213","410284","0.0-13.0-0.0-1.0-0.0-0.27","761","","j","","","","","","","","","","","","","key","j","16.651561403508694","768","428","f","false","img/T_ambi40.png","常人","image_first",""
"","","","","","html-keyboard-response","214","410597","0.0-13.0-0.0-1.0-0.0-1.27","null","<span style='color:red; font-size: 70px;'>错误! </span>","null","","","","","","","","","","","","","","","","","","","","","","","feedback_test"
"","","","","","psychophysics","215","412348","0.0-13.0-0.0-1.0-0.0-0.28","590","","j","","","","","","","","","","","","","key","j","16.651798076923185","768","428","j","true","img/S_ambi40.png","常人","image_first",""
"","","","","","html-keyboard-response","216","412662","0.0-13.0-0.0-1.0-0.0-1.28","null","<span style='color:GreenYellow; font-size: 70px;'>正确! </span>","null","","","","","","","","","","","","","","","","","","","","","","","feedback_test"
"","","","","","psychophysics","217","414588","0.0-13.0-0.0-1.0-0.0-0.29","766","","j","","","","","","","","","","","","","key","j","16.649991304347918","768","428","j","true","img/S_ambi40.png","坏人","image_first",""
"","","","","","html-keyboard-response","218","414894","0.0-13.0-0.0-1.0-0.0-1.29","null","<span style='color:GreenYellow; font-size: 70px;'>正确! </span>","null","","","","","","","","","","","","","","","","","","","","","","","feedback_test"
"","","","","","psychophysics","219","416828","0.0-13.0-0.0-1.0-0.0-0.30","774","","j","","","","","","","","","","","","","key","j","16.651730434782802","768","428","f","false","img/C_ambi40.png","坏人","image_first",""
"","","","","","html-keyboard-response","220","417129","0.0-13.0-0.0-1.0-0.0-1.30","null","<span style='color:red; font-size: 70px;'>错误! </span>","null","","","","","","","","","","","","","","","","","","","","","","","feedback_test"
"","","","","","psychophysics","221","418876","0.0-13.0-0.0-1.0-0.0-0.31","596","","f","","","","","","","","","","","","","key","f","16.65251428571452","768","428","f","true","img/T_ambi40.png","常人","image_first",""
"","","","","","html-keyboard-response","222","419182","0.0-13.0-0.0-1.0-0.0-1.31","null","<span style='color:GreenYellow; font-size: 70px;'>正确! </span>","null","","","","","","","","","","","","","","","","","","","","","","","feedback_test"
"","","","","","psychophysics","223","420925","0.0-13.0-0.0-1.0-0.0-0.32","592","","j","","","","","","","","","","","","","key","j","16.809490384615156","768","428","f","false","img/C_ambi40.png","坏人","image_first",""
"","","","","","html-keyboard-response","224","421235","0.0-13.0-0.0-1.0-0.0-1.32","null","<span style='color:red; font-size: 70px;'>错误! </span>","null","","","","","","","","","","","","","","","","","","","","","","","feedback_test"
"","","","","","psychophysics","225","423012","0.0-13.0-0.0-1.0-0.0-0.33","615","","j","","","","","","","","","","","","","key","j","16.650809523809723","768","428","j","true","img/T_ambi40.png","坏人","image_first",""
"","","","","","html-keyboard-response","226","423327","0.0-13.0-0.0-1.0-0.0-1.33","null","<span style='color:GreenYellow; font-size: 70px;'>正确! </span>","null","","","","","","","","","","","","","","","","","","","","","","","feedback_test"
"","","","","","psychophysics","227","424876","0.0-13.0-0.0-1.0-0.0-0.34","397","","f","","","","","","","","","","","","","key","f","16.65111956521793","768","428","f","true","img/S_ambi40.png","好人","image_first",""
"","","","","","html-keyboard-response","228","425178","0.0-13.0-0.0-1.0-0.0-1.34","null","<span style='color:GreenYellow; font-size: 70px;'>正确! </span>","null","","","","","","","","","","","","","","","","","","","","","","","feedback_test"
"","","","","","psychophysics","229","427084","0.0-13.0-0.0-1.0-0.0-0.35","756","","j","","","","","","","","","","","","","key","j","16.529876106194596","768","428","j","true","img/C_ambi40.png","好人","image_first",""
"","","","","","html-keyboard-response","230","427396","0.0-13.0-0.0-1.0-0.0-1.35","null","<span style='color:GreenYellow; font-size: 70px;'>正确! </span>","null","","","","","","","","","","","","","","","","","","","","","","","feedback_test"
"","","","","","psychophysics","231","429197","0.0-13.0-0.0-1.0-0.0-0.36","642","","f","","","","","","","","","","","","","key","f","16.65123364485955","768","428","f","true","img/C_ambi40.png","坏人","image_first",""
"","","","","","html-keyboard-response","232","429503","0.0-13.0-0.0-1.0-0.0-1.36","null","<span style='color:GreenYellow; font-size: 70px;'>正确! </span>","null","","","","","","","","","","","","","","","","","","","","","","","feedback_test"
"","","","","","psychophysics","233","431252","0.0-13.0-0.0-1.0-0.0-0.37","595","","f","","","","","","","","","","","","","key","f","16.653047619047133","768","428","f","true","img/T_ambi40.png","常人","image_first",""
"","","","","","html-keyboard-response","234","431565","0.0-13.0-0.0-1.0-0.0-1.37","null","<span style='color:GreenYellow; font-size: 70px;'>正确! </span>","null","","","","","","","","","","","","","","","","","","","","","","","feedback_test"
"","","","","","psychophysics","235","433476","0.0-13.0-0.0-1.0-0.0-0.38","755","","f","","","","","","","","","","","","","key","f","16.64998260869584","768","428","f","true","img/C_ambi40.png","坏人","image_first",""
"","","","","","html-keyboard-response","236","433788","0.0-13.0-0.0-1.0-0.0-1.38","null","<span style='color:GreenYellow; font-size: 70px;'>正确! </span>","null","","","","","","","","","","","","","","","","","","","","","","","feedback_test"
"","","","","","psychophysics","237","435428","0.0-13.0-0.0-1.0-0.0-0.39","479","","f","","","","","","","","","","","","","key","f","16.651474226804417","768","428","f","true","img/S_ambi40.png","好人","image_first",""
"","","","","","html-keyboard-response","238","435741","0.0-13.0-0.0-1.0-0.0-1.39","null","<span style='color:GreenYellow; font-size: 70px;'>正确! </span>","null","","","","","","","","","","","","","","","","","","","","","","","feedback_test"
"","","","","","psychophysics","239","437492","0.0-13.0-0.0-1.0-0.0-0.40","596","","j","","","","","","","","","","","","","key","j","16.650809523809723","768","428","j","true","img/S_ambi40.png","常人","image_first",""
"","","","","","html-keyboard-response","240","437807","0.0-13.0-0.0-1.0-0.0-1.40","null","<span style='color:GreenYellow; font-size: 70px;'>正确! </span>","null","","","","","","","","","","","","","","","","","","","","","","","feedback_test"
"","","","","","psychophysics","241","439421","0.0-13.0-0.0-1.0-0.0-0.41","455","","f","","","","","","","","","","","","","key","f","16.650618556700888","768","428","f","true","img/T_ambi40.png","常人","image_first",""
"","","","","","html-keyboard-response","242","439729","0.0-13.0-0.0-1.0-0.0-1.41","null","<span style='color:GreenYellow; font-size: 70px;'>正确! </span>","null","","","","","","","","","","","","","","","","","","","","","","","feedback_test"
"","","","","","psychophysics","243","441366","0.0-13.0-0.0-1.0-0.0-0.42","485","","j","","","","","","","","","","","","","key","j","16.527577319587508","768","428","j","true","img/T_ambi40.png","坏人","image_first",""
"","","","","","html-keyboard-response","244","441675","0.0-13.0-0.0-1.0-0.0-1.42","null","<span style='color:GreenYellow; font-size: 70px;'>正确! </span>","null","","","","","","","","","","","","","","","","","","","","","","","feedback_test"
"","","","","","psychophysics","245","443428","0.0-13.0-0.0-1.0-0.0-0.43","600","","f","","","","","","","","","","","","","key","f","16.651600000000048","768","428","f","true","img/S_ambi40.png","好人","image_first",""
"","","","","","html-keyboard-response","246","443737","0.0-13.0-0.0-1.0-0.0-1.43","null","<span style='color:GreenYellow; font-size: 70px;'>正确! </span>","null","","","","","","","","","","","","","","","","","","","","","","","feedback_test"
"","","","","","psychophysics","247","445620","0.0-13.0-0.0-1.0-0.0-0.44","729","","j","","","","","","","","","","","","","key","j","16.652725663717085","768","428","j","true","img/T_ambi40.png","好人","image_first",""
"","","","","","html-keyboard-response","248","445929","0.0-13.0-0.0-1.0-0.0-1.44","null","<span style='color:GreenYellow; font-size: 70px;'>正确! </span>","null","","","","","","","","","","","","","","","","","","","","","","","feedback_test"
"","","","","","psychophysics","249","447693","0.0-13.0-0.0-1.0-0.0-0.45","601","","j","","","","","","","","","","","","","key","j","16.65183809523781","768","428","j","true","img/S_ambi40.png","坏人","image_first",""
"","","","","","html-keyboard-response","250","447996","0.0-13.0-0.0-1.0-0.0-1.45","null","<span style='color:GreenYellow; font-size: 70px;'>正确! </span>","null","","","","","","","","","","","","","","","","","","","","","","","feedback_test"
"","","","","","psychophysics","251","449852","0.0-13.0-0.0-1.0-0.0-0.46","696","","j","","","","","","","","","","","","","key","j","16.652729729729547","768","428","j","true","img/C_ambi40.png","常人","image_first",""
"","","","","","html-keyboard-response","252","450168","0.0-13.0-0.0-1.0-0.0-1.46","null","<span style='color:GreenYellow; font-size: 70px;'>正确! </span>","null","","","","","","","","","","","","","","","","","","","","","","","feedback_test"
"","","","","","psychophysics","253","452252","0.0-13.0-0.0-1.0-0.0-0.47","932","","j","","","","","","","","","","","","","key","j","16.650677419354906","768","428","j","true","img/C_ambi40.png","好人","image_first",""
"","","","","","html-keyboard-response","254","452560","0.0-13.0-0.0-1.0-0.0-1.47","null","<span style='color:GreenYellow; font-size: 70px;'>正确! </span>","null","","","","","","","","","","","","","","","","","","","","","","","feedback_test"
"","","","","","psychophysics","255","454364","0.0-13.0-0.0-1.0-0.0-0.48","654","","j","","","","","","","","","","","","","key","j","16.650925233644635","768","428","j","true","img/C_ambi40.png","常人","image_first",""
"","","","","","html-keyboard-response","256","454671","0.0-13.0-0.0-1.0-0.0-1.48","null","<span style='color:GreenYellow; font-size: 70px;'>正确! </span>","null","","","","","","","","","","","","","","","","","","","","","","","feedback_test"
"","","","","","psychophysics","257","456380","0.0-13.0-0.0-1.0-0.0-0.49","557","","j","","","","","","","","","","","","","key","j","16.649881188119164","768","428","f","false","img/T_ambi40.png","常人","image_first",""
"","","","","","html-keyboard-response","258","456695","0.0-13.0-0.0-1.0-0.0-1.49","null","<span style='color:red; font-size: 70px;'>错误! </span>","null","","","","","","","","","","","","","","","","","","","","","","","feedback_test"
"","","","","","psychophysics","259","458517","0.0-13.0-0.0-1.0-0.0-0.50","668","","j","","","","","","","","","","","","","key","j","16.6518623853207","768","428","j","true","img/S_ambi40.png","坏人","image_first",""
"","","","","","html-keyboard-response","260","458831","0.0-13.0-0.0-1.0-0.0-1.50","null","<span style='color:GreenYellow; font-size: 70px;'>正确! </span>","null","","","","","","","","","","","","","","","","","","","","","","","feedback_test"
"","","","","","psychophysics","261","460581","0.0-13.0-0.0-1.0-0.0-0.51","586","","f","","","","","","","","","","","","","key","f","16.651742857143038","768","428","f","true","img/C_ambi40.png","坏人","image_first",""
"","","","","","html-keyboard-response","262","460895","0.0-13.0-0.0-1.0-0.0-1.51","null","<span style='color:GreenYellow; font-size: 70px;'>正确! </span>","null","","","","","","","","","","","","","","","","","","","","","","","feedback_test"
"","","","","","psychophysics","263","462733","0.0-13.0-0.0-1.0-0.0-0.52","687","","f","","","","","","","","","","","","","key","f","16.6509816513761","768","428","f","true","img/T_ambi40.png","常人","image_first",""
"","","","","","html-keyboard-response","264","463040","0.0-13.0-0.0-1.0-0.0-1.52","null","<span style='color:GreenYellow; font-size: 70px;'>正确! </span>","null","","","","","","","","","","","","","","","","","","","","","","","feedback_test"
"","","","","","psychophysics","265","464748","0.0-13.0-0.0-1.0-0.0-0.53","557","","j","","","","","","","","","","","","","key","j","16.65202912621345","768","428","j","true","img/C_ambi40.png","好人","image_first",""
"","","","","","html-keyboard-response","266","465056","0.0-13.0-0.0-1.0-0.0-1.53","null","<span style='color:GreenYellow; font-size: 70px;'>正确! </span>","null","","","","","","","","","","","","","","","","","","","","","","","feedback_test"
"","","","","","psychophysics","267","466788","0.0-13.0-0.0-1.0-0.0-0.54","581","","f","","","","","","","","","","","","","key","f","16.8143883495144","768","428","f","true","img/S_ambi40.png","好人","image_first",""
"","","","","","html-keyboard-response","268","467094","0.0-13.0-0.0-1.0-0.0-1.54","null","<span style='color:GreenYellow; font-size: 70px;'>正确! </span>","null","","","","","","","","","","","","","","","","","","","","","","","feedback_test"
"","","","","","psychophysics","269","469189","0.0-13.0-0.0-1.0-0.0-0.55","941","","f","","","","","","","","","","","","","key","f","16.65164799999958","768","428","f","true","img/S_ambi40.png","好人","image_first",""
"","","","","","html-keyboard-response","270","469504","0.0-13.0-0.0-1.0-0.0-1.55","null","<span style='color:GreenYellow; font-size: 70px;'>正确! </span>","null","","","","","","","","","","","","","","","","","","","","","","","feedback_test"
"","","","","","psychophysics","271","471284","0.0-13.0-0.0-1.0-0.0-0.56","621","","f","","","","","","","","","","","","","key","f","16.65060377358525","768","428","f","true","img/C_ambi40.png","坏人","image_first",""
"","","","","","html-keyboard-response","272","471598","0.0-13.0-0.0-1.0-0.0-1.56","null","<span style='color:GreenYellow; font-size: 70px;'>正确! </span>","null","","","","","","","","","","","","","","","","","","","","","","","feedback_test"
"","","","","","psychophysics","273","474251","0.0-13.0-0.0-1.0-0.0-0.57","null","","null","","","","","","","","","","","","","key","null","16.652149999999892","768","428","j","false","img/S_ambi40.png","常人","image_first",""
"","","","","","html-keyboard-response","274","474565","0.0-13.0-0.0-1.0-0.0-1.57","null","<span class='add_' style='color:yellow; font-size: 70px;'> 太慢! </span>","null","","","","","","","","","","","","","","","","","","","","","","","feedback_test"
"","","","","","psychophysics","275","476349","0.0-13.0-0.0-1.0-0.0-0.58","633","","j","","","","","","","","","","","","","key","j","16.650999999999943","768","428","j","true","img/T_ambi40.png","好人","image_first",""
"","","","","","html-keyboard-response","276","476658","0.0-13.0-0.0-1.0-0.0-1.58","null","<span style='color:GreenYellow; font-size: 70px;'>正确! </span>","null","","","","","","","","","","","","","","","","","","","","","","","feedback_test"
"","","","","","psychophysics","277","478549","0.0-13.0-0.0-1.0-0.0-0.59","736","","j","","","","","","","","","","","","","key","j","16.65051327433604","768","428","j","true","img/T_ambi40.png","坏人","image_first",""
"","","","","","html-keyboard-response","278","478860","0.0-13.0-0.0-1.0-0.0-1.59","null","<span style='color:GreenYellow; font-size: 70px;'>正确! </span>","null","","","","","","","","","","","","","","","","","","","","","","","feedback_test"
"","","","","","html-keyboard-response","279","482292","0.0-13.0-0.0-1.0-1.0","3432","<style>.context{color:white; font-size: 35px; line-height:40px}</style>                              <div><p class='context'>您正确回答了80% 的试次。</p><p class='context'>您的平均反应时为628毫秒。</p><p class='context'>请按任意键进入休息</p></div>"," ","","","","","","","","","","","","","","","","","","","","","","",""
"","","","","","html-button-response","280","621246","0.0-13.0-0.0-1.0-2.0","138952","
                      <p>您当前还剩余3组实验</p>
                      <p>现在是休息时间，当您结束休息后，您可以点击 结束休息 按钮 继续</p>
                      <p>建议休息时间还剩余<span id=""iii"">60</span>秒</p>","0","","","","","","","","","","","","","","","","","","","","","","",""
"","","","","","psychophysics","281","623181","0.0-13.0-0.0-1.0-0.1-0.60","769","","j","","","","","","","","","","","","","key","j","16.651686956521893","768","428","j","true","img/S_ambi40.png","常人","image_first",""
"","","","","","html-keyboard-response","282","623497","0.0-13.0-0.0-1.0-0.1-1.60","null","<span style='color:GreenYellow; font-size: 70px;'>正确! </span>","null","","","","","","","","","","","","","","","","","","","","","","","feedback_test"
"","","","","","psychophysics","283","625252","0.0-13.0-0.0-1.0-0.1-0.61","599","","f","","","","","","","","","","","","","key","f","16.651846153845188","768","428","f","true","img/C_ambi40.png","坏人","image_first",""
"","","","","","html-keyboard-response","284","625559","0.0-13.0-0.0-1.0-0.1-1.61","null","<span style='color:GreenYellow; font-size: 70px;'>正确! </span>","null","","","","","","","","","","","","","","","","","","","","","","","feedback_test"
"","","","","","psychophysics","285","627284","0.0-13.0-0.0-1.0-0.1-0.62","566","","j","","","","","","","","","","","","","key","j","16.6498039215689","768","428","j","true","img/C_ambi40.png","常人","image_first",""
"","","","","","html-keyboard-response","286","627595","0.0-13.0-0.0-1.0-0.1-1.62","null","<span style='color:GreenYellow; font-size: 70px;'>正确! </span>","null","","","","","","","","","","","","","","","","","","","","","","","feedback_test"
"","","","","","psychophysics","287","629293","0.0-13.0-0.0-1.0-0.1-0.63","538","","j","","","","","","","","","","","","","key","j","16.65316831683256","768","428","f","false","img/T_ambi40.png","常人","image_first",""
"","","","","","html-keyboard-response","288","629597","0.0-13.0-0.0-1.0-0.1-1.63","null","<span style='color:red; font-size: 70px;'>错误! </span>","null","","","","","","","","","","","","","","","","","","","","","","","feedback_test"
"","","","","","psychophysics","289","631284","0.0-13.0-0.0-1.0-0.1-0.64","531","","j","","","","","","","","","","","","","key","j","16.652960396039827","768","428","j","true","img/T_ambi40.png","好人","image_first",""
"","","","","","html-keyboard-response","290","631599","0.0-13.0-0.0-1.0-0.1-1.64","null","<span style='color:GreenYellow; font-size: 70px;'>正确! </span>","null","","","","","","","","","","","","","","","","","","","","","","","feedback_test"
"","","","","","psychophysics","291","633180","0.0-13.0-0.0-1.0-0.1-0.65","429","","f","","","","","","","","","","","","","key","f","16.653212765957466","768","428","f","true","img/S_ambi40.png","好人","image_first",""
"","","","","","html-keyboard-response","292","633491","0.0-13.0-0.0-1.0-0.1-1.65","null","<span style='color:GreenYellow; font-size: 70px;'>正确! </span>","null","","","","","","","","","","","","","","","","","","","","","","","feedback_test"
"","","","","","psychophysics","293","635292","0.0-13.0-0.0-1.0-0.1-0.66","643","","j","","","","","","","","","","","","","key","j","16.649351851851893","768","428","j","true","img/C_ambi40.png","好人","image_first",""
"","","","","","html-keyboard-response","294","635601","0.0-13.0-0.0-1.0-0.1-1.66","null","<span style='color:GreenYellow; font-size: 70px;'>正确! </span>","null","","","","","","","","","","","","","","","","","","","","","","","feedback_test"
"","","","","","psychophysics","295","637533","0.0-13.0-0.0-1.0-0.1-0.67","770","","f","","","","","","","","","","","","","key","f","16.6496724137928","768","428","f","true","img/C_ambi40.png","坏人","image_first",""
"","","","","","html-keyboard-response","296","637845","0.0-13.0-0.0-1.0-0.1-1.67","null","<span style='color:GreenYellow; font-size: 70px;'>正确! </span>","null","","","","","","","","","","","","","","","","","","","","","","","feedback_test"
"","","","","","psychophysics","297","639581","0.0-13.0-0.0-1.0-0.1-0.68","585","","j","","","","","","","","","","","","","key","j","16.524621359222948","768","428","j","true","img/S_ambi40.png","坏人","image_first",""
"","","","","","html-keyboard-response","298","639889","0.0-13.0-0.0-1.0-0.1-1.68","null","<span style='color:GreenYellow; font-size: 70px;'>正确! </span>","null","","","","","","","","","","","","","","","","","","","","","","","feedback_test"
"","","","","","psychophysics","299","641628","0.0-13.0-0.0-1.0-0.1-0.69","585","","f","","","","","","","","","","","","","key","f","16.64991428571465","768","428","f","true","img/T_ambi40.png","常人","image_first",""
"","","","","","html-keyboard-response","300","641934","0.0-13.0-0.0-1.0-0.1-1.69","null","<span style='color:GreenYellow; font-size: 70px;'>正确! </span>","null","","","","","","","","","","","","","","","","","","","","","","","feedback_test"
"","","","","","psychophysics","301","643500","0.0-13.0-0.0-1.0-0.1-0.70","408","","f","","","","","","","","","","","","","key","f","16.650096774193887","768","428","f","true","img/S_ambi40.png","好人","image_first",""
"","","","","","html-keyboard-response","302","643807","0.0-13.0-0.0-1.0-0.1-1.70","null","<span style='color:GreenYellow; font-size: 70px;'>正确! </span>","null","","","","","","","","","","","","","","","","","","","","","","","feedback_test"
"","","","","","psychophysics","303","645452","0.0-13.0-0.0-1.0-0.1-0.71","483","","j","","","","","","","","","","","","","key","j","16.65171134020514","768","428","j","true","img/T_ambi40.png","坏人","image_first",""
"","","","","","html-keyboard-response","304","645759","0.0-13.0-0.0-1.0-0.1-1.71","null","<span style='color:GreenYellow; font-size: 70px;'>正确! </span>","null","","","","","","","","","","","","","","","","","","","","","","","feedback_test"
"","","","","","psychophysics","305","647484","0.0-13.0-0.0-1.0-0.1-0.72","562","","j","","","","","","","","","","","","","key","j","16.649533980582543","768","428","j","true","img/T_ambi40.png","好人","image_first",""
"","","","","","html-keyboard-response","306","647788","0.0-13.0-0.0-1.0-0.1-1.72","null","<span style='color:GreenYellow; font-size: 70px;'>正确! </span>","null","","","","","","","","","","","","","","","","","","","","","","","feedback_test"
"","","","","","psychophysics","307","649676","0.0-13.0-0.0-1.0-0.1-0.73","723","","f","","","","","","","","","","","","","key","f","16.650464285713888","768","428","f","true","img/C_ambi40.png","坏人","image_first",""
"","","","","","html-keyboard-response","308","649991","0.0-13.0-0.0-1.0-0.1-1.73","null","<span style='color:GreenYellow; font-size: 70px;'>正确! </span>","null","","","","","","","","","","","","","","","","","","","","","","","feedback_test"
"","","","","","psychophysics","309","651740","0.0-13.0-0.0-1.0-0.1-0.74","589","","j","","","","","","","","","","","","","key","j","16.652086538461916","768","428","j","true","img/T_ambi40.png","坏人","image_first",""
"","","","","","html-keyboard-response","310","652056","0.0-13.0-0.0-1.0-0.1-1.74","null","<span style='color:GreenYellow; font-size: 70px;'>正确! </span>","null","","","","","","","","","","","","","","","","","","","","","","","feedback_test"
"","","","","","psychophysics","311","653917","0.0-13.0-0.0-1.0-0.1-0.75","702","","f","","","","","","","","","","","","","key","f","16.651153153153597","768","428","f","true","img/C_ambi40.png","坏人","image_first",""
"","","","","","html-keyboard-response","312","654226","0.0-13.0-0.0-1.0-0.1-1.75","null","<span style='color:GreenYellow; font-size: 70px;'>正确! </span>","null","","","","","","","","","","","","","","","","","","","","","","","feedback_test"
"","","","","","psychophysics","313","656020","0.0-13.0-0.0-1.0-0.1-0.76","640","","f","","","","","","","","","","","","","key","f","16.650935185184977","768","428","f","true","img/T_ambi40.png","常人","image_first",""
"","","","","","html-keyboard-response","314","656327","0.0-13.0-0.0-1.0-0.1-1.76","null","<span style='color:GreenYellow; font-size: 70px;'>正确! </span>","null","","","","","","","","","","","","","","","","","","","","","","","feedback_test"
"","","","","","psychophysics","315","658052","0.0-13.0-0.0-1.0-0.1-0.77","574","","j","","","","","","","","","","","","","key","j","16.53100000000011","768","428","j","true","img/S_ambi40.png","常人","image_first",""
"","","","","","html-keyboard-response","316","658361","0.0-13.0-0.0-1.0-0.1-1.77","null","<span style='color:GreenYellow; font-size: 70px;'>正确! </span>","null","","","","","","","","","","","","","","","","","","","","","","","feedback_test"
"","","","","","psychophysics","317","660069","0.0-13.0-0.0-1.0-0.1-0.78","545","","j","","","","","","","","","","","","","key","j","16.65045098039235","768","428","j","true","img/S_ambi40.png","坏人","image_first",""
"","","","","","html-keyboard-response","318","660380","0.0-13.0-0.0-1.0-0.1-1.78","null","<span style='color:GreenYellow; font-size: 70px;'>正确! </span>","null","","","","","","","","","","","","","","","","","","","","","","","feedback_test"
"","","","","","psychophysics","319","662188","0.0-13.0-0.0-1.0-0.1-0.79","649","","f","","","","","","","","","","","","","key","f","16.650925233645722","768","428","f","true","img/S_ambi40.png","好人","image_first",""
"","","","","","html-keyboard-response","320","662501","0.0-13.0-0.0-1.0-0.1-1.79","null","<span style='color:GreenYellow; font-size: 70px;'>正确! </span>","null","","","","","","","","","","","","","","","","","","","","","","","feedback_test"
"","","","","","psychophysics","321","664477","0.0-13.0-0.0-1.0-0.1-0.80","821","","f","","","","","","","","","","","","","key","f","16.6509915966386","768","428","f","true","img/T_ambi40.png","常人","image_first",""
"","","","","","html-keyboard-response","322","664786","0.0-13.0-0.0-1.0-0.1-1.80","null","<span style='color:GreenYellow; font-size: 70px;'>正确! </span>","null","","","","","","","","","","","","","","","","","","","","","","","feedback_test"
"","","","","","psychophysics","323","666668","0.0-13.0-0.0-1.0-0.1-0.81","731","","j","","","","","","","","","","","","","key","j","16.800000000000832","768","428","j","true","img/C_ambi40.png","好人","image_first",""
"","","","","","html-keyboard-response","324","666978","0.0-13.0-0.0-1.0-0.1-1.81","null","<span style='color:GreenYellow; font-size: 70px;'>正确! </span>","null","","","","","","","","","","","","","","","","","","","","","","","feedback_test"
"","","","","","psychophysics","325","669164","0.0-13.0-0.0-1.0-0.1-0.82","1029","","j","","","","","","","","","","","","","key","j","16.652738461538682","768","428","j","true","img/C_ambi40.png","常人","image_first",""
"","","","","","html-keyboard-response","326","669477","0.0-13.0-0.0-1.0-0.1-1.82","null","<span style='color:GreenYellow; font-size: 70px;'>正确! </span>","null","","","","","","","","","","","","","","","","","","","","","","","feedback_test"
"","","","","","psychophysics","327","671228","0.0-13.0-0.0-1.0-0.1-0.83","595","","f","","","","","","","","","","","","","key","f","16.651476190475346","768","428","f","true","img/S_ambi40.png","好人","image_first",""
"","","","","","html-keyboard-response","328","671544","0.0-13.0-0.0-1.0-0.1-1.83","null","<span style='color:GreenYellow; font-size: 70px;'>正确! </span>","null","","","","","","","","","","","","","","","","","","","","","","","feedback_test"
"","","","","","psychophysics","329","673220","0.0-13.0-0.0-1.0-0.1-0.84","523","","f","","","","","","","","","","","","","key","f","16.650900990099387","768","428","f","true","img/S_ambi40.png","好人","image_first",""
"","","","","","html-keyboard-response","330","673531","0.0-13.0-0.0-1.0-0.1-1.84","null","<span style='color:GreenYellow; font-size: 70px;'>正确! </span>","null","","","","","","","","","","","","","","","","","","","","","","","feedback_test"
"","","","","","psychophysics","331","675165","0.0-13.0-0.0-1.0-0.1-0.85","470","","j","","","","","","","","","","","","","key","j","16.651887755102138","768","428","j","true","img/S_ambi40.png","坏人","image_first",""
"","","","","","html-keyboard-response","332","675475","0.0-13.0-0.0-1.0-0.1-1.85","null","<span style='color:GreenYellow; font-size: 70px;'>正确! </span>","null","","","","","","","","","","","","","","","","","","","","","","","feedback_test"
"","","","","","psychophysics","333","677124","0.0-13.0-0.0-1.0-0.1-0.86","497","","j","","","","","","","","","","","","","key","j","16.651545454544543","768","428","j","true","img/C_ambi40.png","常人","image_first",""
"","","","","","html-keyboard-response","334","677439","0.0-13.0-0.0-1.0-0.1-1.86","null","<span style='color:GreenYellow; font-size: 70px;'>正确! </span>","null","","","","","","","","","","","","","","","","","","","","","","","feedback_test"
"","","","","","psychophysics","335","679364","0.0-13.0-0.0-1.0-0.1-0.87","772","","f","","","","","","","","","","","","","key","f","16.65301739130392","768","428","f","true","img/T_ambi40.png","常人","image_first",""
"","","","","","html-keyboard-response","336","679676","0.0-13.0-0.0-1.0-0.1-1.87","null","<span style='color:GreenYellow; font-size: 70px;'>正确! </span>","null","","","","","","","","","","","","","","","","","","","","","","","feedback_test"
"","","","","","psychophysics","337","681364","0.0-13.0-0.0-1.0-0.1-0.88","530","","j","","","","","","","","","","","","","key","j","16.64927000000025","768","428","j","true","img/T_ambi40.png","好人","image_first",""
"","","","","","html-keyboard-response","338","681673","0.0-13.0-0.0-1.0-0.1-1.88","null","<span style='color:GreenYellow; font-size: 70px;'>正确! </span>","null","","","","","","","","","","","","","","","","","","","","","","","feedback_test"
"","","","","","psychophysics","339","683340","0.0-13.0-0.0-1.0-0.1-0.89","506","","j","","","","","","","","","","","","","key","j","16.650840000000315","768","428","j","true","img/T_ambi40.png","坏人","image_first",""
"","","","","","html-keyboard-response","340","683642","0.0-13.0-0.0-1.0-0.1-1.89","null","<span style='color:GreenYellow; font-size: 70px;'>正确! </span>","null","","","","","","","","","","","","","","","","","","","","","","","feedback_test"
"","","","","","psychophysics","341","685444","0.0-13.0-0.0-1.0-0.1-0.90","643","","f","","","","","","","","","","","","","key","f","16.65079439252345","768","428","f","true","img/C_ambi40.png","坏人","image_first",""
"","","","","","html-keyboard-response","342","685749","0.0-13.0-0.0-1.0-0.1-1.90","null","<span style='color:GreenYellow; font-size: 70px;'>正确! </span>","null","","","","","","","","","","","","","","","","","","","","","","","feedback_test"
"","","","","","psychophysics","343","687580","0.0-13.0-0.0-1.0-0.1-0.91","680","","j","","","","","","","","","","","","","key","j","16.652055045871766","768","428","j","true","img/S_ambi40.png","常人","image_first",""
"","","","","","html-keyboard-response","344","687892","0.0-13.0-0.0-1.0-0.1-1.91","null","<span style='color:GreenYellow; font-size: 70px;'>正确! </span>","null","","","","","","","","","","","","","","","","","","","","","","","feedback_test"
"","","","","","psychophysics","345","689606","0.0-13.0-0.0-1.0-0.1-0.92","559","","f","","","","","","","","","","","","","key","f","16.652588235294246","768","428","f","true","img/C_ambi40.png","坏人","image_first",""
"","","","","","html-keyboard-response","346","689917","0.0-13.0-0.0-1.0-0.1-1.92","null","<span style='color:GreenYellow; font-size: 70px;'>正确! </span>","null","","","","","","","","","","","","","","","","","","","","","","","feedback_test"
"","","","","","psychophysics","347","691756","0.0-13.0-0.0-1.0-0.1-0.93","676","","f","","","","","","","","","","","","","key","f","16.650339449541175","768","428","f","true","img/S_ambi40.png","好人","image_first",""
"","","","","","html-keyboard-response","348","692063","0.0-13.0-0.0-1.0-0.1-1.93","null","<span style='color:GreenYellow; font-size: 70px;'>正确! </span>","null","","","","","","","","","","","","","","","","","","","","","","","feedback_test"
"","","","","","psychophysics","349","693884","0.0-13.0-0.0-1.0-0.1-0.94","656","","j","","","","","","","","","","","","","key","j","16.652833333333817","768","428","j","true","img/C_ambi40.png","好人","image_first",""
"","","","","","html-keyboard-response","350","694190","0.0-13.0-0.0-1.0-0.1-1.94","null","<span style='color:GreenYellow; font-size: 70px;'>正确! </span>","null","","","","","","","","","","","","","","","","","","","","","","","feedback_test"
"","","","","","psychophysics","351","696093","0.0-13.0-0.0-1.0-0.1-0.95","750","","f","","","","","","","","","","","","","key","f","16.651342105263385","768","428","f","true","img/T_ambi40.png","常人","image_first",""
"","","","","","html-keyboard-response","352","696395","0.0-13.0-0.0-1.0-0.1-1.95","null","<span style='color:GreenYellow; font-size: 70px;'>正确! </span>","null","","","","","","","","","","","","","","","","","","","","","","","feedback_test"
"","","","","","psychophysics","353","698197","0.0-13.0-0.0-1.0-0.1-0.96","639","","f","","","","","","","","","","","","","key","f","16.651158878504663","768","428","f","true","img/T_ambi40.png","常人","image_first",""
"","","","","","html-keyboard-response","354","698503","0.0-13.0-0.0-1.0-0.1-1.96","null","<span style='color:GreenYellow; font-size: 70px;'>正确! </span>","null","","","","","","","","","","","","","","","","","","","","","","","feedback_test"
"","","","","","psychophysics","355","700325","0.0-13.0-0.0-1.0-0.1-0.97","668","","j","","","","","","","","","","","","","key","j","16.65052727272692","768","428","j","true","img/C_ambi40.png","好人","image_first",""
"","","","","","html-keyboard-response","356","700634","0.0-13.0-0.0-1.0-0.1-1.97","null","<span style='color:GreenYellow; font-size: 70px;'>正确! </span>","null","","","","","","","","","","","","","","","","","","","","","","","feedback_test"
"","","","","","psychophysics","357","702492","0.0-13.0-0.0-1.0-0.1-0.98","705","","f","","","","","","","","","","","","","key","f","16.651297297297248","768","428","f","true","img/S_ambi40.png","好人","image_first",""
"","","","","","html-keyboard-response","358","702795","0.0-13.0-0.0-1.0-0.1-1.98","null","<span style='color:GreenYellow; font-size: 70px;'>正确! </span>","null","","","","","","","","","","","","","","","","","","","","","","","feedback_test"
"","","","","","psychophysics","359","704572","0.0-13.0-0.0-1.0-0.1-0.99","621","","f","","","","","","","","","","","","","key","f","16.651622641508748","768","428","j","false","img/T_ambi40.png","坏人","image_first",""
"","","","","","html-keyboard-response","360","704876","0.0-13.0-0.0-1.0-0.1-1.99","null","<span style='color:red; font-size: 70px;'>错误! </span>","null","","","","","","","","","","","","","","","","","","","","","","","feedback_test"
"","","","","","psychophysics","361","706541","0.0-13.0-0.0-1.0-0.1-0.100","508","","f","","","","","","","","","","","","","key","f","16.652679999999236","768","428","f","true","img/S_ambi40.png","好人","image_first",""
"","","","","","html-keyboard-response","362","706843","0.0-13.0-0.0-1.0-0.1-1.100","null","<span style='color:GreenYellow; font-size: 70px;'>正确! </span>","null","","","","","","","","","","","","","","","","","","","","","","","feedback_test"
"","","","","","psychophysics","363","708717","0.0-13.0-0.0-1.0-0.1-0.101","719","","j","","","","","","","","","","","","","key","j","16.65217857142852","768","428","j","true","img/S_ambi40.png","常人","image_first",""
"","","","","","html-keyboard-response","364","709028","0.0-13.0-0.0-1.0-0.1-1.101","null","<span style='color:GreenYellow; font-size: 70px;'>正确! </span>","null","","","","","","","","","","","","","","","","","","","","","","","feedback_test"
"","","","","","psychophysics","365","710580","0.0-13.0-0.0-1.0-0.1-0.102","401","","f","","","","","","","","","","","","","key","f","16.8312258064504","768","428","j","false","img/C_ambi40.png","常人","image_first",""
"","","","","","html-keyboard-response","366","710882","0.0-13.0-0.0-1.0-0.1-1.102","null","<span style='color:red; font-size: 70px;'>错误! </span>","null","","","","","","","","","","","","","","","","","","","","","","","feedback_test"
"","","","","","psychophysics","367","712700","0.0-13.0-0.0-1.0-0.1-0.103","667","","f","","","","","","","","","","","","","key","f","16.6506203703703","768","428","f","true","img/C_ambi40.png","坏人","image_first",""
"","","","","","html-keyboard-response","368","713009","0.0-13.0-0.0-1.0-0.1-1.103","null","<span style='color:GreenYellow; font-size: 70px;'>正确! </span>","null","","","","","","","","","","","","","","","","","","","","","","","feedback_test"
"","","","","","psychophysics","369","714636","0.0-13.0-0.0-1.0-0.1-0.104","476","","j","","","","","","","","","","","","","key","j","16.651402061855535","768","428","f","false","img/C_ambi40.png","坏人","image_first",""
"","","","","","html-keyboard-response","370","714951","0.0-13.0-0.0-1.0-0.1-1.104","null","<span style='color:red; font-size: 70px;'>错误! </span>","null","","","","","","","","","","","","","","","","","","","","","","","feedback_test"
"","","","","","psychophysics","371","716772","0.0-13.0-0.0-1.0-0.1-0.105","670","","f","","","","","","","","","","","","","key","f","16.650555555554565","768","428","f","true","img/T_ambi40.png","常人","image_first",""
"","","","","","html-keyboard-response","372","717079","0.0-13.0-0.0-1.0-0.1-1.105","null","<span style='color:GreenYellow; font-size: 70px;'>正确! </span>","null","","","","","","","","","","","","","","","","","","","","","","","feedback_test"
"","","","","","psychophysics","373","718748","0.0-13.0-0.0-1.0-0.1-0.106","510","","j","","","","","","","","","","","","","key","j","16.651300000000045","768","428","j","true","img/S_ambi40.png","坏人","image_first",""
"","","","","","html-keyboard-response","374","719064","0.0-13.0-0.0-1.0-0.1-1.106","null","<span style='color:GreenYellow; font-size: 70px;'>正确! </span>","null","","","","","","","","","","","","","","","","","","","","","","","feedback_test"
"","","","","","psychophysics","375","720804","0.0-13.0-0.0-1.0-0.1-0.107","584","","j","","","","","","","","","","","","","key","j","16.651876190475498","768","428","j","true","img/T_ambi40.png","好人","image_first",""
"","","","","","html-keyboard-response","376","721110","0.0-13.0-0.0-1.0-0.1-1.107","null","<span style='color:GreenYellow; font-size: 70px;'>正确! </span>","null","","","","","","","","","","","","","","","","","","","","","","","feedback_test"
"","","","","","psychophysics","377","723140","0.0-13.0-0.0-1.0-0.1-0.108","877","","j","","","","","","","","","","","","","key","j","16.651190082645545","768","428","j","true","img/T_ambi40.png","坏人","image_first",""
"","","","","","html-keyboard-response","378","723443","0.0-13.0-0.0-1.0-0.1-1.108","null","<span style='color:GreenYellow; font-size: 70px;'>正确! </span>","null","","","","","","","","","","","","","","","","","","","","","","","feedback_test"
"","","","","","psychophysics","379","725132","0.0-13.0-0.0-1.0-0.1-0.109","533","","j","","","","","","","","","","","","","key","j","16.650313725490715","768","428","j","true","img/C_ambi40.png","好人","image_first",""
"","","","","","html-keyboard-response","380","725440","0.0-13.0-0.0-1.0-0.1-1.109","null","<span style='color:GreenYellow; font-size: 70px;'>正确! </span>","null","","","","","","","","","","","","","","","","","","","","","","","feedback_test"
"","","","","","psychophysics","381","727140","0.0-13.0-0.0-1.0-0.1-0.110","549","","f","","","","","","","","","","","","","key","f","16.650068627450132","768","428","f","true","img/T_ambi40.png","常人","image_first",""
"","","","","","html-keyboard-response","382","727445","0.0-13.0-0.0-1.0-0.1-1.110","null","<span style='color:GreenYellow; font-size: 70px;'>正确! </span>","null","","","","","","","","","","","","","","","","","","","","","","","feedback_test"
"","","","","","psychophysics","383","729149","0.0-13.0-0.0-1.0-0.1-0.111","541","","j","","","","","","","","","","","","","key","j","16.65084158415943","768","428","j","true","img/C_ambi40.png","常人","image_first",""
"","","","","","html-keyboard-response","384","729458","0.0-13.0-0.0-1.0-0.1-1.111","null","<span style='color:GreenYellow; font-size: 70px;'>正确! </span>","null","","","","","","","","","","","","","","","","","","","","","","","feedback_test"
"","","","","","psychophysics","385","731124","0.0-13.0-0.0-1.0-0.1-0.112","514","","j","","","","","","","","","","","","","key","j","16.65316161616221","768","428","j","true","img/S_ambi40.png","常人","image_first",""
"","","","","","html-keyboard-response","386","731431","0.0-13.0-0.0-1.0-0.1-1.112","null","<span style='color:GreenYellow; font-size: 70px;'>正确! </span>","null","","","","","","","","","","","","","","","","","","","","","","","feedback_test"
"","","","","","psychophysics","387","733252","0.0-13.0-0.0-1.0-0.1-0.113","669","","j","","","","","","","","","","","","","key","j","16.65136697247663","768","428","j","true","img/S_ambi40.png","坏人","image_first",""
"","","","","","html-keyboard-response","388","733564","0.0-13.0-0.0-1.0-0.1-1.113","null","<span style='color:GreenYellow; font-size: 70px;'>正确! </span>","null","","","","","","","","","","","","","","","","","","","","","","","feedback_test"
"","","","","","psychophysics","389","735452","0.0-13.0-0.0-1.0-0.1-0.114","729","","f","","","","","","","","","","","","","key","f","16.65071428571329","768","428","f","true","img/C_ambi40.png","坏人","image_first",""
"","","","","","html-keyboard-response","390","735765","0.0-13.0-0.0-1.0-0.1-1.114","null","<span style='color:GreenYellow; font-size: 70px;'>正确! </span>","null","","","","","","","","","","","","","","","","","","","","","","","feedback_test"
"","","","","","psychophysics","391","737516","0.0-13.0-0.0-1.0-0.1-0.115","595","","f","","","","","","","","","","","","","key","f","16.651480769230357","768","428","f","true","img/S_ambi40.png","好人","image_first",""
"","","","","","html-keyboard-response","392","737818","0.0-13.0-0.0-1.0-0.1-1.115","null","<span style='color:GreenYellow; font-size: 70px;'>正确! </span>","null","","","","","","","","","","","","","","","","","","","","","","","feedback_test"
"","","","","","psychophysics","393","739508","0.0-13.0-0.0-1.0-0.1-0.116","539","","f","","","","","","","","","","","","","key","f","16.522739999999757","768","428","f","true","img/S_ambi40.png","好人","image_first",""
"","","","","","html-keyboard-response","394","739814","0.0-13.0-0.0-1.0-0.1-1.116","null","<span style='color:GreenYellow; font-size: 70px;'>正确! </span>","null","","","","","","","","","","","","","","","","","","","","","","","feedback_test"
"","","","","","psychophysics","395","741844","0.0-13.0-0.0-1.0-0.1-0.117","877","","j","","","","","","","","","","","","","key","j","16.651286885245383","768","428","j","true","img/T_ambi40.png","好人","image_first",""
"","","","","","html-keyboard-response","396","742159","0.0-13.0-0.0-1.0-0.1-1.117","null","<span style='color:GreenYellow; font-size: 70px;'>正确! </span>","null","","","","","","","","","","","","","","","","","","","","","","","feedback_test"
"","","","","","psychophysics","397","743805","0.0-13.0-0.0-1.0-0.1-0.118","494","","j","","","","","","","","","","","","","key","j","16.651030303029618","768","428","f","false","img/T_ambi40.png","常人","image_first",""
"","","","","","html-keyboard-response","398","744119","0.0-13.0-0.0-1.0-0.1-1.118","null","<span style='color:red; font-size: 70px;'>错误! </span>","null","","","","","","","","","","","","","","","","","","","","","","","feedback_test"
"","","","","","psychophysics","399","746061","0.0-13.0-0.0-1.0-0.1-0.119","781","","f","","","","","","","","","","","","","key","f","16.65","768","428","f","true","img/C_ambi40.png","坏人","image_first",""
"","","","","","html-keyboard-response","400","746367","0.0-13.0-0.0-1.0-0.1-1.119","null","<span style='color:GreenYellow; font-size: 70px;'>正确! </span>","null","","","","","","","","","","","","","","","","","","","","","","","feedback_test"
"","","","","","html-keyboard-response","401","838348","0.0-13.0-0.0-1.0-1.1","91980","<style>.context{color:white; font-size: 35px; line-height:40px}</style>                              <div><p class='context'>您正确回答了92% 的试次。</p><p class='context'>您的平均反应时为630毫秒。</p><p class='context'>请按任意键进入休息</p></div>"," ","","","","","","","","","","","","","","","","","","","","","","",""
"","","","","","html-button-response","402","903826","0.0-13.0-0.0-1.0-2.1","65476","
                      <p>您当前还剩余2组实验</p>
                      <p>现在是休息时间，当您结束休息后，您可以点击 结束休息 按钮 继续</p>
                      <p>建议休息时间还剩余<span id=""iii"">60</span>秒</p>","0","","","","","","","","","","","","","","","","","","","","","","",""
"","","","","","psychophysics","403","905988","0.0-13.0-0.0-1.0-0.2-0.120","1008","","j","","","","","","","","","","","","","key","j","16.652085271317425","768","428","j","true","img/S_ambi40.png","坏人","image_first",""
"","","","","","html-keyboard-response","404","906289","0.0-13.0-0.0-1.0-0.2-1.120","null","<span style='color:GreenYellow; font-size: 70px;'>正确! </span>","null","","","","","","","","","","","","","","","","","","","","","","","feedback_test"
"","","","","","psychophysics","405","908084","0.0-13.0-0.0-1.0-0.2-0.121","639","","j","","","","","","","","","","","","","key","j","16.650766355140032","768","428","j","true","img/C_ambi40.png","常人","image_first",""
"","","","","","html-keyboard-response","406","908388","0.0-13.0-0.0-1.0-0.2-1.121","null","<span style='color:GreenYellow; font-size: 70px;'>正确! </span>","null","","","","","","","","","","","","","","","","","","","","","","","feedback_test"
"","","","","","psychophysics","407","910045","0.0-13.0-0.0-1.0-0.2-0.122","502","","j","","","","","","","","","","","","","key","j","16.652292929292244","768","428","j","true","img/S_ambi40.png","常人","image_first",""
"","","","","","html-keyboard-response","408","910360","0.0-13.0-0.0-1.0-0.2-1.122","null","<span style='color:GreenYellow; font-size: 70px;'>正确! </span>","null","","","","","","","","","","","","","","","","","","","","","","","feedback_test"
"","","","","","psychophysics","409","912148","0.0-13.0-0.0-1.0-0.2-0.123","627","","f","","","","","","","","","","","","","key","f","16.649289719625507","768","428","f","true","img/C_ambi40.png","坏人","image_first",""
"","","","","","html-keyboard-response","410","912452","0.0-13.0-0.0-1.0-0.2-1.123","null","<span style='color:GreenYellow; font-size: 70px;'>正确! </span>","null","","","","","","","","","","","","","","","","","","","","","","","feedback_test"
"","","","","","psychophysics","411","914093","0.0-13.0-0.0-1.0-0.2-0.124","487","","j","","","","","","","","","","","","","key","j","16.65021212121138","768","428","j","true","img/C_ambi40.png","好人","image_first",""
"","","","","","html-keyboard-response","412","914394","0.0-13.0-0.0-1.0-0.2-1.124","null","<span style='color:GreenYellow; font-size: 70px;'>正确! </span>","null","","","","","","","","","","","","","","","","","","","","","","","feedback_test"
"","","","","","psychophysics","413","916116","0.0-13.0-0.0-1.0-0.2-0.125","563","","j","","","","","","","","","","","","","key","j","16.651794117647132","768","428","j","true","img/T_ambi40.png","坏人","image_first",""
"","","","","","html-keyboard-response","414","916427","0.0-13.0-0.0-1.0-0.2-1.125","null","<span style='color:GreenYellow; font-size: 70px;'>正确! </span>","null","","","","","","","","","","","","","","","","","","","","","","","feedback_test"
"","","","","","psychophysics","415","918420","0.0-13.0-0.0-1.0-0.2-0.126","835","","f","","","","","","","","","","","","","key","f","16.651524999999673","768","428","f","true","img/T_ambi40.png","常人","image_first",""
"","","","","","html-keyboard-response","416","918725","0.0-13.0-0.0-1.0-0.2-1.126","null","<span style='color:GreenYellow; font-size: 70px;'>正确! </span>","null","","","","","","","","","","","","","","","","","","","","","","","feedback_test"
"","","","","","psychophysics","417","920444","0.0-13.0-0.0-1.0-0.2-0.127","561","","j","","","","","","","","","","","","","key","j","16.650186274509977","768","428","f","false","img/T_ambi40.png","常人","image_first",""
"","","","","","html-keyboard-response","418","920758","0.0-13.0-0.0-1.0-0.2-1.127","null","<span style='color:red; font-size: 70px;'>错误! </span>","null","","","","","","","","","","","","","","","","","","","","","","","feedback_test"
"","","","","","psychophysics","419","922468","0.0-13.0-0.0-1.0-0.2-0.128","554","","f","","","","","","","","","","","","","key","f","16.652676470587988","768","428","f","true","img/C_ambi40.png","坏人","image_first",""
"","","","","","html-keyboard-response","420","922777","0.0-13.0-0.0-1.0-0.2-1.128","null","<span style='color:GreenYellow; font-size: 70px;'>正确! </span>","null","","","","","","","","","","","","","","","","","","","","","","","feedback_test"
"","","","","","psychophysics","421","924469","0.0-13.0-0.0-1.0-0.2-0.129","540","","j","","","","","","","","","","","","","key","j","16.65090196078424","768","428","j","true","img/T_ambi40.png","好人","image_first",""
"","","","","","html-keyboard-response","422","924781","0.0-13.0-0.0-1.0-0.2-1.129","null","<span style='color:GreenYellow; font-size: 70px;'>正确! </span>","null","","","","","","","","","","","","","","","","","","","","","","","feedback_test"
"","","","","","psychophysics","423","926412","0.0-13.0-0.0-1.0-0.2-0.130","468","","f","","","","","","","","","","","","","key","f","16.649091836735035","768","428","f","true","img/S_ambi40.png","好人","image_first",""
"","","","","","html-keyboard-response","424","926722","0.0-13.0-0.0-1.0-0.2-1.130","null","<span style='color:GreenYellow; font-size: 70px;'>正确! </span>","null","","","","","","","","","","","","","","","","","","","","","","","feedback_test"
"","","","","","psychophysics","425","928341","0.0-13.0-0.0-1.0-0.2-0.131","466","","f","","","","","","","","","","","","","key","f","16.6532708333325","768","428","f","true","img/S_ambi40.png","好人","image_first",""
"","","","","","html-keyboard-response","426","928649","0.0-13.0-0.0-1.0-0.2-1.131","null","<span style='color:GreenYellow; font-size: 70px;'>正确! </span>","null","","","","","","","","","","","","","","","","","","","","","","","feedback_test"
"","","","","","psychophysics","427","930348","0.0-13.0-0.0-1.0-0.2-0.132","541","","j","","","","","","","","","","","","","key","j","16.64980392156776","768","428","j","true","img/S_ambi40.png","坏人","image_first",""
"","","","","","html-keyboard-response","428","930664","0.0-13.0-0.0-1.0-0.2-1.132","null","<span style='color:GreenYellow; font-size: 70px;'>正确! </span>","null","","","","","","","","","","","","","","","","","","","","","","","feedback_test"
"","","","","","psychophysics","429","932348","0.0-13.0-0.0-1.0-0.2-0.133","526","","j","","","","","","","","","","","","","key","j","16.653227722771366","768","428","j","true","img/T_ambi40.png","坏人","image_first",""
"","","","","","html-keyboard-response","430","932649","0.0-13.0-0.0-1.0-0.2-1.133","null","<span style='color:GreenYellow; font-size: 70px;'>正确! </span>","null","","","","","","","","","","","","","","","","","","","","","","","feedback_test"
"","","","","","psychophysics","431","934252","0.0-13.0-0.0-1.0-0.2-0.134","449","","f","","","","","","","","","","","","","key","f","16.65175789473701","768","428","f","true","img/S_ambi40.png","好人","image_first",""
"","","","","","html-keyboard-response","432","934560","0.0-13.0-0.0-1.0-0.2-1.134","null","<span style='color:GreenYellow; font-size: 70px;'>正确! </span>","null","","","","","","","","","","","","","","","","","","","","","","","feedback_test"
