"success","timeout","failed_images","failed_audio","failed_video","trial_type","trial_index","time_elapsed","internal_node_id","rt","stimulus","response","value","item_width_mm","item_height_mm","item_width_px","px2mm","view_dist_mm","item_width_deg","px2deg","scale_factor","win_width_deg","win_height_deg","view_history","response_type","key_press","avg_frame_time","center_x","center_y","correct_response","correct","Image","word","condition","screen_id"
"true","false","[]","[]","[]","preload","0","50","0.0-0.0","","","","","","","","","","","","","","","","","","","","","","","","","",""
"","","","","","html-keyboard-response","1","163349","0.0-1.0","163296","
     <p>您好，欢迎参加本次实验。</p>
     <p>为充分保障您的权利，请确保您已经知晓并同意《参与实验同意书》以及《数据公开知情同意书》。</p>
     <p>如果您未见过上述内容，请咨询实验员。</p>
     <p>如果您选择继续实验，则表示您已经清楚两份知情同意书的内容并同意。</p>
     <p> <div style = ""color: green""><按任意键至下页></div> </p>
     ","k","","","","","","","","","","","","","","","","","","","","","","",""
"","","","","","html-keyboard-response","2","164177","0.0-2.0","827","
     <p>本实验首先需要您填写一些基本个人信息。</p>
     <p> <div style = ""color: green""><按任意键至下页></div></p>
     ","k","","","","","","","","","","","","","","","","","","","","","","",""
"","","","","","call-function","3","164178","0.0-3.0-0.0","","","","","","","","","","","","","","","","","","","","","","","","","",""
"","","","","","survey-html-form","4","168325","0.0-3.0-1.0","4143","","{""Q0"":""38""}","","","","","","","","","","","","","","","","","","","","","","",""
"","","","","","html-button-response","5","170124","0.0-3.0-2.0","1796","<p style = 'color : white'>您的性别</p>","0","","","","","","","","","","","","","","","","","","","","","","",""
"","","","","","survey-html-form","6","175405","0.0-3.0-3.0","5278","","{""Q0"":""2001""}","","","","","","","","","","","","","","","","","","","","","","",""
"","","","","","survey-html-form","7","179769","0.0-3.0-4.0","4360","","{""Q0"":""5""}","","","","","","","","","","","","","","","","","","","","","","",""
"","","","","","virtual-chinrest","8","224415","0.0-4.0","44644","","","","85.6","53.98","598.8974079414535","6.9913659274521365","407.97","11.977948158829069","50","0.7881149488062927","32","16.98","","","","","","","","","","","",""
"true","","","","","fullscreen","9","226414","0.0-5.0","","","","","","","","","","","","","","","","","","","","","","","","","",""
"","","","","","instructions","10","327495","0.0-6.0","101078","","","","","","","","","","","","","","[{""page_index"":0,""viewing_time"":1397},{""page_index"":1,""viewing_time"":71380},{""page_index"":2,""viewing_time"":24058},{""page_index"":3,""viewing_time"":4242}]","","","","","","","","","","",""
"","","","","","psychophysics","11","329611","0.0-7.0-0.0-0.0","961","","j","","","","","","","","","","","","","key","j","16.687706349206447","799.7222434076268","495.83334646843133","j","true","img/T_ambi40.png","常人","prac_image_first",""
"","","","","","html-keyboard-response","12","329915","0.0-7.0-0.0-1.0","null","<span style='color:GreenYellow; font-size: 70px;'>正确! </span>","null","","","","","","","","","","","","","","","","","","","","","","","feedback_test"
"","","","","","psychophysics","13","331896","0.0-7.0-0.0-0.1","825","","f","","","","","","","","","","","","","key","f","16.665999999999904","799.7222434076268","495.83334646843133","f","true","img/C_ambi40.png","常人","prac_image_first",""
"","","","","","html-keyboard-response","14","332205","0.0-7.0-0.0-1.1","null","<span style='color:GreenYellow; font-size: 70px;'>正确! </span>","null","","","","","","","","","","","","","","","","","","","","","","","feedback_test"
"","","","","","psychophysics","15","334226","0.0-7.0-0.0-0.2","860","","f","","","","","","","","","","","","","key","f","16.66600000000035","799.7222434076268","495.83334646843133","f","true","img/T_ambi40.png","坏人","prac_image_first",""
"","","","","","html-keyboard-response","16","334535","0.0-7.0-0.0-1.2","null","<span style='color:GreenYellow; font-size: 70px;'>正确! </span>","null","","","","","","","","","","","","","","","","","","","","","","","feedback_test"
"","","","","","psychophysics","17","336326","0.0-7.0-0.0-0.3","639","","j","","","","","","","","","","","","","key","j","16.665999999999634","799.7222434076268","495.83334646843133","j","true","img/S_ambi40.png","坏人","prac_image_first",""
"","","","","","html-keyboard-response","18","336635","0.0-7.0-0.0-1.3","null","<span style='color:GreenYellow; font-size: 70px;'>正确! </span>","null","","","","","","","","","","","","","","","","","","","","","","","feedback_test"
"","","","","","psychophysics","19","338681","0.0-7.0-0.0-0.4","886","","f","","","","","","","","","","","","","key","f","16.666000000000086","799.7222434076268","495.83334646843133","f","true","img/S_ambi40.png","好人","prac_image_first",""
"","","","","","html-keyboard-response","20","338986","0.0-7.0-0.0-1.4","null","<span style='color:GreenYellow; font-size: 70px;'>正确! </span>","null","","","","","","","","","","","","","","","","","","","","","","","feedback_test"
"","","","","","psychophysics","21","340721","0.0-7.0-0.0-0.5","582","","j","","","","","","","","","","","","","key","j","16.665999999999983","799.7222434076268","495.83334646843133","j","true","img/C_ambi40.png","坏人","prac_image_first",""
"","","","","","html-keyboard-response","22","341027","0.0-7.0-0.0-1.5","null","<span style='color:GreenYellow; font-size: 70px;'>正确! </span>","null","","","","","","","","","","","","","","","","","","","","","","","feedback_test"
"","","","","","psychophysics","23","343407","0.0-7.0-0.0-0.6","1221","","f","","","","","","","","","","","","","key","f","16.665999999999897","799.7222434076268","495.83334646843133","f","true","img/T_ambi40.png","坏人","prac_image_first",""
"","","","","","html-keyboard-response","24","343715","0.0-7.0-0.0-1.6","null","<span style='color:GreenYellow; font-size: 70px;'>正确! </span>","null","","","","","","","","","","","","","","","","","","","","","","","feedback_test"
"","","","","","psychophysics","25","345661","0.0-7.0-0.0-0.7","792","","f","","","","","","","","","","","","","key","f","16.665999999999947","799.7222434076268","495.83334646843133","f","true","img/S_ambi40.png","好人","prac_image_first",""
"","","","","","html-keyboard-response","26","345974","0.0-7.0-0.0-1.7","null","<span style='color:GreenYellow; font-size: 70px;'>正确! </span>","null","","","","","","","","","","","","","","","","","","","","","","","feedback_test"
"","","","","","psychophysics","27","347945","0.0-7.0-0.0-0.8","814","","j","","","","","","","","","","","","","key","j","16.620401709401705","799.7222434076268","495.83334646843133","j","true","img/T_ambi40.png","好人","prac_image_first",""
"","","","","","html-keyboard-response","28","348251","0.0-7.0-0.0-1.8","null","<span style='color:GreenYellow; font-size: 70px;'>正确! </span>","null","","","","","","","","","","","","","","","","","","","","","","","feedback_test"
"","","","","","psychophysics","29","350154","0.0-7.0-0.0-0.9","740","","f","","","","","","","","","","","","","key","f","16.665999999999755","799.7222434076268","495.83334646843133","f","true","img/C_ambi40.png","常人","prac_image_first",""
"","","","","","html-keyboard-response","30","350459","0.0-7.0-0.0-1.9","null","<span style='color:GreenYellow; font-size: 70px;'>正确! </span>","null","","","","","","","","","","","","","","","","","","","","","","","feedback_test"
"","","","","","psychophysics","31","352720","0.0-7.0-0.0-0.10","1106","","j","","","","","","","","","","","","","key","j","16.666000000000242","799.7222434076268","495.83334646843133","j","true","img/S_ambi40.png","常人","prac_image_first",""
"","","","","","html-keyboard-response","32","353030","0.0-7.0-0.0-1.10","null","<span style='color:GreenYellow; font-size: 70px;'>正确! </span>","null","","","","","","","","","","","","","","","","","","","","","","","feedback_test"
"","","","","","psychophysics","33","355070","0.0-7.0-0.0-0.11","888","","j","","","","","","","","","","","","","key","j","16.666000000000086","799.7222434076268","495.83334646843133","j","true","img/C_ambi40.png","好人","prac_image_first",""
"","","","","","html-keyboard-response","34","355379","0.0-7.0-0.0-1.11","null","<span style='color:GreenYellow; font-size: 70px;'>正确! </span>","null","","","","","","","","","","","","","","","","","","","","","","","feedback_test"
"","","","","","psychophysics","35","357746","0.0-7.0-0.0-0.12","1203","","j","","","","","","","","","","","","","key","j","16.66600000000012","799.7222434076268","495.83334646843133","j","true","img/S_ambi40.png","常人","prac_image_first",""
"","","","","","html-keyboard-response","36","358050","0.0-7.0-0.0-1.12","null","<span style='color:GreenYellow; font-size: 70px;'>正确! </span>","null","","","","","","","","","","","","","","","","","","","","","","","feedback_test"
"","","","","","psychophysics","37","360129","0.0-7.0-0.0-0.13","923","","f","","","","","","","","","","","","","key","f","16.666000000000043","799.7222434076268","495.83334646843133","f","true","img/T_ambi40.png","坏人","prac_image_first",""
"","","","","","html-keyboard-response","38","360434","0.0-7.0-0.0-1.13","null","<span style='color:GreenYellow; font-size: 70px;'>正确! </span>","null","","","","","","","","","","","","","","","","","","","","","","","feedback_test"
"","","","","","psychophysics","39","362384","0.0-7.0-0.0-0.14","798","","j","","","","","","","","","","","","","key","j","16.665999999999947","799.7222434076268","495.83334646843133","j","true","img/T_ambi40.png","好人","prac_image_first",""
"","","","","","html-keyboard-response","40","362694","0.0-7.0-0.0-1.14","null","<span style='color:GreenYellow; font-size: 70px;'>正确! </span>","null","","","","","","","","","","","","","","","","","","","","","","","feedback_test"
"","","","","","psychophysics","41","364588","0.0-7.0-0.0-0.15","742","","j","","","","","","","","","","","","","key","j","16.665999999999755","799.7222434076268","495.83334646843133","j","true","img/C_ambi40.png","好人","prac_image_first",""
"","","","","","html-keyboard-response","42","364891","0.0-7.0-0.0-1.15","null","<span style='color:GreenYellow; font-size: 70px;'>正确! </span>","null","","","","","","","","","","","","","","","","","","","","","","","feedback_test"
"","","","","","psychophysics","43","366645","0.0-7.0-0.0-0.16","600","","j","","","","","","","","","","","","","key","j","16.66600000000024","799.7222434076268","495.83334646843133","j","true","img/C_ambi40.png","坏人","prac_image_first",""
"","","","","","html-keyboard-response","44","366947","0.0-7.0-0.0-1.16","null","<span style='color:GreenYellow; font-size: 70px;'>正确! </span>","null","","","","","","","","","","","","","","","","","","","","","","","feedback_test"
"","","","","","psychophysics","45","368995","0.0-7.0-0.0-0.17","888","","f","","","","","","","","","","","","","key","f","16.621811475409633","799.7222434076268","495.83334646843133","f","true","img/T_ambi40.png","坏人","prac_image_first",""
"","","","","","html-keyboard-response","46","369299","0.0-7.0-0.0-1.17","null","<span style='color:GreenYellow; font-size: 70px;'>正确! </span>","null","","","","","","","","","","","","","","","","","","","","","","","feedback_test"
"","","","","","psychophysics","47","371253","0.0-7.0-0.0-0.18","796","","j","","","","","","","","","","","","","key","j","16.665999999999947","799.7222434076268","495.83334646843133","j","true","img/S_ambi40.png","坏人","prac_image_first",""
"","","","","","html-keyboard-response","48","371555","0.0-7.0-0.0-1.18","null","<span style='color:GreenYellow; font-size: 70px;'>正确! </span>","null","","","","","","","","","","","","","","","","","","","","","","","feedback_test"
"","","","","","psychophysics","49","373740","0.0-7.0-0.0-0.19","1033","","f","","","","","","","","","","","","","key","f","16.665999999999883","799.7222434076268","495.83334646843133","f","true","img/S_ambi40.png","好人","prac_image_first",""
"","","","","","html-keyboard-response","50","374045","0.0-7.0-0.0-1.19","null","<span style='color:GreenYellow; font-size: 70px;'>正确! </span>","null","","","","","","","","","","","","","","","","","","","","","","","feedback_test"
"","","","","","psychophysics","51","376266","0.0-7.0-0.0-0.20","1062","","f","","","","","","","","","","","","","key","f","16.666000000000086","799.7222434076268","495.83334646843133","f","true","img/C_ambi40.png","常人","prac_image_first",""
"","","","","","html-keyboard-response","52","376574","0.0-7.0-0.0-1.20","null","<span style='color:GreenYellow; font-size: 70px;'>正确! </span>","null","","","","","","","","","","","","","","","","","","","","","","","feedback_test"
"","","","","","psychophysics","53","378919","0.0-7.0-0.0-0.21","1187","","j","","","","","","","","","","","","","key","j","16.66600000000016","799.7222434076268","495.83334646843133","j","true","img/T_ambi40.png","常人","prac_image_first",""
"","","","","","html-keyboard-response","54","379228","0.0-7.0-0.0-1.21","null","<span style='color:GreenYellow; font-size: 70px;'>正确! </span>","null","","","","","","","","","","","","","","","","","","","","","","","feedback_test"
"","","","","","psychophysics","55","381438","0.0-7.0-0.0-0.22","1052","","f","","","","","","","","","","","","","key","f","16.665999999999883","799.7222434076268","495.83334646843133","f","true","img/S_ambi40.png","好人","prac_image_first",""
"","","","","","html-keyboard-response","56","381750","0.0-7.0-0.0-1.22","null","<span style='color:GreenYellow; font-size: 70px;'>正确! </span>","null","","","","","","","","","","","","","","","","","","","","","","","feedback_test"
"","","","","","psychophysics","57","383956","0.0-7.0-0.0-0.23","1048","","f","","","","","","","","","","","","","key","f","16.665999999999883","799.7222434076268","495.83334646843133","f","true","img/C_ambi40.png","常人","prac_image_first",""
"","","","","","html-keyboard-response","58","384259","0.0-7.0-0.0-1.23","null","<span style='color:GreenYellow; font-size: 70px;'>正确! </span>","null","","","","","","","","","","","","","","","","","","","","","","","feedback_test"
"","","","","","html-keyboard-response","59","454220","0.0-8.0","69957","<style>.context{color:white; font-size: 35px; line-height:40px}</style>                              <div><p class='context'>您正确回答了100% 的试次。</p><p class='context'>您的平均反应时为902毫秒。</p><p class='context'>恭喜您完成这一阶段的练习。按任意键进入<span style='color: yellow;'>先文字后图形条件</span>的练习。</p></div>"," ","","","","","","","","","","","","","","","","","","","","","","",""
"","","","","","psychophysics","60","456885","0.0-9.0-0.0-0.0","null","","null","","","","","","","","","","","","","key","null","16.703886075949228","799.7222434076268","495.83334646843133","f","false","img/C_ambi40.png","常人","prac_word_first",""
"","","","","","html-keyboard-response","61","457187","0.0-9.0-0.0-1.0","null","<span class='add_' style='color:yellow; font-size: 70px;'> 太慢! </span>","null","","","","","","","","","","","","","","","","","","","","","","","feedback_test"
"","","","","","psychophysics","62","458993","0.0-9.0-0.0-0.1","651","","j","","","","","","","","","","","","","key","j","16.665999999999887","799.7222434076268","495.83334646843133","j","true","img/T_ambi40.png","好人","prac_word_first",""
"","","","","","html-keyboard-response","63","459301","0.0-9.0-0.0-1.1","null","<span style='color:GreenYellow; font-size: 70px;'>正确! </span>","null","","","","","","","","","","","","","","","","","","","","","","","feedback_test"
"","","","","","psychophysics","64","461391","0.0-9.0-0.0-0.2","931","","f","","","","","","","","","","","","","key","f","16.665999999999787","799.7222434076268","495.83334646843133","j","false","img/C_ambi40.png","坏人","prac_word_first",""
"","","","","","html-keyboard-response","65","461701","0.0-9.0-0.0-1.2","null","<span style='color:red; font-size: 70px;'>错误! </span>","null","","","","","","","","","","","","","","","","","","","","","","","feedback_test"
"","","","","","psychophysics","66","463786","0.0-9.0-0.0-0.3","925","","f","","","","","","","","","","","","","key","f","16.666000000000256","799.7222434076268","495.83334646843133","f","true","img/S_ambi40.png","好人","prac_word_first",""
"","","","","","html-keyboard-response","67","464094","0.0-9.0-0.0-1.3","null","<span style='color:GreenYellow; font-size: 70px;'>正确! </span>","null","","","","","","","","","","","","","","","","","","","","","","","feedback_test"
"","","","","","psychophysics","68","466033","0.0-9.0-0.0-0.4","787","","f","","","","","","","","","","","","","key","f","16.666000000000224","799.7222434076268","495.83334646843133","f","true","img/T_ambi40.png","坏人","prac_word_first",""
"","","","","","html-keyboard-response","69","466340","0.0-9.0-0.0-1.4","null","<span style='color:GreenYellow; font-size: 70px;'>正确! </span>","null","","","","","","","","","","","","","","","","","","","","","","","feedback_test"
"","","","","","psychophysics","70","468196","0.0-9.0-0.0-0.5","702","","j","","","","","","","","","","","","","key","j","16.666000000000324","799.7222434076268","495.83334646843133","f","false","img/C_ambi40.png","常人","prac_word_first",""
"","","","","","html-keyboard-response","71","468499","0.0-9.0-0.0-1.5","null","<span style='color:red; font-size: 70px;'>错误! </span>","null","","","","","","","","","","","","","","","","","","","","","","","feedback_test"
"","","","","","psychophysics","72","470961","0.0-9.0-0.0-0.6","1310","","j","","","","","","","","","","","","","key","j","16.66600000000001","799.7222434076268","495.83334646843133","f","false","img/T_ambi40.png","坏人","prac_word_first",""
"","","","","","html-keyboard-response","73","471267","0.0-9.0-0.0-1.6","null","<span style='color:red; font-size: 70px;'>错误! </span>","null","","","","","","","","","","","","","","","","","","","","","","","feedback_test"
"","","","","","psychophysics","74","473394","0.0-9.0-0.0-0.7","972","","f","","","","","","","","","","","","","key","f","16.66599999999996","799.7222434076268","495.83334646843133","f","true","img/S_ambi40.png","好人","prac_word_first",""
"","","","","","html-keyboard-response","75","473701","0.0-9.0-0.0-1.7","null","<span style='color:GreenYellow; font-size: 70px;'>正确! </span>","null","","","","","","","","","","","","","","","","","","","","","","","feedback_test"
"","","","","","psychophysics","76","475951","0.0-9.0-0.0-0.8","1091","","j","","","","","","","","","","","","","key","j","16.666000000000047","799.7222434076268","495.83334646843133","j","true","img/C_ambi40.png","好人","prac_word_first",""
"","","","","","html-keyboard-response","77","476260","0.0-9.0-0.0-1.8","null","<span style='color:GreenYellow; font-size: 70px;'>正确! </span>","null","","","","","","","","","","","","","","","","","","","","","","","feedback_test"
"","","","","","psychophysics","78","478788","0.0-9.0-0.0-0.9","1375","","j","","","","","","","","","","","","","key","j","16.665999999999766","799.7222434076268","495.83334646843133","j","true","img/S_ambi40.png","常人","prac_word_first",""
"","","","","","html-keyboard-response","79","479095","0.0-9.0-0.0-1.9","null","<span style='color:GreenYellow; font-size: 70px;'>正确! </span>","null","","","","","","","","","","","","","","","","","","","","","","","feedback_test"
"","","","","","psychophysics","80","481031","0.0-9.0-0.0-0.10","778","","j","","","","","","","","","","","","","key","j","16.666000000000224","799.7222434076268","495.83334646843133","j","true","img/T_ambi40.png","常人","prac_word_first",""
"","","","","","html-keyboard-response","81","481340","0.0-9.0-0.0-1.10","null","<span style='color:GreenYellow; font-size: 70px;'>正确! </span>","null","","","","","","","","","","","","","","","","","","","","","","","feedback_test"
"","","","","","psychophysics","82","483391","0.0-9.0-0.0-0.11","898","","j","","","","","","","","","","","","","key","j","16.665999999999823","799.7222434076268","495.83334646843133","j","true","img/S_ambi40.png","坏人","prac_word_first",""
"","","","","","html-keyboard-response","83","483701","0.0-9.0-0.0-1.11","null","<span style='color:GreenYellow; font-size: 70px;'>正确! </span>","null","","","","","","","","","","","","","","","","","","","","","","","feedback_test"
"","","","","","psychophysics","84","485508","0.0-9.0-0.0-0.12","648","","j","","","","","","","","","","","","","key","j","16.665999999999887","799.7222434076268","495.83334646843133","j","true","img/C_ambi40.png","坏人","prac_word_first",""
"","","","","","html-keyboard-response","85","485811","0.0-9.0-0.0-1.12","null","<span style='color:GreenYellow; font-size: 70px;'>正确! </span>","null","","","","","","","","","","","","","","","","","","","","","","","feedback_test"
"","","","","","psychophysics","86","487675","0.0-9.0-0.0-0.13","712","","j","","","","","","","","","","","","","key","j","16.666000000000086","799.7222434076268","495.83334646843133","j","true","img/S_ambi40.png","坏人","prac_word_first",""
"","","","","","html-keyboard-response","87","487983","0.0-9.0-0.0-1.13","null","<span style='color:GreenYellow; font-size: 70px;'>正确! </span>","null","","","","","","","","","","","","","","","","","","","","","","","feedback_test"
"","","","","","psychophysics","88","489833","0.0-9.0-0.0-0.14","691","","f","","","","","","","","","","","","","key","f","16.666000000000086","799.7222434076268","495.83334646843133","f","true","img/T_ambi40.png","坏人","prac_word_first",""
"","","","","","html-keyboard-response","89","490142","0.0-9.0-0.0-1.14","null","<span style='color:GreenYellow; font-size: 70px;'>正确! </span>","null","","","","","","","","","","","","","","","","","","","","","","","feedback_test"
"","","","","","psychophysics","90","492619","0.0-9.0-0.0-0.15","1325","","f","","","","","","","","","","","","","key","f","16.66600000000001","799.7222434076268","495.83334646843133","j","false","img/C_ambi40.png","好人","prac_word_first",""
"","","","","","html-keyboard-response","91","492924","0.0-9.0-0.0-1.15","null","<span style='color:red; font-size: 70px;'>错误! </span>","null","","","","","","","","","","","","","","","","","","","","","","","feedback_test"
"","","","","","psychophysics","92","494962","0.0-9.0-0.0-0.16","885","","f","","","","","","","","","","","","","key","f","16.63200819672116","799.7222434076268","495.83334646843133","f","true","img/T_ambi40.png","坏人","prac_word_first",""
"","","","","","html-keyboard-response","93","495267","0.0-9.0-0.0-1.16","null","<span style='color:GreenYellow; font-size: 70px;'>正确! </span>","null","","","","","","","","","","","","","","","","","","","","","","","feedback_test"
"","","","","","psychophysics","94","497053","0.0-9.0-0.0-0.17","631","","f","","","","","","","","","","","","","key","f","16.665999999999634","799.7222434076268","495.83334646843133","f","true","img/C_ambi40.png","常人","prac_word_first",""
"","","","","","html-keyboard-response","95","497357","0.0-9.0-0.0-1.17","null","<span style='color:GreenYellow; font-size: 70px;'>正确! </span>","null","","","","","","","","","","","","","","","","","","","","","","","feedback_test"
"","","","","","psychophysics","96","499196","0.0-9.0-0.0-0.18","677","","j","","","","","","","","","","","","","key","j","16.66599999999984","799.7222434076268","495.83334646843133","j","true","img/S_ambi40.png","常人","prac_word_first",""
"","","","","","html-keyboard-response","97","499501","0.0-9.0-0.0-1.18","null","<span style='color:GreenYellow; font-size: 70px;'>正确! </span>","null","","","","","","","","","","","","","","","","","","","","","","","feedback_test"
"","","","","","psychophysics","98","501392","0.0-9.0-0.0-0.19","738","","j","","","","","","","","","","","","","key","j","16.665999999999755","799.7222434076268","495.83334646843133","j","true","img/T_ambi40.png","常人","prac_word_first",""
"","","","","","html-keyboard-response","99","501701","0.0-9.0-0.0-1.19","null","<span style='color:GreenYellow; font-size: 70px;'>正确! </span>","null","","","","","","","","","","","","","","","","","","","","","","","feedback_test"
"","","","","","psychophysics","100","503831","0.0-9.0-0.0-0.20","975","","f","","","","","","","","","","","","","key","f","16.66599999999996","799.7222434076268","495.83334646843133","f","true","img/C_ambi40.png","常人","prac_word_first",""
"","","","","","html-keyboard-response","101","504142","0.0-9.0-0.0-1.20","null","<span style='color:GreenYellow; font-size: 70px;'>正确! </span>","null","","","","","","","","","","","","","","","","","","","","","","","feedback_test"
"","","","","","psychophysics","102","505934","0.0-9.0-0.0-0.21","633","","j","","","","","","","","","","","","","key","j","16.665999999999634","799.7222434076268","495.83334646843133","f","false","img/S_ambi40.png","好人","prac_word_first",""
"","","","","","html-keyboard-response","103","506236","0.0-9.0-0.0-1.21","null","<span style='color:red; font-size: 70px;'>错误! </span>","null","","","","","","","","","","","","","","","","","","","","","","","feedback_test"
"","","","","","psychophysics","104","508692","0.0-9.0-0.0-0.22","1303","","f","","","","","","","","","","","","","key","f","16.66600000000023","799.7222434076268","495.83334646843133","f","true","img/S_ambi40.png","好人","prac_word_first",""
"","","","","","html-keyboard-response","105","508997","0.0-9.0-0.0-1.22","null","<span style='color:GreenYellow; font-size: 70px;'>正确! </span>","null","","","","","","","","","","","","","","","","","","","","","","","feedback_test"
"","","","","","psychophysics","106","510909","0.0-9.0-0.0-0.23","754","","j","","","","","","","","","","","","","key","j","16.665999999999993","799.7222434076268","495.83334646843133","j","true","img/T_ambi40.png","好人","prac_word_first",""
"","","","","","html-keyboard-response","107","511216","0.0-9.0-0.0-1.23","null","<span style='color:GreenYellow; font-size: 70px;'>正确! </span>","null","","","","","","","","","","","","","","","","","","","","","","","feedback_test"
"","","","","","html-keyboard-response","108","524886","0.0-10.0","13667","<style>.context{color:white; font-size: 35px; line-height:40px}</style>                              <div><p class='context'>您正确回答了75% 的试次。</p><p class='context'>您的平均反应时为861毫秒。</p><p class='context'>恭喜您完成练习。按任意键进入<span style='color: yellow;'>图形和文字同时呈现条件</span>的练习。</p></div>"," ","","","","","","","","","","","","","","","","","","","","","","",""
"","","","","","psychophysics","109","527022","0.0-11.0-0.0-0.0","1128","","f","","","","","","","","","","","","","key","f","16.71311111111168","799.7222434076268","495.83334646843133","f","true","img/S_ambi40.png","好人","prac_simultaneous",""
"","","","","","html-keyboard-response","110","527325","0.0-11.0-0.0-1.0","null","<span style='color:GreenYellow; font-size: 70px;'>正确! </span>","null","","","","","","","","","","","","","","","","","","","","","","","feedback_test"
"","","","","","psychophysics","111","529065","0.0-11.0-0.0-0.1","737","","j","","","","","","","","","","","","","key","j","16.665999999999983","799.7222434076268","495.83334646843133","j","true","img/T_ambi40.png","好人","prac_simultaneous",""
"","","","","","html-keyboard-response","112","529372","0.0-11.0-0.0-1.1","null","<span style='color:GreenYellow; font-size: 70px;'>正确! </span>","null","","","","","","","","","","","","","","","","","","","","","","","feedback_test"
"","","","","","psychophysics","113","531217","0.0-11.0-0.0-0.2","839","","f","","","","","","","","","","","","","key","f","16.666000000000086","799.7222434076268","495.83334646843133","f","true","img/S_ambi40.png","好人","prac_simultaneous",""
"","","","","","html-keyboard-response","114","531525","0.0-11.0-0.0-1.2","null","<span style='color:GreenYellow; font-size: 70px;'>正确! </span>","null","","","","","","","","","","","","","","","","","","","","","","","feedback_test"
"","","","","","psychophysics","115","533515","0.0-11.0-0.0-0.3","973","","f","","","","","","","","","","","","","key","f","16.665999999999904","799.7222434076268","495.83334646843133","f","true","img/T_ambi40.png","坏人","prac_simultaneous",""
"","","","","","html-keyboard-response","116","533821","0.0-11.0-0.0-1.3","null","<span style='color:GreenYellow; font-size: 70px;'>正确! </span>","null","","","","","","","","","","","","","","","","","","","","","","","feedback_test"
"","","","","","psychophysics","117","535544","0.0-11.0-0.0-0.4","717","","j","","","","","","","","","","","","","key","j","16.665999999999983","799.7222434076268","495.83334646843133","j","true","img/C_ambi40.png","坏人","prac_simultaneous",""
"","","","","","html-keyboard-response","118","535854","0.0-11.0-0.0-1.4","null","<span style='color:GreenYellow; font-size: 70px;'>正确! </span>","null","","","","","","","","","","","","","","","","","","","","","","","feedback_test"
"","","","","","psychophysics","119","537735","0.0-11.0-0.0-0.5","875","","f","","","","","","","","","","","","","key","f","16.666000000000558","799.7222434076268","495.83334646843133","j","false","img/S_ambi40.png","常人","prac_simultaneous",""
"","","","","","html-keyboard-response","120","538045","0.0-11.0-0.0-1.5","null","<span style='color:red; font-size: 70px;'>错误! </span>","null","","","","","","","","","","","","","","","","","","","","","","","feedback_test"
"","","","","","psychophysics","121","539852","0.0-11.0-0.0-0.6","800","","f","","","","","","","","","","","","","key","f","16.665999999999887","799.7222434076268","495.83334646843133","f","true","img/C_ambi40.png","常人","prac_simultaneous",""
"","","","","","html-keyboard-response","122","540156","0.0-11.0-0.0-1.6","null","<span style='color:GreenYellow; font-size: 70px;'>正确! </span>","null","","","","","","","","","","","","","","","","","","","","","","","feedback_test"
"","","","","","psychophysics","123","542002","0.0-11.0-0.0-0.7","842","","j","","","","","","","","","","","","","key","j","16.666000000000086","799.7222434076268","495.83334646843133","j","true","img/S_ambi40.png","坏人","prac_simultaneous",""
"","","","","","html-keyboard-response","124","542309","0.0-11.0-0.0-1.7","null","<span style='color:GreenYellow; font-size: 70px;'>正确! </span>","null","","","","","","","","","","","","","","","","","","","","","","","feedback_test"
"","","","","","psychophysics","125","544192","0.0-11.0-0.0-0.8","881","","j","","","","","","","","","","","","","key","j","16.665999999999798","799.7222434076268","495.83334646843133","j","true","img/T_ambi40.png","常人","prac_simultaneous",""
"","","","","","html-keyboard-response","126","544502","0.0-11.0-0.0-1.8","null","<span style='color:GreenYellow; font-size: 70px;'>正确! </span>","null","","","","","","","","","","","","","","","","","","","","","","","feedback_test"
"","","","","","psychophysics","127","546552","0.0-11.0-0.0-0.9","1049","","f","","","","","","","","","","","","","key","f","16.609647540984387","799.7222434076268","495.83334646843133","f","true","img/C_ambi40.png","常人","prac_simultaneous",""
"","","","","","html-keyboard-response","128","546861","0.0-11.0-0.0-1.9","null","<span style='color:GreenYellow; font-size: 70px;'>正确! </span>","null","","","","","","","","","","","","","","","","","","","","","","","feedback_test"
"","","","","","psychophysics","129","548711","0.0-11.0-0.0-0.10","843","","j","","","","","","","","","","","","","key","j","16.666000000000086","799.7222434076268","495.83334646843133","j","true","img/C_ambi40.png","好人","prac_simultaneous",""
"","","","","","html-keyboard-response","130","549022","0.0-11.0-0.0-1.10","null","<span style='color:GreenYellow; font-size: 70px;'>正确! </span>","null","","","","","","","","","","","","","","","","","","","","","","","feedback_test"
"","","","","","psychophysics","131","550960","0.0-11.0-0.0-0.11","930","","f","","","","","","","","","","","","","key","f","16.66600000000073","799.7222434076268","495.83334646843133","f","true","img/T_ambi40.png","坏人","prac_simultaneous",""
"","","","","","html-keyboard-response","132","551272","0.0-11.0-0.0-1.11","null","<span style='color:GreenYellow; font-size: 70px;'>正确! </span>","null","","","","","","","","","","","","","","","","","","","","","","","feedback_test"
"","","","","","psychophysics","133","553728","0.0-11.0-0.0-0.12","1451","","j","","","","","","","","","","","","","key","j","16.66600000000023","799.7222434076268","495.83334646843133","j","true","img/T_ambi40.png","常人","prac_simultaneous",""
"","","","","","html-keyboard-response","134","554038","0.0-11.0-0.0-1.12","null","<span style='color:GreenYellow; font-size: 70px;'>正确! </span>","null","","","","","","","","","","","","","","","","","","","","","","","feedback_test"
"","","","","","psychophysics","135","555943","0.0-11.0-0.0-0.13","904","","j","","","","","","","","","","","","","key","j","16.66600000000027","799.7222434076268","495.83334646843133","j","true","img/S_ambi40.png","常人","prac_simultaneous",""
"","","","","","html-keyboard-response","136","556254","0.0-11.0-0.0-1.13","null","<span style='color:GreenYellow; font-size: 70px;'>正确! </span>","null","","","","","","","","","","","","","","","","","","","","","","","feedback_test"
"","","","","","psychophysics","137","558119","0.0-11.0-0.0-0.14","858","","f","","","","","","","","","","","","","key","f","16.666000000000846","799.7222434076268","495.83334646843133","f","true","img/T_ambi40.png","坏人","prac_simultaneous",""
"","","","","","html-keyboard-response","138","558428","0.0-11.0-0.0-1.14","null","<span style='color:GreenYellow; font-size: 70px;'>正确! </span>","null","","","","","","","","","","","","","","","","","","","","","","","feedback_test"
"","","","","","psychophysics","139","560244","0.0-11.0-0.0-0.15","808","","j","","","","","","","","","","","","","key","j","16.665999999999595","799.7222434076268","495.83334646843133","j","true","img/S_ambi40.png","坏人","prac_simultaneous",""
"","","","","","html-keyboard-response","140","560552","0.0-11.0-0.0-1.15","null","<span style='color:GreenYellow; font-size: 70px;'>正确! </span>","null","","","","","","","","","","","","","","","","","","","","","","","feedback_test"
"","","","","","psychophysics","141","562354","0.0-11.0-0.0-0.16","800","","f","","","","","","","","","","","","","key","f","16.665999999999887","799.7222434076268","495.83334646843133","f","true","img/C_ambi40.png","常人","prac_simultaneous",""
"","","","","","html-keyboard-response","142","562661","0.0-11.0-0.0-1.16","null","<span style='color:GreenYellow; font-size: 70px;'>正确! </span>","null","","","","","","","","","","","","","","","","","","","","","","","feedback_test"
"","","","","","psychophysics","143","564595","0.0-11.0-0.0-0.17","927","","f","","","","","","","","","","","","","key","f","16.665999999999716","799.7222434076268","495.83334646843133","f","true","img/C_ambi40.png","常人","prac_simultaneous",""
"","","","","","html-keyboard-response","144","564902","0.0-11.0-0.0-1.17","null","<span style='color:GreenYellow; font-size: 70px;'>正确! </span>","null","","","","","","","","","","","","","","","","","","","","","","","feedback_test"
"","","","","","psychophysics","145","566706","0.0-11.0-0.0-0.18","798","","f","","","","","","","","","","","","","key","f","16.626065420560217","799.7222434076268","495.83334646843133","f","true","img/T_ambi40.png","坏人","prac_simultaneous",""
"","","","","","html-keyboard-response","146","567016","0.0-11.0-0.0-1.18","null","<span style='color:GreenYellow; font-size: 70px;'>正确! </span>","null","","","","","","","","","","","","","","","","","","","","","","","feedback_test"
"","","","","","psychophysics","147","568964","0.0-11.0-0.0-0.19","940","","f","","","","","","","","","","","","","key","f","16.665999999999446","799.7222434076268","495.83334646843133","f","true","img/S_ambi40.png","好人","prac_simultaneous",""
"","","","","","html-keyboard-response","148","569272","0.0-11.0-0.0-1.19","null","<span style='color:GreenYellow; font-size: 70px;'>正确! </span>","null","","","","","","","","","","","","","","","","","","","","","","","feedback_test"
"","","","","","psychophysics","149","570968","0.0-11.0-0.0-0.20","690","","j","","","","","","","","","","","","","key","j","16.666000000000608","799.7222434076268","495.83334646843133","j","true","img/T_ambi40.png","好人","prac_simultaneous",""
"","","","","","html-keyboard-response","150","571278","0.0-11.0-0.0-1.20","null","<span style='color:GreenYellow; font-size: 70px;'>正确! </span>","null","","","","","","","","","","","","","","","","","","","","","","","feedback_test"
"","","","","","psychophysics","151","573234","0.0-11.0-0.0-0.21","953","","j","","","","","","","","","","","","","key","j","16.666000000000174","799.7222434076268","495.83334646843133","j","true","img/C_ambi40.png","好人","prac_simultaneous",""
"","","","","","html-keyboard-response","152","573543","0.0-11.0-0.0-1.21","null","<span style='color:GreenYellow; font-size: 70px;'>正确! </span>","null","","","","","","","","","","","","","","","","","","","","","","","feedback_test"
"","","","","","psychophysics","153","575766","0.0-11.0-0.0-0.22","1219","","f","","","","","","","","","","","","","key","f","16.665999999999848","799.7222434076268","495.83334646843133","f","true","img/S_ambi40.png","好人","prac_simultaneous",""
"","","","","","html-keyboard-response","154","576069","0.0-11.0-0.0-1.22","null","<span style='color:GreenYellow; font-size: 70px;'>正确! </span>","null","","","","","","","","","","","","","","","","","","","","","","","feedback_test"
"","","","","","psychophysics","155","578459","0.0-11.0-0.0-0.23","1380","","j","","","","","","","","","","","","","key","j","16.66600000000031","799.7222434076268","495.83334646843133","j","true","img/C_ambi40.png","坏人","prac_simultaneous",""
"","","","","","html-keyboard-response","156","578767","0.0-11.0-0.0-1.23","null","<span style='color:GreenYellow; font-size: 70px;'>正确! </span>","null","","","","","","","","","","","","","","","","","","","","","","","feedback_test"
"","","","","","html-keyboard-response","157","609518","0.0-12.0","30749","<style>.context{color:white; font-size: 35px; line-height:40px}</style>                              <div><p class='context'>您正确回答了96% 的试次。</p><p class='context'>您的平均反应时为933毫秒。</p><p class='context'>恭喜您完成练习。按任意键进入正式实验。</p><p class='footer' style='font-size: 35px; line-height:40px;'>请在进入正式实验实验之前将您的<span style='color: lightgreen;'>食指</span>放在电脑键盘的相应键位上进行按键。</p>"," ","","","","","","","","","","","","","","","","","","","","","","",""
"","","","","","html-keyboard-response","158","629902","0.0-13.0-2.0-0.0","20380","
      <p>请您将手指放在按键上，准备进入呈现顺序为<span style='color: yellow;'>图形和文字同时呈现条件</span>的正式匹配任务</p>
      <p> <div style = ""color: green""><按任意键进入下一阶段的匹配任务></div></p>
      "," ","","","","","","","","","","","","","","","","","","","","","","",""
"","","","","","psychophysics","159","632410","0.0-13.0-2.0-1.0-0.0-0.0","null","","null","","","","","","","","","","","","","key","null","16.690476510066684","799.7222434076268","495.83334646843133","f","false","img/C_ambi40.png","常人","simultaneous",""
"","","","","","html-keyboard-response","160","632721","0.0-13.0-2.0-1.0-0.0-1.0","null","<span class='add_' style='color:yellow; font-size: 70px;'> 太慢! </span>","null","","","","","","","","","","","","","","","","","","","","","","","feedback_test"
"","","","","","psychophysics","161","634471","0.0-13.0-2.0-1.0-0.0-0.1","744","","j","","","","","","","","","","","","","key","j","16.665999999999677","799.7222434076268","495.83334646843133","j","true","img/T_ambi40.png","好人","simultaneous",""
"","","","","","html-keyboard-response","162","634776","0.0-13.0-2.0-1.0-0.0-1.1","null","<span style='color:GreenYellow; font-size: 70px;'>正确! </span>","null","","","","","","","","","","","","","","","","","","","","","","","feedback_test"
"","","","","","psychophysics","163","636555","0.0-13.0-2.0-1.0-0.0-0.2","777","","j","","","","","","","","","","","","","key","j","16.666000000000487","799.7222434076268","495.83334646843133","j","true","img/C_ambi40.png","坏人","simultaneous",""
"","","","","","html-keyboard-response","164","636861","0.0-13.0-2.0-1.0-0.0-1.2","null","<span style='color:GreenYellow; font-size: 70px;'>正确! </span>","null","","","","","","","","","","","","","","","","","","","","","","","feedback_test"
"","","","","","psychophysics","165","638483","0.0-13.0-2.0-1.0-0.0-0.3","619","","f","","","","","","","","","","","","","key","f","16.666000000001077","799.7222434076268","495.83334646843133","f","true","img/T_ambi40.png","坏人","simultaneous",""
"","","","","","html-keyboard-response","166","638793","0.0-13.0-2.0-1.0-0.0-1.3","null","<span style='color:GreenYellow; font-size: 70px;'>正确! </span>","null","","","","","","","","","","","","","","","","","","","","","","","feedback_test"
"","","","","","psychophysics","167","640633","0.0-13.0-2.0-1.0-0.0-0.4","838","","j","","","","","","","","","","","","","key","j","16.666000000000377","799.7222434076268","495.83334646843133","f","false","img/S_ambi40.png","好人","simultaneous",""
"","","","","","html-keyboard-response","168","640942","0.0-13.0-2.0-1.0-0.0-1.4","null","<span style='color:red; font-size: 70px;'>错误! </span>","null","","","","","","","","","","","","","","","","","","","","","","","feedback_test"
"","","","","","psychophysics","169","642844","0.0-13.0-2.0-1.0-0.0-0.5","886","","j","","","","","","","","","","","","","key","j","16.66600000000027","799.7222434076268","495.83334646843133","j","true","img/T_ambi40.png","常人","simultaneous",""
"","","","","","html-keyboard-response","170","643148","0.0-13.0-2.0-1.0-0.0-1.5","null","<span style='color:GreenYellow; font-size: 70px;'>正确! </span>","null","","","","","","","","","","","","","","","","","","","","","","","feedback_test"
"","","","","","psychophysics","171","644801","0.0-13.0-2.0-1.0-0.0-0.6","642","","f","","","","","","","","","","","","","key","f","16.66600000000041","799.7222434076268","495.83334646843133","f","true","img/S_ambi40.png","好人","simultaneous",""
"","","","","","html-keyboard-response","172","645109","0.0-13.0-2.0-1.0-0.0-1.6","null","<span style='color:GreenYellow; font-size: 70px;'>正确! </span>","null","","","","","","","","","","","","","","","","","","","","","","","feedback_test"
"","","","","","psychophysics","173","646906","0.0-13.0-2.0-1.0-0.0-0.7","795","","j","","","","","","","","","","","","","key","j","16.666000000000185","799.7222434076268","495.83334646843133","j","true","img/S_ambi40.png","坏人","simultaneous",""
"","","","","","html-keyboard-response","174","647212","0.0-13.0-2.0-1.0-0.0-1.7","null","<span style='color:GreenYellow; font-size: 70px;'>正确! </span>","null","","","","","","","","","","","","","","","","","","","","","","","feedback_test"
"","","","","","psychophysics","175","649029","0.0-13.0-2.0-1.0-0.0-0.8","809","","j","","","","","","","","","","","","","key","j","16.666000000000672","799.7222434076268","495.83334646843133","f","false","img/C_ambi40.png","常人","simultaneous",""
"","","","","","html-keyboard-response","176","649336","0.0-13.0-2.0-1.0-0.0-1.8","null","<span style='color:red; font-size: 70px;'>错误! </span>","null","","","","","","","","","","","","","","","","","","","","","","","feedback_test"
"","","","","","psychophysics","177","651468","0.0-13.0-2.0-1.0-0.0-0.9","1126","","j","","","","","","","","","","","","","key","j","16.649086614173296","799.7222434076268","495.83334646843133","j","true","img/C_ambi40.png","好人","simultaneous",""
"","","","","","html-keyboard-response","178","651773","0.0-13.0-2.0-1.0-0.0-1.9","null","<span style='color:GreenYellow; font-size: 70px;'>正确! </span>","null","","","","","","","","","","","","","","","","","","","","","","","feedback_test"
"","","","","","psychophysics","179","653511","0.0-13.0-2.0-1.0-0.0-0.10","736","","f","","","","","","","","","","","","","key","f","16.665999999999983","799.7222434076268","495.83334646843133","f","true","img/T_ambi40.png","坏人","simultaneous",""
"","","","","","html-keyboard-response","180","653812","0.0-13.0-2.0-1.0-0.0-1.10","null","<span style='color:GreenYellow; font-size: 70px;'>正确! </span>","null","","","","","","","","","","","","","","","","","","","","","","","feedback_test"
"","","","","","psychophysics","181","656114","0.0-13.0-2.0-1.0-0.0-0.11","1292","","j","","","","","","","","","","","","","key","j","16.666000000000626","799.7222434076268","495.83334646843133","j","true","img/S_ambi40.png","常人","simultaneous",""
"","","","","","html-keyboard-response","182","656422","0.0-13.0-2.0-1.0-0.0-1.11","null","<span style='color:GreenYellow; font-size: 70px;'>正确! </span>","null","","","","","","","","","","","","","","","","","","","","","","","feedback_test"
"","","","","","psychophysics","183","658481","0.0-13.0-2.0-1.0-0.0-0.12","1055","","f","","","","","","","","","","","","","key","f","16.665999999999823","799.7222434076268","495.83334646843133","f","true","img/C_ambi40.png","常人","simultaneous",""
"","","","","","html-keyboard-response","184","658782","0.0-13.0-2.0-1.0-0.0-1.12","null","<span style='color:GreenYellow; font-size: 70px;'>正确! </span>","null","","","","","","","","","","","","","","","","","","","","","","","feedback_test"
"","","","","","psychophysics","185","660549","0.0-13.0-2.0-1.0-0.0-0.13","760","","f","","","","","","","","","","","","","key","f","16.666000000000487","799.7222434076268","495.83334646843133","f","true","img/C_ambi40.png","常人","simultaneous",""
"","","","","","html-keyboard-response","186","660853","0.0-13.0-2.0-1.0-0.0-1.13","null","<span style='color:GreenYellow; font-size: 70px;'>正确! </span>","null","","","","","","","","","","","","","","","","","","","","","","","feedback_test"
"","","","","","psychophysics","187","662583","0.0-13.0-2.0-1.0-0.0-0.14","726","","j","","","","","","","","","","","","","key","j","16.665999999999983","799.7222434076268","495.83334646843133","j","true","img/C_ambi40.png","坏人","simultaneous",""
"","","","","","html-keyboard-response","188","662887","0.0-13.0-2.0-1.0-0.0-1.14","null","<span style='color:GreenYellow; font-size: 70px;'>正确! </span>","null","","","","","","","","","","","","","","","","","","","","","","","feedback_test"
"","","","","","psychophysics","189","665262","0.0-13.0-2.0-1.0-0.0-0.15","1370","","j","","","","","","","","","","","","","key","j","16.66600000000031","799.7222434076268","495.83334646843133","j","true","img/T_ambi40.png","好人","simultaneous",""
"","","","","","html-keyboard-response","190","665566","0.0-13.0-2.0-1.0-0.0-1.15","null","<span style='color:GreenYellow; font-size: 70px;'>正确! </span>","null","","","","","","","","","","","","","","","","","","","","","","","feedback_test"
"","","","","","psychophysics","191","667495","0.0-13.0-2.0-1.0-0.0-0.16","922","","f","","","","","","","","","","","","","key","f","16.665999999999716","799.7222434076268","495.83334646843133","f","true","img/T_ambi40.png","坏人","simultaneous",""
"","","","","","html-keyboard-response","192","667798","0.0-13.0-2.0-1.0-0.0-1.16","null","<span style='color:GreenYellow; font-size: 70px;'>正确! </span>","null","","","","","","","","","","","","","","","","","","","","","","","feedback_test"
"","","","","","psychophysics","193","669631","0.0-13.0-2.0-1.0-0.0-0.17","824","","f","","","","","","","","","","","","","key","f","16.665999999999308","799.7222434076268","495.83334646843133","j","false","img/C_ambi40.png","好人","simultaneous",""
"","","","","","html-keyboard-response","194","669937","0.0-13.0-2.0-1.0-0.0-1.17","null","<span style='color:red; font-size: 70px;'>错误! </span>","null","","","","","","","","","","","","","","","","","","","","","","","feedback_test"
"","","","","","psychophysics","195","671656","0.0-13.0-2.0-1.0-0.0-0.18","714","","f","","","","","","","","","","","","","key","f","16.67867647058915","799.7222434076268","495.83334646843133","f","true","img/S_ambi40.png","好人","simultaneous",""
"","","","","","html-keyboard-response","196","671966","0.0-13.0-2.0-1.0-0.0-1.18","null","<span style='color:GreenYellow; font-size: 70px;'>正确! </span>","null","","","","","","","","","","","","","","","","","","","","","","","feedback_test"
"","","","","","psychophysics","197","673984","0.0-13.0-2.0-1.0-0.0-0.19","1008","","f","","","","","","","","","","","","","key","f","16.66600000000035","799.7222434076268","495.83334646843133","f","true","img/T_ambi40.png","坏人","simultaneous",""
"","","","","","html-keyboard-response","198","674296","0.0-13.0-2.0-1.0-0.0-1.19","null","<span style='color:GreenYellow; font-size: 70px;'>正确! </span>","null","","","","","","","","","","","","","","","","","","","","","","","feedback_test"
"","","","","","psychophysics","199","675958","0.0-13.0-2.0-1.0-0.0-0.20","655","","j","","","","","","","","","","","","","key","j","16.666000000000086","799.7222434076268","495.83334646843133","j","true","img/T_ambi40.png","常人","simultaneous",""
"","","","","","html-keyboard-response","200","676261","0.0-13.0-2.0-1.0-0.0-1.20","null","<span style='color:GreenYellow; font-size: 70px;'>正确! </span>","null","","","","","","","","","","","","","","","","","","","","","","","feedback_test"
"","","","","","psychophysics","201","678134","0.0-13.0-2.0-1.0-0.0-0.21","862","","f","","","","","","","","","","","","","key","f","16.665999999999798","799.7222434076268","495.83334646843133","j","false","img/S_ambi40.png","常人","simultaneous",""
"","","","","","html-keyboard-response","202","678437","0.0-13.0-2.0-1.0-0.0-1.21","null","<span style='color:red; font-size: 70px;'>错误! </span>","null","","","","","","","","","","","","","","","","","","","","","","","feedback_test"
"","","","","","psychophysics","203","680272","0.0-13.0-2.0-1.0-0.0-0.22","829","","f","","","","","","","","","","","","","key","f","16.665999999999308","799.7222434076268","495.83334646843133","f","true","img/S_ambi40.png","好人","simultaneous",""
"","","","","","html-keyboard-response","204","680575","0.0-13.0-2.0-1.0-0.0-1.22","null","<span style='color:GreenYellow; font-size: 70px;'>正确! </span>","null","","","","","","","","","","","","","","","","","","","","","","","feedback_test"
"","","","","","psychophysics","205","682538","0.0-13.0-2.0-1.0-0.0-0.23","962","","j","","","","","","","","","","","","","key","j","16.665999999999446","799.7222434076268","495.83334646843133","j","true","img/S_ambi40.png","坏人","simultaneous",""
"","","","","","html-keyboard-response","206","682846","0.0-13.0-2.0-1.0-0.0-1.23","null","<span style='color:GreenYellow; font-size: 70px;'>正确! </span>","null","","","","","","","","","","","","","","","","","","","","","","","feedback_test"
"","","","","","psychophysics","207","685043","0.0-13.0-2.0-1.0-0.0-0.24","1189","","f","","","","","","","","","","","","","key","f","16.66599999999944","799.7222434076268","495.83334646843133","f","true","img/T_ambi40.png","坏人","simultaneous",""
"","","","","","html-keyboard-response","208","685353","0.0-13.0-2.0-1.0-0.0-1.24","null","<span style='color:GreenYellow; font-size: 70px;'>正确! </span>","null","","","","","","","","","","","","","","","","","","","","","","","feedback_test"
"","","","","","psychophysics","209","687173","0.0-13.0-2.0-1.0-0.0-0.25","815","","j","","","","","","","","","","","","","key","j","16.665999999999595","799.7222434076268","495.83334646843133","j","true","img/S_ambi40.png","坏人","simultaneous",""
"","","","","","html-keyboard-response","210","687480","0.0-13.0-2.0-1.0-0.0-1.25","null","<span style='color:GreenYellow; font-size: 70px;'>正确! </span>","null","","","","","","","","","","","","","","","","","","","","","","","feedback_test"
"","","","","","psychophysics","211","689397","0.0-13.0-2.0-1.0-0.0-0.26","909","","f","","","","","","","","","","","","","key","f","16.665999999999993","799.7222434076268","495.83334646843133","f","true","img/C_ambi40.png","常人","simultaneous",""
"","","","","","html-keyboard-response","212","689703","0.0-13.0-2.0-1.0-0.0-1.26","null","<span style='color:GreenYellow; font-size: 70px;'>正确! </span>","null","","","","","","","","","","","","","","","","","","","","","","","feedback_test"
"","","","","","psychophysics","213","692210","0.0-13.0-2.0-1.0-0.0-0.27","null","","null","","","","","","","","","","","","","key","null","16.660346666666058","799.7222434076268","495.83334646843133","j","false","img/C_ambi40.png","坏人","simultaneous",""
"","","","","","html-keyboard-response","214","692517","0.0-13.0-2.0-1.0-0.0-1.27","null","<span class='add_' style='color:yellow; font-size: 70px;'> 太慢! </span>","null","","","","","","","","","","","","","","","","","","","","","","","feedback_test"
"","","","","","psychophysics","215","694278","0.0-13.0-2.0-1.0-0.0-0.28","754","","f","","","","","","","","","","","","","key","f","16.666000000000487","799.7222434076268","495.83334646843133","j","false","img/T_ambi40.png","常人","simultaneous",""
"","","","","","html-keyboard-response","216","694584","0.0-13.0-2.0-1.0-0.0-1.28","null","<span style='color:red; font-size: 70px;'>错误! </span>","null","","","","","","","","","","","","","","","","","","","","","","","feedback_test"
"","","","","","psychophysics","217","696781","0.0-13.0-2.0-1.0-0.0-0.29","1190","","f","","","","","","","","","","","","","key","f","16.666000000000327","799.7222434076268","495.83334646843133","f","true","img/C_ambi40.png","常人","simultaneous",""
"","","","","","html-keyboard-response","218","697088","0.0-13.0-2.0-1.0-0.0-1.29","null","<span style='color:GreenYellow; font-size: 70px;'>正确! </span>","null","","","","","","","","","","","","","","","","","","","","","","","feedback_test"
"","","","","","psychophysics","219","698947","0.0-13.0-2.0-1.0-0.0-0.30","857","","j","","","","","","","","","","","","","key","j","16.666000000000086","799.7222434076268","495.83334646843133","j","true","img/S_ambi40.png","常人","simultaneous",""
"","","","","","html-keyboard-response","220","699253","0.0-13.0-2.0-1.0-0.0-1.30","null","<span style='color:GreenYellow; font-size: 70px;'>正确! </span>","null","","","","","","","","","","","","","","","","","","","","","","","feedback_test"
"","","","","","psychophysics","221","701518","0.0-13.0-2.0-1.0-0.0-0.31","1262","","f","","","","","","","","","","","","","key","f","16.666000000000242","799.7222434076268","495.83334646843133","f","true","img/S_ambi40.png","好人","simultaneous",""
"","","","","","html-keyboard-response","222","701823","0.0-13.0-2.0-1.0-0.0-1.31","null","<span style='color:GreenYellow; font-size: 70px;'>正确! </span>","null","","","","","","","","","","","","","","","","","","","","","","","feedback_test"
"","","","","","psychophysics","223","703762","0.0-13.0-2.0-1.0-0.0-0.32","937","","j","","","","","","","","","","","","","key","j","16.665999999999716","799.7222434076268","495.83334646843133","j","true","img/C_ambi40.png","好人","simultaneous",""
"","","","","","html-keyboard-response","224","704069","0.0-13.0-2.0-1.0-0.0-1.32","null","<span style='color:GreenYellow; font-size: 70px;'>正确! </span>","null","","","","","","","","","","","","","","","","","","","","","","","feedback_test"
"","","","","","psychophysics","225","705948","0.0-13.0-2.0-1.0-0.0-0.33","874","","j","","","","","","","","","","","","","key","j","16.665999999999517","799.7222434076268","495.83334646843133","f","false","img/S_ambi40.png","好人","simultaneous",""
"","","","","","html-keyboard-response","226","706255","0.0-13.0-2.0-1.0-0.0-1.33","null","<span style='color:red; font-size: 70px;'>错误! </span>","null","","","","","","","","","","","","","","","","","","","","","","","feedback_test"
"","","","","","psychophysics","227","708302","0.0-13.0-2.0-1.0-0.0-0.34","1045","","j","","","","","","","","","","","","","key","j","16.666000000000086","799.7222434076268","495.83334646843133","f","false","img/T_ambi40.png","坏人","simultaneous",""
"","","","","","html-keyboard-response","228","708606","0.0-13.0-2.0-1.0-0.0-1.34","null","<span style='color:red; font-size: 70px;'>错误! </span>","null","","","","","","","","","","","","","","","","","","","","","","","feedback_test"
"","","","","","psychophysics","229","710742","0.0-13.0-2.0-1.0-0.0-0.35","1134","","j","","","","","","","","","","","","","key","j","16.638905511811508","799.7222434076268","495.83334646843133","j","true","img/T_ambi40.png","好人","simultaneous",""
"","","","","","html-keyboard-response","230","711046","0.0-13.0-2.0-1.0-0.0-1.35","null","<span style='color:GreenYellow; font-size: 70px;'>正确! </span>","null","","","","","","","","","","","","","","","","","","","","","","","feedback_test"
"","","","","","psychophysics","231","712899","0.0-13.0-2.0-1.0-0.0-0.36","846","","j","","","","","","","","","","","","","key","j","16.666000000000086","799.7222434076268","495.83334646843133","j","true","img/S_ambi40.png","坏人","simultaneous",""
"","","","","","html-keyboard-response","232","713208","0.0-13.0-2.0-1.0-0.0-1.36","null","<span style='color:GreenYellow; font-size: 70px;'>正确! </span>","null","","","","","","","","","","","","","","","","","","","","","","","feedback_test"
"","","","","","psychophysics","233","715021","0.0-13.0-2.0-1.0-0.0-0.37","804","","f","","","","","","","","","","","","","key","f","16.666000000000672","799.7222434076268","495.83334646843133","j","false","img/T_ambi40.png","好人","simultaneous",""
"","","","","","html-keyboard-response","234","715326","0.0-13.0-2.0-1.0-0.0-1.37","null","<span style='color:red; font-size: 70px;'>错误! </span>","null","","","","","","","","","","","","","","","","","","","","","","","feedback_test"
"","","","","","psychophysics","235","717200","0.0-13.0-2.0-1.0-0.0-0.38","865","","f","","","","","","","","","","","","","key","f","16.665999999999798","799.7222434076268","495.83334646843133","f","true","img/T_ambi40.png","坏人","simultaneous",""
"","","","","","html-keyboard-response","236","717501","0.0-13.0-2.0-1.0-0.0-1.38","null","<span style='color:GreenYellow; font-size: 70px;'>正确! </span>","null","","","","","","","","","","","","","","","","","","","","","","","feedback_test"
"","","","","","psychophysics","237","719792","0.0-13.0-2.0-1.0-0.0-0.39","1288","","f","","","","","","","","","","","","","key","f","16.666000000000007","799.7222434076268","495.83334646843133","f","true","img/S_ambi40.png","好人","simultaneous",""
"","","","","","html-keyboard-response","238","720097","0.0-13.0-2.0-1.0-0.0-1.39","null","<span style='color:GreenYellow; font-size: 70px;'>正确! </span>","null","","","","","","","","","","","","","","","","","","","","","","","feedback_test"
"","","","","","psychophysics","239","721855","0.0-13.0-2.0-1.0-0.0-0.40","750","","j","","","","","","","","","","","","","key","j","16.595704761904752","799.7222434076268","495.83334646843133","j","true","img/C_ambi40.png","坏人","simultaneous",""
"","","","","","html-keyboard-response","240","722159","0.0-13.0-2.0-1.0-0.0-1.40","null","<span style='color:GreenYellow; font-size: 70px;'>正确! </span>","null","","","","","","","","","","","","","","","","","","","","","","","feedback_test"
"","","","","","psychophysics","241","723995","0.0-13.0-2.0-1.0-0.0-0.41","833","","f","","","","","","","","","","","","","key","f","16.666000000000086","799.7222434076268","495.83334646843133","j","false","img/S_ambi40.png","常人","simultaneous",""
"","","","","","html-keyboard-response","242","724303","0.0-13.0-2.0-1.0-0.0-1.41","null","<span style='color:red; font-size: 70px;'>错误! </span>","null","","","","","","","","","","","","","","","","","","","","","","","feedback_test"
"","","","","","psychophysics","243","726238","0.0-13.0-2.0-1.0-0.0-0.42","928","","f","","","","","","","","","","","","","key","f","16.665999999999716","799.7222434076268","495.83334646843133","f","true","img/C_ambi40.png","常人","simultaneous",""
"","","","","","html-keyboard-response","244","726544","0.0-13.0-2.0-1.0-0.0-1.42","null","<span style='color:GreenYellow; font-size: 70px;'>正确! </span>","null","","","","","","","","","","","","","","","","","","","","","","","feedback_test"
"","","","","","psychophysics","245","728664","0.0-13.0-2.0-1.0-0.0-0.43","1119","","j","","","","","","","","","","","","","key","j","16.665999999999748","799.7222434076268","495.83334646843133","f","false","img/T_ambi40.png","坏人","simultaneous",""
"","","","","","html-keyboard-response","246","728976","0.0-13.0-2.0-1.0-0.0-1.43","null","<span style='color:red; font-size: 70px;'>错误! </span>","null","","","","","","","","","","","","","","","","","","","","","","","feedback_test"
"","","","","","psychophysics","247","731044","0.0-13.0-2.0-1.0-0.0-0.44","1066","","j","","","","","","","","","","","","","key","j","16.666000000000516","799.7222434076268","495.83334646843133","f","false","img/S_ambi40.png","好人","simultaneous",""
"","","","","","html-keyboard-response","248","731349","0.0-13.0-2.0-1.0-0.0-1.44","null","<span style='color:red; font-size: 70px;'>错误! </span>","null","","","","","","","","","","","","","","","","","","","","","","","feedback_test"
"","","","","","psychophysics","249","733620","0.0-13.0-2.0-1.0-0.0-0.45","1259","","j","","","","","","","","","","","","","key","j","16.666000000000242","799.7222434076268","495.83334646843133","j","true","img/T_ambi40.png","常人","simultaneous",""
"","","","","","html-keyboard-response","250","733926","0.0-13.0-2.0-1.0-0.0-1.45","null","<span style='color:GreenYellow; font-size: 70px;'>正确! </span>","null","","","","","","","","","","","","","","","","","","","","","","","feedback_test"
"","","","","","psychophysics","251","736169","0.0-13.0-2.0-1.0-0.0-0.46","1241","","f","","","","","","","","","","","","","key","f","16.665999999999848","799.7222434076268","495.83334646843133","f","true","img/C_ambi40.png","常人","simultaneous",""
"","","","","","html-keyboard-response","252","736480","0.0-13.0-2.0-1.0-0.0-1.46","null","<span style='color:GreenYellow; font-size: 70px;'>正确! </span>","null","","","","","","","","","","","","","","","","","","","","","","","feedback_test"
"","","","","","psychophysics","253","738545","0.0-13.0-2.0-1.0-0.0-0.47","1055","","j","","","","","","","","","","","","","key","j","16.665999999999567","799.7222434076268","495.83334646843133","j","true","img/C_ambi40.png","好人","simultaneous",""
"","","","","","html-keyboard-response","254","738854","0.0-13.0-2.0-1.0-0.0-1.47","null","<span style='color:GreenYellow; font-size: 70px;'>正确! </span>","null","","","","","","","","","","","","","","","","","","","","","","","feedback_test"
"","","","","","psychophysics","255","740816","0.0-13.0-2.0-1.0-0.0-0.48","954","","f","","","","","","","","","","","","","key","f","16.683572649572675","799.7222434076268","495.83334646843133","f","true","img/T_ambi40.png","坏人","simultaneous",""
"","","","","","html-keyboard-response","256","741129","0.0-13.0-2.0-1.0-0.0-1.48","null","<span style='color:GreenYellow; font-size: 70px;'>正确! </span>","null","","","","","","","","","","","","","","","","","","","","","","","feedback_test"
"","","","","","psychophysics","257","743634","0.0-13.0-2.0-1.0-0.0-0.49","null","","null","","","","","","","","","","","","","key","null","16.66599999999959","799.7222434076268","495.83334646843133","j","false","img/S_ambi40.png","常人","simultaneous",""
"","","","","","html-keyboard-response","258","743944","0.0-13.0-2.0-1.0-0.0-1.49","null","<span class='add_' style='color:yellow; font-size: 70px;'> 太慢! </span>","null","","","","","","","","","","","","","","","","","","","","","","","feedback_test"
"","","","","","psychophysics","259","745758","0.0-13.0-2.0-1.0-0.0-0.50","811","","j","","","","","","","","","","","","","key","j","16.665999999999887","799.7222434076268","495.83334646843133","j","true","img/S_ambi40.png","坏人","simultaneous",""
"","","","","","html-keyboard-response","260","746062","0.0-13.0-2.0-1.0-0.0-1.50","null","<span style='color:GreenYellow; font-size: 70px;'>正确! </span>","null","","","","","","","","","","","","","","","","","","","","","","","feedback_test"
"","","","","","psychophysics","261","748577","0.0-13.0-2.0-1.0-0.0-0.51","null","","null","","","","","","","","","","","","","key","null","16.66600000000037","799.7222434076268","495.83334646843133","j","false","img/T_ambi40.png","常人","simultaneous",""
"","","","","","html-keyboard-response","262","748885","0.0-13.0-2.0-1.0-0.0-1.51","null","<span class='add_' style='color:yellow; font-size: 70px;'> 太慢! </span>","null","","","","","","","","","","","","","","","","","","","","","","","feedback_test"
"","","","","","psychophysics","263","751160","0.0-13.0-2.0-1.0-0.0-0.52","1266","","f","","","","","","","","","","","","","key","f","16.666000000000242","799.7222434076268","495.83334646843133","j","false","img/C_ambi40.png","好人","simultaneous",""
"","","","","","html-keyboard-response","264","751462","0.0-13.0-2.0-1.0-0.0-1.52","null","<span style='color:red; font-size: 70px;'>错误! </span>","null","","","","","","","","","","","","","","","","","","","","","","","feedback_test"
"","","","","","psychophysics","265","753455","0.0-13.0-2.0-1.0-0.0-0.53","990","","f","","","","","","","","","","","","","key","f","16.665999999999904","799.7222434076268","495.83334646843133","f","true","img/C_ambi40.png","常人","simultaneous",""
"","","","","","html-keyboard-response","266","753758","0.0-13.0-2.0-1.0-0.0-1.53","null","<span style='color:GreenYellow; font-size: 70px;'>正确! </span>","null","","","","","","","","","","","","","","","","","","","","","","","feedback_test"
"","","","","","psychophysics","267","755577","0.0-13.0-2.0-1.0-0.0-0.54","816","","f","","","","","","","","","","","","","key","f","16.665999999999595","799.7222434076268","495.83334646843133","f","true","img/C_ambi40.png","常人","simultaneous",""
"","","","","","html-keyboard-response","268","755888","0.0-13.0-2.0-1.0-0.0-1.54","null","<span style='color:GreenYellow; font-size: 70px;'>正确! </span>","null","","","","","","","","","","","","","","","","","","","","","","","feedback_test"
"","","","","","psychophysics","269","757758","0.0-13.0-2.0-1.0-0.0-0.55","861","","f","","","","","","","","","","","","","key","f","16.666000000000846","799.7222434076268","495.83334646843133","f","true","img/T_ambi40.png","坏人","simultaneous",""
"","","","","","html-keyboard-response","270","758062","0.0-13.0-2.0-1.0-0.0-1.55","null","<span style='color:GreenYellow; font-size: 70px;'>正确! </span>","null","","","","","","","","","","","","","","","","","","","","","","","feedback_test"
"","","","","","psychophysics","271","759753","0.0-13.0-2.0-1.0-0.0-0.56","689","","j","","","","","","","","","","","","","key","j","16.665999999999766","799.7222434076268","495.83334646843133","f","false","img/S_ambi40.png","好人","simultaneous",""
"","","","","","html-keyboard-response","272","760062","0.0-13.0-2.0-1.0-0.0-1.56","null","<span style='color:red; font-size: 70px;'>错误! </span>","null","","","","","","","","","","","","","","","","","","","","","","","feedback_test"
"","","","","","psychophysics","273","762022","0.0-13.0-2.0-1.0-0.0-0.57","958","","j","","","","","","","","","","","","","key","j","16.68878448275841","799.7222434076268","495.83334646843133","j","true","img/T_ambi40.png","好人","simultaneous",""
"","","","","","html-keyboard-response","274","762326","0.0-13.0-2.0-1.0-0.0-1.57","null","<span style='color:GreenYellow; font-size: 70px;'>正确! </span>","null","","","","","","","","","","","","","","","","","","","","","","","feedback_test"
"","","","","","psychophysics","275","764347","0.0-13.0-2.0-1.0-0.0-0.58","1014","","f","","","","","","","","","","","","","key","f","16.66600000000035","799.7222434076268","495.83334646843133","f","true","img/S_ambi40.png","好人","simultaneous",""
"","","","","","html-keyboard-response","276","764654","0.0-13.0-2.0-1.0-0.0-1.58","null","<span style='color:GreenYellow; font-size: 70px;'>正确! </span>","null","","","","","","","","","","","","","","","","","","","","","","","feedback_test"
"","","","","","psychophysics","277","766770","0.0-13.0-2.0-1.0-0.0-0.59","1108","","j","","","","","","","","","","","","","key","j","16.665999999999748","799.7222434076268","495.83334646843133","j","true","img/C_ambi40.png","坏人","simultaneous",""
"","","","","","html-keyboard-response","278","767082","0.0-13.0-2.0-1.0-0.0-1.59","null","<span style='color:GreenYellow; font-size: 70px;'>正确! </span>","null","","","","","","","","","","","","","","","","","","","","","","","feedback_test"
"","","","","","html-keyboard-response","279","776701","0.0-13.0-2.0-1.0-1.0","9616","<style>.context{color:white; font-size: 35px; line-height:40px}</style>                              <div><p class='context'>您正确回答了72% 的试次。</p><p class='context'>您的平均反应时为945毫秒。</p><p class='context'>请按任意键进入休息</p></div>"," ","","","","","","","","","","","","","","","","","","","","","","",""
"","","","","","html-button-response","280","848141","0.0-13.0-2.0-1.0-2.0","71437","
                      <p>您当前还剩余3组实验</p>
                      <p>现在是休息时间，当您结束休息后，您可以点击 结束休息 按钮 继续</p>
                      <p>建议休息时间还剩余<span id=""iii"">60</span>秒</p>","0","","","","","","","","","","","","","","","","","","","","","","",""
"","","","","","psychophysics","281","850071","0.0-13.0-2.0-1.0-0.1-0.60","922","","j","","","","","","","","","","","","","key","j","16.665999999999716","799.7222434076268","495.83334646843133","j","true","img/S_ambi40.png","常人","simultaneous",""
"","","","","","html-keyboard-response","282","850374","0.0-13.0-2.0-1.0-0.1-1.60","null","<span style='color:GreenYellow; font-size: 70px;'>正确! </span>","null","","","","","","","","","","","","","","","","","","","","","","","feedback_test"
"","","","","","psychophysics","283","852143","0.0-13.0-2.0-1.0-0.1-0.61","762","","f","","","","","","","","","","","","","key","f","16.666000000000487","799.7222434076268","495.83334646843133","f","true","img/T_ambi40.png","坏人","simultaneous",""
"","","","","","html-keyboard-response","284","852447","0.0-13.0-2.0-1.0-0.1-1.61","null","<span style='color:GreenYellow; font-size: 70px;'>正确! </span>","null","","","","","","","","","","","","","","","","","","","","","","","feedback_test"
"","","","","","psychophysics","285","854510","0.0-13.0-2.0-1.0-0.1-0.62","1062","","f","","","","","","","","","","","","","key","f","16.66600000000078","799.7222434076268","495.83334646843133","f","true","img/T_ambi40.png","坏人","simultaneous",""
"","","","","","html-keyboard-response","286","854814","0.0-13.0-2.0-1.0-0.1-1.62","null","<span style='color:GreenYellow; font-size: 70px;'>正确! </span>","null","","","","","","","","","","","","","","","","","","","","","","","feedback_test"
"","","","","","psychophysics","287","856707","0.0-13.0-2.0-1.0-0.1-0.63","892","","f","","","","","","","","","","","","","key","f","16.665999999999517","799.7222434076268","495.83334646843133","f","true","img/C_ambi40.png","常人","simultaneous",""
"","","","","","html-keyboard-response","288","857018","0.0-13.0-2.0-1.0-0.1-1.63","null","<span style='color:GreenYellow; font-size: 70px;'>正确! </span>","null","","","","","","","","","","","","","","","","","","","","","","","feedback_test"
"","","","","","psychophysics","289","859037","0.0-13.0-2.0-1.0-0.1-0.64","1014","","j","","","","","","","","","","","","","key","j","16.66600000000035","799.7222434076268","495.83334646843133","j","true","img/C_ambi40.png","好人","simultaneous",""
"","","","","","html-keyboard-response","290","859343","0.0-13.0-2.0-1.0-0.1-1.64","null","<span style='color:GreenYellow; font-size: 70px;'>正确! </span>","null","","","","","","","","","","","","","","","","","","","","","","","feedback_test"
"","","","","","psychophysics","291","861510","0.0-13.0-2.0-1.0-0.1-0.65","1161","","j","","","","","","","","","","","","","key","j","16.665999999999922","799.7222434076268","495.83334646843133","j","true","img/C_ambi40.png","坏人","simultaneous",""
"","","","","","html-keyboard-response","292","861818","0.0-13.0-2.0-1.0-0.1-1.65","null","<span style='color:GreenYellow; font-size: 70px;'>正确! </span>","null","","","","","","","","","","","","","","","","","","","","","","","feedback_test"
"","","","","","psychophysics","293","863571","0.0-13.0-2.0-1.0-0.1-0.66","745","","j","","","","","","","","","","","","","key","j","16.614605769230714","799.7222434076268","495.83334646843133","j","true","img/T_ambi40.png","好人","simultaneous",""
"","","","","","html-keyboard-response","294","863881","0.0-13.0-2.0-1.0-0.1-1.66","null","<span style='color:GreenYellow; font-size: 70px;'>正确! </span>","null","","","","","","","","","","","","","","","","","","","","","","","feedback_test"
"","","","","","psychophysics","295","865726","0.0-13.0-2.0-1.0-0.1-0.67","839","","j","","","","","","","","","","","","","key","j","16.666000000000086","799.7222434076268","495.83334646843133","j","true","img/T_ambi40.png","常人","simultaneous",""
"","","","","","html-keyboard-response","296","866030","0.0-13.0-2.0-1.0-0.1-1.67","null","<span style='color:GreenYellow; font-size: 70px;'>正确! </span>","null","","","","","","","","","","","","","","","","","","","","","","","feedback_test"
"","","","","","psychophysics","297","867802","0.0-13.0-2.0-1.0-0.1-0.68","764","","f","","","","","","","","","","","","","key","f","16.66599999999938","799.7222434076268","495.83334646843133","f","true","img/S_ambi40.png","好人","simultaneous",""
"","","","","","html-keyboard-response","298","868112","0.0-13.0-2.0-1.0-0.1-1.68","null","<span style='color:GreenYellow; font-size: 70px;'>正确! </span>","null","","","","","","","","","","","","","","","","","","","","","","","feedback_test"
"","","","","","psychophysics","299","869932","0.0-13.0-2.0-1.0-0.1-0.69","810","","j","","","","","","","","","","","","","key","j","16.665999999999595","799.7222434076268","495.83334646843133","j","true","img/S_ambi40.png","坏人","simultaneous",""
"","","","","","html-keyboard-response","300","870240","0.0-13.0-2.0-1.0-0.1-1.69","null","<span style='color:GreenYellow; font-size: 70px;'>正确! </span>","null","","","","","","","","","","","","","","","","","","","","","","","feedback_test"
"","","","","","psychophysics","301","872556","0.0-13.0-2.0-1.0-0.1-0.70","1313","","f","","","","","","","","","","","","","key","f","16.665999999999777","799.7222434076268","495.83334646843133","f","true","img/S_ambi40.png","好人","simultaneous",""
"","","","","","html-keyboard-response","302","872863","0.0-13.0-2.0-1.0-0.1-1.70","null","<span style='color:GreenYellow; font-size: 70px;'>正确! </span>","null","","","","","","","","","","","","","","","","","","","","","","","feedback_test"
"","","","","","psychophysics","303","874988","0.0-13.0-2.0-1.0-0.1-0.71","1120","","f","","","","","","","","","","","","","key","f","16.603173228346478","799.7222434076268","495.83334646843133","f","true","img/C_ambi40.png","常人","simultaneous",""
"","","","","","html-keyboard-response","304","875294","0.0-13.0-2.0-1.0-0.1-1.71","null","<span style='color:GreenYellow; font-size: 70px;'>正确! </span>","null","","","","","","","","","","","","","","","","","","","","","","","feedback_test"
"","","","","","psychophysics","305","877169","0.0-13.0-2.0-1.0-0.1-0.72","867","","f","","","","","","","","","","","","","key","f","16.666000000000558","799.7222434076268","495.83334646843133","f","true","img/T_ambi40.png","坏人","simultaneous",""
"","","","","","html-keyboard-response","306","877470","0.0-13.0-2.0-1.0-0.1-1.72","null","<span style='color:GreenYellow; font-size: 70px;'>正确! </span>","null","","","","","","","","","","","","","","","","","","","","","","","feedback_test"
"","","","","","psychophysics","307","879690","0.0-13.0-2.0-1.0-0.1-0.73","1207","","f","","","","","","","","","","","","","key","f","16.666000000000086","799.7222434076268","495.83334646843133","j","false","img/C_ambi40.png","好人","simultaneous",""
"","","","","","html-keyboard-response","308","879998","0.0-13.0-2.0-1.0-0.1-1.73","null","<span style='color:red; font-size: 70px;'>错误! </span>","null","","","","","","","","","","","","","","","","","","","","","","","feedback_test"
"","","","","","psychophysics","309","882243","0.0-13.0-2.0-1.0-0.1-0.74","1242","","j","","","","","","","","","","","","","key","j","16.66600000000072","799.7222434076268","495.83334646843133","j","true","img/S_ambi40.png","坏人","simultaneous",""
"","","","","","html-keyboard-response","310","882550","0.0-13.0-2.0-1.0-0.1-1.74","null","<span style='color:GreenYellow; font-size: 70px;'>正确! </span>","null","","","","","","","","","","","","","","","","","","","","","","","feedback_test"
"","","","","","psychophysics","311","884375","0.0-13.0-2.0-1.0-0.1-0.75","824","","f","","","","","","","","","","","","","key","f","16.665999999999595","799.7222434076268","495.83334646843133","f","true","img/T_ambi40.png","坏人","simultaneous",""
"","","","","","html-keyboard-response","312","884679","0.0-13.0-2.0-1.0-0.1-1.75","null","<span style='color:GreenYellow; font-size: 70px;'>正确! </span>","null","","","","","","","","","","","","","","","","","","","","","","","feedback_test"
"","","","","","psychophysics","313","886807","0.0-13.0-2.0-1.0-0.1-0.76","1124","","f","","","","","","","","","","","","","key","f","16.665999999999503","799.7222434076268","495.83334646843133","j","false","img/S_ambi40.png","常人","simultaneous",""
"","","","","","html-keyboard-response","314","887110","0.0-13.0-2.0-1.0-0.1-1.76","null","<span style='color:red; font-size: 70px;'>错误! </span>","null","","","","","","","","","","","","","","","","","","","","","","","feedback_test"
"","","","","","psychophysics","315","889158","0.0-13.0-2.0-1.0-0.1-0.77","1041","","j","","","","","","","","","","","","","key","j","16.665999999999823","799.7222434076268","495.83334646843133","j","true","img/C_ambi40.png","坏人","simultaneous",""
"","","","","","html-keyboard-response","316","889463","0.0-13.0-2.0-1.0-0.1-1.77","null","<span style='color:GreenYellow; font-size: 70px;'>正确! </span>","null","","","","","","","","","","","","","","","","","","","","","","","feedback_test"
"","","","","","psychophysics","317","891212","0.0-13.0-2.0-1.0-0.1-0.78","745","","f","","","","","","","","","","","","","key","f","16.665999999999677","799.7222434076268","495.83334646843133","j","false","img/T_ambi40.png","好人","simultaneous",""
"","","","","","html-keyboard-response","318","891519","0.0-13.0-2.0-1.0-0.1-1.78","null","<span style='color:red; font-size: 70px;'>错误! </span>","null","","","","","","","","","","","","","","","","","","","","","","","feedback_test"
"","","","","","psychophysics","319","893885","0.0-13.0-2.0-1.0-0.1-0.79","1356","","j","","","","","","","","","","","","","key","j","16.641262411347967","799.7222434076268","495.83334646843133","j","true","img/T_ambi40.png","常人","simultaneous",""
"","","","","","html-keyboard-response","320","894195","0.0-13.0-2.0-1.0-0.1-1.79","null","<span style='color:GreenYellow; font-size: 70px;'>正确! </span>","null","","","","","","","","","","","","","","","","","","","","","","","feedback_test"
"","","","","","psychophysics","321","896711","0.0-13.0-2.0-1.0-0.1-0.80","null","","null","","","","","","","","","","","","","key","null","16.66600000000037","799.7222434076268","495.83334646843133","f","false","img/C_ambi40.png","常人","simultaneous",""
"","","","","","html-keyboard-response","322","897014","0.0-13.0-2.0-1.0-0.1-1.80","null","<span class='add_' style='color:yellow; font-size: 70px;'> 太慢! </span>","null","","","","","","","","","","","","","","","","","","","","","","","feedback_test"
"","","","","","psychophysics","323","898677","0.0-13.0-2.0-1.0-0.1-0.81","652","","f","","","","","","","","","","","","","key","f","16.66600000000041","799.7222434076268","495.83334646843133","f","true","img/C_ambi40.png","常人","simultaneous",""
"","","","","","html-keyboard-response","324","898983","0.0-13.0-2.0-1.0-0.1-1.81","null","<span style='color:GreenYellow; font-size: 70px;'>正确! </span>","null","","","","","","","","","","","","","","","","","","","","","","","feedback_test"
"","","","","","psychophysics","325","900776","0.0-13.0-2.0-1.0-0.1-0.82","779","","f","","","","","","","","","","","","","key","f","16.666000000000185","799.7222434076268","495.83334646843133","f","true","img/S_ambi40.png","好人","simultaneous",""
"","","","","","html-keyboard-response","326","901085","0.0-13.0-2.0-1.0-0.1-1.82","null","<span style='color:GreenYellow; font-size: 70px;'>正确! </span>","null","","","","","","","","","","","","","","","","","","","","","","","feedback_test"
"","","","","","psychophysics","327","903503","0.0-13.0-2.0-1.0-0.1-0.83","1411","","f","","","","","","","","","","","","","key","f","16.666000000000086","799.7222434076268","495.83334646843133","f","true","img/S_ambi40.png","好人","simultaneous",""
"","","","","","html-keyboard-response","328","903810","0.0-13.0-2.0-1.0-0.1-1.83","null","<span style='color:GreenYellow; font-size: 70px;'>正确! </span>","null","","","","","","","","","","","","","","","","","","","","","","","feedback_test"
"","","","","","psychophysics","329","905935","0.0-13.0-2.0-1.0-0.1-0.84","1114","","j","","","","","","","","","","","","","key","j","16.665999999999748","799.7222434076268","495.83334646843133","j","true","img/S_ambi40.png","常人","simultaneous",""
"","","","","","html-keyboard-response","330","906241","0.0-13.0-2.0-1.0-0.1-1.84","null","<span style='color:GreenYellow; font-size: 70px;'>正确! </span>","null","","","","","","","","","","","","","","","","","","","","","","","feedback_test"
"","","","","","psychophysics","331","907934","0.0-13.0-2.0-1.0-0.1-0.85","688","","f","","","","","","","","","","","","","key","f","16.665999999999766","799.7222434076268","495.83334646843133","f","true","img/S_ambi40.png","好人","simultaneous",""
"","","","","","html-keyboard-response","332","908242","0.0-13.0-2.0-1.0-0.1-1.85","null","<span style='color:GreenYellow; font-size: 70px;'>正确! </span>","null","","","","","","","","","","","","","","","","","","","","","","","feedback_test"
"","","","","","psychophysics","333","910305","0.0-13.0-2.0-1.0-0.1-0.86","1055","","j","","","","","","","","","","","","","key","j","16.665999999999567","799.7222434076268","495.83334646843133","j","true","img/C_ambi40.png","好人","simultaneous",""
"","","","","","html-keyboard-response","334","910612","0.0-13.0-2.0-1.0-0.1-1.86","null","<span style='color:GreenYellow; font-size: 70px;'>正确! </span>","null","","","","","","","","","","","","","","","","","","","","","","","feedback_test"
"","","","","","psychophysics","335","912542","0.0-13.0-2.0-1.0-0.1-0.87","922","","j","","","","","","","","","","","","","key","j","16.665999999999716","799.7222434076268","495.83334646843133","j","true","img/T_ambi40.png","常人","simultaneous",""
"","","","","","html-keyboard-response","336","912848","0.0-13.0-2.0-1.0-0.1-1.87","null","<span style='color:GreenYellow; font-size: 70px;'>正确! </span>","null","","","","","","","","","","","","","","","","","","","","","","","feedback_test"
"","","","","","psychophysics","337","914698","0.0-13.0-2.0-1.0-0.1-0.88","844","","j","","","","","","","","","","","","","key","j","16.642445454545403","799.7222434076268","495.83334646843133","j","true","img/S_ambi40.png","坏人","simultaneous",""
"","","","","","html-keyboard-response","338","915001","0.0-13.0-2.0-1.0-0.1-1.88","null","<span style='color:GreenYellow; font-size: 70px;'>正确! </span>","null","","","","","","","","","","","","","","","","","","","","","","","feedback_test"
"","","","","","psychophysics","339","916849","0.0-13.0-2.0-1.0-0.1-0.89","844","","j","","","","","","","","","","","","","key","j","16.665999999999308","799.7222434076268","495.83334646843133","j","true","img/T_ambi40.png","好人","simultaneous",""
"","","","","","html-keyboard-response","340","917155","0.0-13.0-2.0-1.0-0.1-1.89","null","<span style='color:GreenYellow; font-size: 70px;'>正确! </span>","null","","","","","","","","","","","","","","","","","","","","","","","feedback_test"
"","","","","","psychophysics","341","919428","0.0-13.0-2.0-1.0-0.1-0.90","1270","","j","","","","","","","","","","","","","key","j","16.66599999999938","799.7222434076268","495.83334646843133","j","true","img/C_ambi40.png","坏人","simultaneous",""
"","","","","","html-keyboard-response","342","919733","0.0-13.0-2.0-1.0-0.1-1.90","null","<span style='color:GreenYellow; font-size: 70px;'>正确! </span>","null","","","","","","","","","","","","","","","","","","","","","","","feedback_test"
"","","","","","psychophysics","343","921968","0.0-13.0-2.0-1.0-0.1-0.91","1227","","f","","","","","","","","","","","","","key","f","16.665999999999848","799.7222434076268","495.83334646843133","f","true","img/C_ambi40.png","常人","simultaneous",""
"","","","","","html-keyboard-response","344","922272","0.0-13.0-2.0-1.0-0.1-1.91","null","<span style='color:GreenYellow; font-size: 70px;'>正确! </span>","null","","","","","","","","","","","","","","","","","","","","","","","feedback_test"
"","","","","","psychophysics","345","924022","0.0-13.0-2.0-1.0-0.1-0.92","745","","f","","","","","","","","","","","","","key","f","16.665999999999677","799.7222434076268","495.83334646843133","f","true","img/C_ambi40.png","常人","simultaneous",""
"","","","","","html-keyboard-response","346","924329","0.0-13.0-2.0-1.0-0.1-1.92","null","<span style='color:GreenYellow; font-size: 70px;'>正确! </span>","null","","","","","","","","","","","","","","","","","","","","","","","feedback_test"
"","","","","","psychophysics","347","926234","0.0-13.0-2.0-1.0-0.1-0.93","896","","f","","","","","","","","","","","","","key","f","16.66599999999924","799.7222434076268","495.83334646843133","f","true","img/T_ambi40.png","坏人","simultaneous",""
"","","","","","html-keyboard-response","348","926539","0.0-13.0-2.0-1.0-0.1-1.93","null","<span style='color:GreenYellow; font-size: 70px;'>正确! </span>","null","","","","","","","","","","","","","","","","","","","","","","","feedback_test"
"","","","","","psychophysics","349","928602","0.0-13.0-2.0-1.0-0.1-0.94","1057","","f","","","","","","","","","","","","","key","f","16.665999999999567","799.7222434076268","495.83334646843133","f","true","img/S_ambi40.png","好人","simultaneous",""
"","","","","","html-keyboard-response","350","928908","0.0-13.0-2.0-1.0-0.1-1.94","null","<span style='color:GreenYellow; font-size: 70px;'>正确! </span>","null","","","","","","","","","","","","","","","","","","","","","","","feedback_test"
"","","","","","psychophysics","351","930761","0.0-13.0-2.0-1.0-0.1-0.95","847","","f","","","","","","","","","","","","","key","f","16.666000000000086","799.7222434076268","495.83334646843133","f","true","img/T_ambi40.png","坏人","simultaneous",""
"","","","","","html-keyboard-response","352","931067","0.0-13.0-2.0-1.0-0.1-1.95","null","<span style='color:GreenYellow; font-size: 70px;'>正确! </span>","null","","","","","","","","","","","","","","","","","","","","","","","feedback_test"
"","","","","","psychophysics","353","932919","0.0-13.0-2.0-1.0-0.1-0.96","841","","f","","","","","","","","","","","","","key","f","16.665999999999027","799.7222434076268","495.83334646843133","f","true","img/C_ambi40.png","常人","simultaneous",""
"","","","","","html-keyboard-response","354","933228","0.0-13.0-2.0-1.0-0.1-1.96","null","<span style='color:GreenYellow; font-size: 70px;'>正确! </span>","null","","","","","","","","","","","","","","","","","","","","","","","feedback_test"
"","","","","","psychophysics","355","934938","0.0-13.0-2.0-1.0-0.1-0.97","709","","j","","","","","","","","","","","","","key","j","16.632722772277504","799.7222434076268","495.83334646843133","j","true","img/T_ambi40.png","好人","simultaneous",""
"","","","","","html-keyboard-response","356","935248","0.0-13.0-2.0-1.0-0.1-1.97","null","<span style='color:GreenYellow; font-size: 70px;'>正确! </span>","null","","","","","","","","","","","","","","","","","","","","","","","feedback_test"
"","","","","","psychophysics","357","937053","0.0-13.0-2.0-1.0-0.1-0.98","796","","j","","","","","","","","","","","","","key","j","16.665999999999887","799.7222434076268","495.83334646843133","j","true","img/S_ambi40.png","坏人","simultaneous",""
"","","","","","html-keyboard-response","358","937359","0.0-13.0-2.0-1.0-0.1-1.98","null","<span style='color:GreenYellow; font-size: 70px;'>正确! </span>","null","","","","","","","","","","","","","","","","","","","","","","","feedback_test"
"","","","","","psychophysics","359","939435","0.0-13.0-2.0-1.0-0.1-0.99","1073","","f","","","","","","","","","","","","","key","f","16.665999999999567","799.7222434076268","495.83334646843133","f","true","img/T_ambi40.png","坏人","simultaneous",""
"","","","","","html-keyboard-response","360","939743","0.0-13.0-2.0-1.0-0.1-1.99","null","<span style='color:GreenYellow; font-size: 70px;'>正确! </span>","null","","","","","","","","","","","","","","","","","","","","","","","feedback_test"
"","","","","","psychophysics","361","942073","0.0-13.0-2.0-1.0-0.1-0.100","1329","","j","","","","","","","","","","","","","key","j","16.66599999999955","799.7222434076268","495.83334646843133","j","true","img/S_ambi40.png","常人","simultaneous",""
"","","","","","html-keyboard-response","362","942379","0.0-13.0-2.0-1.0-0.1-1.100","null","<span style='color:GreenYellow; font-size: 70px;'>正确! </span>","null","","","","","","","","","","","","","","","","","","","","","","","feedback_test"
"","","","","","psychophysics","363","944377","0.0-13.0-2.0-1.0-0.1-0.101","995","","j","","","","","","","","","","","","","key","j","16.666000000000892","799.7222434076268","495.83334646843133","j","true","img/C_ambi40.png","好人","simultaneous",""
"","","","","","html-keyboard-response","364","944681","0.0-13.0-2.0-1.0-0.1-1.101","null","<span style='color:GreenYellow; font-size: 70px;'>正确! </span>","null","","","","","","","","","","","","","","","","","","","","","","","feedback_test"
"","","","","","psychophysics","365","946452","0.0-13.0-2.0-1.0-0.1-0.102","764","","j","","","","","","","","","","","","","key","j","16.666000000000487","799.7222434076268","495.83334646843133","j","true","img/T_ambi40.png","常人","simultaneous",""
"","","","","","html-keyboard-response","366","946759","0.0-13.0-2.0-1.0-0.1-1.102","null","<span style='color:GreenYellow; font-size: 70px;'>正确! </span>","null","","","","","","","","","","","","","","","","","","","","","","","feedback_test"
"","","","","","psychophysics","367","948662","0.0-13.0-2.0-1.0-0.1-0.103","900","","j","","","","","","","","","","","","","key","j","16.665999999999993","799.7222434076268","495.83334646843133","j","true","img/C_ambi40.png","坏人","simultaneous",""
"","","","","","html-keyboard-response","368","948968","0.0-13.0-2.0-1.0-0.1-1.103","null","<span style='color:GreenYellow; font-size: 70px;'>正确! </span>","null","","","","","","","","","","","","","","","","","","","","","","","feedback_test"
"","","","","","psychophysics","369","950766","0.0-13.0-2.0-1.0-0.1-0.104","786","","j","","","","","","","","","","","","","key","j","16.665999999999887","799.7222434076268","495.83334646843133","f","false","img/S_ambi40.png","好人","simultaneous",""
"","","","","","html-keyboard-response","370","951073","0.0-13.0-2.0-1.0-0.1-1.104","null","<span style='color:red; font-size: 70px;'>错误! </span>","null","","","","","","","","","","","","","","","","","","","","","","","feedback_test"
"","","","","","psychophysics","371","953038","0.0-13.0-2.0-1.0-0.1-0.105","958","","f","","","","","","","","","","","","","key","f","16.666000000000174","799.7222434076268","495.83334646843133","f","true","img/S_ambi40.png","好人","simultaneous",""
"","","","","","html-keyboard-response","372","953343","0.0-13.0-2.0-1.0-0.1-1.105","null","<span style='color:GreenYellow; font-size: 70px;'>正确! </span>","null","","","","","","","","","","","","","","","","","","","","","","","feedback_test"
"","","","","","psychophysics","373","955037","0.0-13.0-2.0-1.0-0.1-0.106","681","","f","","","","","","","","","","","","","key","f","16.624415841584074","799.7222434076268","495.83334646843133","f","true","img/C_ambi40.png","常人","simultaneous",""
"","","","","","html-keyboard-response","374","955346","0.0-13.0-2.0-1.0-0.1-1.106","null","<span style='color:GreenYellow; font-size: 70px;'>正确! </span>","null","","","","","","","","","","","","","","","","","","","","","","","feedback_test"
"","","","","","psychophysics","375","957687","0.0-13.0-2.0-1.0-0.1-0.107","1334","","f","","","","","","","","","","","","","key","f","16.66600000000016","799.7222434076268","495.83334646843133","f","true","img/T_ambi40.png","坏人","simultaneous",""
"","","","","","html-keyboard-response","376","958004","0.0-13.0-2.0-1.0-0.1-1.107","null","<span style='color:GreenYellow; font-size: 70px;'>正确! </span>","null","","","","","","","","","","","","","","","","","","","","","","","feedback_test"
"","","","","","psychophysics","377","959903","0.0-13.0-2.0-1.0-0.1-0.108","895","","f","","","","","","","","","","","","","key","f","16.66600000000027","799.7222434076268","495.83334646843133","j","false","img/T_ambi40.png","常人","simultaneous",""
"","","","","","html-keyboard-response","378","960213","0.0-13.0-2.0-1.0-0.1-1.108","null","<span style='color:red; font-size: 70px;'>错误! </span>","null","","","","","","","","","","","","","","","","","","","","","","","feedback_test"
"","","","","","psychophysics","379","962251","0.0-13.0-2.0-1.0-0.1-0.109","1034","","f","","","","","","","","","","","","","key","f","16.666000000000086","799.7222434076268","495.83334646843133","f","true","img/T_ambi40.png","坏人","simultaneous",""
"","","","","","html-keyboard-response","380","962553","0.0-13.0-2.0-1.0-0.1-1.109","null","<span style='color:GreenYellow; font-size: 70px;'>正确! </span>","null","","","","","","","","","","","","","","","","","","","","","","","feedback_test"
"","","","","","psychophysics","381","964331","0.0-13.0-2.0-1.0-0.1-0.110","773","","j","","","","","","","","","","","","","key","j","16.666000000000185","799.7222434076268","495.83334646843133","j","true","img/S_ambi40.png","坏人","simultaneous",""
"","","","","","html-keyboard-response","382","964633","0.0-13.0-2.0-1.0-0.1-1.110","null","<span style='color:GreenYellow; font-size: 70px;'>正确! </span>","null","","","","","","","","","","","","","","","","","","","","","","","feedback_test"
"","","","","","psychophysics","383","966432","0.0-13.0-2.0-1.0-0.1-0.111","790","","j","","","","","","","","","","","","","key","j","16.665999999999887","799.7222434076268","495.83334646843133","j","true","img/T_ambi40.png","好人","simultaneous",""
"","","","","","html-keyboard-response","384","966737","0.0-13.0-2.0-1.0-0.1-1.111","null","<span style='color:GreenYellow; font-size: 70px;'>正确! </span>","null","","","","","","","","","","","","","","","","","","","","","","","feedback_test"
"","","","","","psychophysics","385","968570","0.0-13.0-2.0-1.0-0.1-0.112","828","","f","","","","","","","","","","","","","key","f","16.666000000000377","799.7222434076268","495.83334646843133","f","true","img/T_ambi40.png","坏人","simultaneous",""
"","","","","","html-keyboard-response","386","968873","0.0-13.0-2.0-1.0-0.1-1.112","null","<span style='color:GreenYellow; font-size: 70px;'>正确! </span>","null","","","","","","","","","","","","","","","","","","","","","","","feedback_test"
"","","","","","psychophysics","387","970674","0.0-13.0-2.0-1.0-0.1-0.113","797","","f","","","","","","","","","","","","","key","f","16.665999999999887","799.7222434076268","495.83334646843133","j","false","img/S_ambi40.png","常人","simultaneous",""
"","","","","","html-keyboard-response","388","970980","0.0-13.0-2.0-1.0-0.1-1.113","null","<span style='color:red; font-size: 70px;'>错误! </span>","null","","","","","","","","","","","","","","","","","","","","","","","feedback_test"
"","","","","","psychophysics","389","972948","0.0-13.0-2.0-1.0-0.1-0.114","960","","f","","","","","","","","","","","","","key","f","16.666000000000174","799.7222434076268","495.83334646843133","f","true","img/C_ambi40.png","常人","simultaneous",""
"","","","","","html-keyboard-response","390","973250","0.0-13.0-2.0-1.0-0.1-1.114","null","<span style='color:GreenYellow; font-size: 70px;'>正确! </span>","null","","","","","","","","","","","","","","","","","","","","","","","feedback_test"
"","","","","","psychophysics","391","975385","0.0-13.0-2.0-1.0-0.1-0.115","1125","","f","","","","","","","","","","","","","key","f","16.669582677165444","799.7222434076268","495.83334646843133","f","true","img/S_ambi40.png","好人","simultaneous",""
"","","","","","html-keyboard-response","392","975690","0.0-13.0-2.0-1.0-0.1-1.115","null","<span style='color:GreenYellow; font-size: 70px;'>正确! </span>","null","","","","","","","","","","","","","","","","","","","","","","","feedback_test"
"","","","","","psychophysics","393","977617","0.0-13.0-2.0-1.0-0.1-0.116","924","","j","","","","","","","","","","","","","key","j","16.665999999999716","799.7222434076268","495.83334646843133","f","false","img/C_ambi40.png","常人","simultaneous",""
"","","","","","html-keyboard-response","394","977924","0.0-13.0-2.0-1.0-0.1-1.116","null","<span style='color:red; font-size: 70px;'>错误! </span>","null","","","","","","","","","","","","","","","","","","","","","","","feedback_test"
"","","","","","psychophysics","395","979795","0.0-13.0-2.0-1.0-0.1-0.117","869","","f","","","","","","","","","","","","","key","f","16.665999999999798","799.7222434076268","495.83334646843133","f","true","img/S_ambi40.png","好人","simultaneous",""
"","","","","","html-keyboard-response","396","980098","0.0-13.0-2.0-1.0-0.1-1.117","null","<span style='color:GreenYellow; font-size: 70px;'>正确! </span>","null","","","","","","","","","","","","","","","","","","","","","","","feedback_test"
"","","","","","psychophysics","397","982124","0.0-13.0-2.0-1.0-0.1-0.118","1018","","j","","","","","","","","","","","","","key","j","16.66600000000035","799.7222434076268","495.83334646843133","j","true","img/C_ambi40.png","好人","simultaneous",""
"","","","","","html-keyboard-response","398","982426","0.0-13.0-2.0-1.0-0.1-1.118","null","<span style='color:GreenYellow; font-size: 70px;'>正确! </span>","null","","","","","","","","","","","","","","","","","","","","","","","feedback_test"
"","","","","","psychophysics","399","984291","0.0-13.0-2.0-1.0-0.1-0.119","858","","j","","","","","","","","","","","","","key","j","16.666000000000086","799.7222434076268","495.83334646843133","j","true","img/C_ambi40.png","坏人","simultaneous",""
"","","","","","html-keyboard-response","400","984593","0.0-13.0-2.0-1.0-0.1-1.119","null","<span style='color:GreenYellow; font-size: 70px;'>正确! </span>","null","","","","","","","","","","","","","","","","","","","","","","","feedback_test"
"","","","","","html-keyboard-response","401","1031955","0.0-13.0-2.0-1.0-1.1","47360","<style>.context{color:white; font-size: 35px; line-height:40px}</style>                              <div><p class='context'>您正确回答了87% 的试次。</p><p class='context'>您的平均反应时为956毫秒。</p><p class='context'>请按任意键进入休息</p></div>"," ","","","","","","","","","","","","","","","","","","","","","","",""
"","","","","","html-button-response","402","1035566","0.0-13.0-2.0-1.0-2.1","3607","
                      <p>您当前还剩余2组实验</p>
                      <p>现在是休息时间，当您结束休息后，您可以点击 结束休息 按钮 继续</p>
                      <p>建议休息时间还剩余<span id=""iii"">60</span>秒</p>","0","","","","","","","","","","","","","","","","","","","","","","",""
"","","","","","psychophysics","403","1037703","0.0-13.0-2.0-1.0-0.2-0.120","1131","","j","","","","","","","","","","","","","key","j","16.665999999999503","799.7222434076268","495.83334646843133","j","true","img/S_ambi40.png","坏人","simultaneous",""
"","","","","","html-keyboard-response","404","1038012","0.0-13.0-2.0-1.0-0.2-1.120","null","<span style='color:GreenYellow; font-size: 70px;'>正确! </span>","null","","","","","","","","","","","","","","","","","","","","","","","feedback_test"
"","","","","","psychophysics","405","1039787","0.0-13.0-2.0-1.0-0.2-0.121","773","","j","","","","","","","","","","","","","key","j","16.666000000000185","799.7222434076268","495.83334646843133","j","true","img/T_ambi40.png","常人","simultaneous",""
"","","","","","html-keyboard-response","406","1040092","0.0-13.0-2.0-1.0-0.2-1.121","null","<span style='color:GreenYellow; font-size: 70px;'>正确! </span>","null","","","","","","","","","","","","","","","","","","","","","","","feedback_test"
