"success","timeout","failed_images","failed_audio","failed_video","trial_type","trial_index","time_elapsed","internal_node_id","rt","stimulus","response","value","item_width_mm","item_height_mm","item_width_px","px2mm","view_dist_mm","item_width_deg","px2deg","scale_factor","win_width_deg","win_height_deg","view_history","response_type","key_press","avg_frame_time","center_x","center_y","correct_response","correct","Image","word","condition","screen_id"
"true","false","[]","[]","[]","preload","0","736","0.0-0.0","","","","","","","","","","","","","","","","","","","","","","","","","",""
"","","","","","html-keyboard-response","1","17004","0.0-1.0","16268","
     <p>您好，欢迎参加本次实验。</p>
     <p>为充分保障您的权利，请确保您已经知晓并同意《参与实验同意书》以及《数据公开知情同意书》。</p>
     <p>如果您未见过上述内容，请咨询实验员。</p>
     <p>如果您选择继续实验，则表示您已经清楚两份知情同意书的内容并同意。</p>
     <p> <div style = ""color: green""><按任意键至下页></div> </p>
     "," ","","","","","","","","","","","","","","","","","","","","","","",""
"","","","","","html-keyboard-response","2","18008","0.0-2.0","1004","
     <p>本实验首先需要您填写一些基本个人信息。</p>
     <p> <div style = ""color: green""><按任意键至下页></div></p>
     "," ","","","","","","","","","","","","","","","","","","","","","","",""
"","","","","","call-function","3","18009","0.0-3.0-0.0","","","","","","","","","","","","","","","","","","","","","","","","","",""
"","","","","","survey-html-form","4","22026","0.0-3.0-1.0","4005","","{""Q0"":""26""}","","","","","","","","","","","","","","","","","","","","","","",""
"","","","","","html-button-response","5","34645","0.0-3.0-2.0","12619","<p style = 'color : white'>您的性别</p>","0","","","","","","","","","","","","","","","","","","","","","","",""
"","","","","","survey-html-form","6","38991","0.0-3.0-3.0","4345","","{""Q0"":""2001""}","","","","","","","","","","","","","","","","","","","","","","",""
"","","","","","survey-html-form","7","41364","0.0-3.0-4.0","2372","","{""Q0"":""5""}","","","","","","","","","","","","","","","","","","","","","","",""
"","","","","","virtual-chinrest","8","102827","0.0-4.0","61461","","","","85.6","53.98","344.1877499189402","4.022831344593983","711.62","6.883754998378804","50","0.9122927822792946","37.46","19.22","","","","","","","","","","","",""
"true","","","","","fullscreen","9","104764","0.0-5.0","","","","","","","","","","","","","","","","","","","","","","","","","",""
"","","","","","instructions","10","125743","0.0-6.0","20979","","","","","","","","","","","","","","[{""page_index"":0,""viewing_time"":1810},{""page_index"":1,""viewing_time"":16556},{""page_index"":2,""viewing_time"":1284},{""page_index"":3,""viewing_time"":1329}]","","","","","","","","","","",""
"","","","","","psychophysics","11","128403","0.0-7.0-0.0-0.0","null","","null","","","","","","","","","","","","","key","null","6.962604221635858","960","536","j","false","img/C_ambi40.png","坏人","prac_image_first",""
"","","","","","html-keyboard-response","12","128704","0.0-7.0-0.0-1.0","null","<span class='add_' style='color:yellow; font-size: 70px;'> 太慢! </span>","null","","","","","","","","","","","","","","","","","","","","","","","feedback_test"
"","","","","","psychophysics","13","130720","0.0-7.0-0.0-0.1","864","","j","","","","","","","","","","","","","key","j","6.944339100345985","960","536","f","false","img/C_ambi40.png","常人","prac_image_first",""
"","","","","","html-keyboard-response","14","131020","0.0-7.0-0.0-1.1","null","<span style='color:red; font-size: 70px;'>错误! </span>","null","","","","","","","","","","","","","","","","","","","","","","","feedback_test"
"","","","","","psychophysics","15","133672","0.0-7.0-0.0-0.2","null","","null","","","","","","","","","","","","","key","null","6.944370078740215","960","536","j","false","img/T_ambi40.png","常人","prac_image_first",""
"","","","","","html-keyboard-response","16","133973","0.0-7.0-0.0-1.2","null","<span class='add_' style='color:yellow; font-size: 70px;'> 太慢! </span>","null","","","","","","","","","","","","","","","","","","","","","","","feedback_test"
"","","","","","psychophysics","17","135741","0.0-7.0-0.0-0.3","617","","f","","","","","","","","","","","","","key","f","6.944129921259876","960","536","f","true","img/T_ambi40.png","坏人","prac_image_first",""
"","","","","","html-keyboard-response","18","136041","0.0-7.0-0.0-1.3","null","<span style='color:GreenYellow; font-size: 70px;'>正确! </span>","null","","","","","","","","","","","","","","","","","","","","","","","feedback_test"
"","","","","","psychophysics","19","138078","0.0-7.0-0.0-0.4","885","","j","","","","","","","","","","","","","key","j","6.944123287671261","960","536","j","true","img/C_ambi40.png","好人","prac_image_first",""
"","","","","","html-keyboard-response","20","138378","0.0-7.0-0.0-1.4","null","<span style='color:GreenYellow; font-size: 70px;'>正确! </span>","null","","","","","","","","","","","","","","","","","","","","","","","feedback_test"
"","","","","","psychophysics","21","140063","0.0-7.0-0.0-0.5","534","","f","","","","","","","","","","","","","key","f","6.944473029045713","960","536","f","true","img/C_ambi40.png","常人","prac_image_first",""
"","","","","","html-keyboard-response","22","140365","0.0-7.0-0.0-1.5","null","<span style='color:GreenYellow; font-size: 70px;'>正确! </span>","null","","","","","","","","","","","","","","","","","","","","","","","feedback_test"
"","","","","","psychophysics","23","142549","0.0-7.0-0.0-0.6","1033","","j","","","","","","","","","","","","","key","j","6.94472843450483","960","536","j","true","img/S_ambi40.png","坏人","prac_image_first",""
"","","","","","html-keyboard-response","24","142851","0.0-7.0-0.0-1.6","null","<span style='color:GreenYellow; font-size: 70px;'>正确! </span>","null","","","","","","","","","","","","","","","","","","","","","","","feedback_test"
"","","","","","psychophysics","25","144527","0.0-7.0-0.0-0.7","525","","j","","","","","","","","","","","","","key","j","6.9442000000000315","960","536","j","true","img/T_ambi40.png","好人","prac_image_first",""
"","","","","","html-keyboard-response","26","144829","0.0-7.0-0.0-1.7","null","<span style='color:GreenYellow; font-size: 70px;'>正确! </span>","null","","","","","","","","","","","","","","","","","","","","","","","feedback_test"
"","","","","","psychophysics","27","147173","0.0-7.0-0.0-0.8","1193","","j","","","","","","","","","","","","","key","j","6.943961309523816","960","536","j","true","img/S_ambi40.png","常人","prac_image_first",""
"","","","","","html-keyboard-response","28","147475","0.0-7.0-0.0-1.8","null","<span style='color:GreenYellow; font-size: 70px;'>正确! </span>","null","","","","","","","","","","","","","","","","","","","","","","","feedback_test"
"","","","","","psychophysics","29","149567","0.0-7.0-0.0-0.9","941","","j","","","","","","","","","","","","","key","j","6.944209999999924","960","536","f","false","img/S_ambi40.png","好人","prac_image_first",""
"","","","","","html-keyboard-response","30","149869","0.0-7.0-0.0-1.9","null","<span style='color:red; font-size: 70px;'>错误! </span>","null","","","","","","","","","","","","","","","","","","","","","","","feedback_test"
"","","","","","psychophysics","31","151664","0.0-7.0-0.0-0.10","643","","j","","","","","","","","","","","","","key","j","6.94301167315172","960","536","f","false","img/T_ambi40.png","坏人","prac_image_first",""
"","","","","","html-keyboard-response","32","151965","0.0-7.0-0.0-1.10","null","<span style='color:red; font-size: 70px;'>错误! </span>","null","","","","","","","","","","","","","","","","","","","","","","","feedback_test"
"","","","","","psychophysics","33","154067","0.0-7.0-0.0-0.11","950","","f","","","","","","","","","","","","","key","f","6.944195364238402","960","536","f","true","img/S_ambi40.png","好人","prac_image_first",""
"","","","","","html-keyboard-response","34","154369","0.0-7.0-0.0-1.11","null","<span style='color:GreenYellow; font-size: 70px;'>正确! </span>","null","","","","","","","","","","","","","","","","","","","","","","","feedback_test"
"","","","","","psychophysics","35","155977","0.0-7.0-0.0-0.12","457","","f","","","","","","","","","","","","","key","f","6.944337662337756","960","536","f","true","img/C_ambi40.png","常人","prac_image_first",""
"","","","","","html-keyboard-response","36","156277","0.0-7.0-0.0-1.12","null","<span style='color:GreenYellow; font-size: 70px;'>正确! </span>","null","","","","","","","","","","","","","","","","","","","","","","","feedback_test"
"","","","","","psychophysics","37","158137","0.0-7.0-0.0-0.13","707","","f","","","","","","","","","","","","","key","f","6.944224719101151","960","536","f","true","img/C_ambi40.png","常人","prac_image_first",""
"","","","","","html-keyboard-response","38","158438","0.0-7.0-0.0-1.13","null","<span style='color:GreenYellow; font-size: 70px;'>正确! </span>","null","","","","","","","","","","","","","","","","","","","","","","","feedback_test"
"","","","","","psychophysics","39","160410","0.0-7.0-0.0-0.14","822","","j","","","","","","","","","","","","","key","j","6.944155477031789","960","536","j","true","img/C_ambi40.png","坏人","prac_image_first",""
"","","","","","html-keyboard-response","40","160711","0.0-7.0-0.0-1.14","null","<span style='color:GreenYellow; font-size: 70px;'>正确! </span>","null","","","","","","","","","","","","","","","","","","","","","","","feedback_test"
"","","","","","psychophysics","41","162540","0.0-7.0-0.0-0.15","678","","f","","","","","","","","","","","","","key","f","6.944087786259523","960","536","j","false","img/S_ambi40.png","常人","prac_image_first",""
"","","","","","html-keyboard-response","42","162841","0.0-7.0-0.0-1.15","null","<span style='color:red; font-size: 70px;'>错误! </span>","null","","","","","","","","","","","","","","","","","","","","","","","feedback_test"
"","","","","","psychophysics","43","164706","0.0-7.0-0.0-0.16","714","","f","","","","","","","","","","","","","key","f","6.941876404494381","960","536","j","false","img/C_ambi40.png","好人","prac_image_first",""
"","","","","","html-keyboard-response","44","165007","0.0-7.0-0.0-1.16","null","<span style='color:red; font-size: 70px;'>错误! </span>","null","","","","","","","","","","","","","","","","","","","","","","","feedback_test"
"","","","","","psychophysics","45","166868","0.0-7.0-0.0-0.17","710","","f","","","","","","","","","","","","","key","f","6.944520599250956","960","536","f","true","img/S_ambi40.png","好人","prac_image_first",""
"","","","","","html-keyboard-response","46","167168","0.0-7.0-0.0-1.17","null","<span style='color:GreenYellow; font-size: 70px;'>正确! </span>","null","","","","","","","","","","","","","","","","","","","","","","","feedback_test"
"","","","","","psychophysics","47","169102","0.0-7.0-0.0-0.18","783","","f","","","","","","","","","","","","","key","f","6.944444043321315","960","536","f","true","img/S_ambi40.png","好人","prac_image_first",""
"","","","","","html-keyboard-response","48","169404","0.0-7.0-0.0-1.18","null","<span style='color:GreenYellow; font-size: 70px;'>正确! </span>","null","","","","","","","","","","","","","","","","","","","","","","","feedback_test"
"","","","","","psychophysics","49","171560","0.0-7.0-0.0-0.19","1006","","f","","","","","","","","","","","","","key","f","6.943737864077734","960","536","f","true","img/T_ambi40.png","坏人","prac_image_first",""
"","","","","","html-keyboard-response","50","171863","0.0-7.0-0.0-1.19","null","<span style='color:GreenYellow; font-size: 70px;'>正确! </span>","null","","","","","","","","","","","","","","","","","","","","","","","feedback_test"
"","","","","","psychophysics","51","173810","0.0-7.0-0.0-0.20","796","","j","","","","","","","","","","","","","key","j","6.944440860215092","960","536","j","true","img/S_ambi40.png","坏人","prac_image_first",""
"","","","","","html-keyboard-response","52","174112","0.0-7.0-0.0-1.20","null","<span style='color:GreenYellow; font-size: 70px;'>正确! </span>","null","","","","","","","","","","","","","","","","","","","","","","","feedback_test"
"","","","","","psychophysics","53","175886","0.0-7.0-0.0-0.21","623","","j","","","","","","","","","","","","","key","j","6.942822834645723","960","536","f","false","img/T_ambi40.png","坏人","prac_image_first",""
"","","","","","html-keyboard-response","54","176187","0.0-7.0-0.0-1.21","null","<span style='color:red; font-size: 70px;'>错误! </span>","null","","","","","","","","","","","","","","","","","","","","","","","feedback_test"
"","","","","","psychophysics","55","178222","0.0-7.0-0.0-0.22","884","","j","","","","","","","","","","","","","key","j","6.944229452054783","960","536","j","true","img/T_ambi40.png","常人","prac_image_first",""
"","","","","","html-keyboard-response","56","178524","0.0-7.0-0.0-1.22","null","<span style='color:GreenYellow; font-size: 70px;'>正确! </span>","null","","","","","","","","","","","","","","","","","","","","","","","feedback_test"
"","","","","","psychophysics","57","180799","0.0-7.0-0.0-0.23","1125","","j","","","","","","","","","","","","","key","j","6.9447147239263325","960","536","j","true","img/T_ambi40.png","好人","prac_image_first",""
"","","","","","html-keyboard-response","58","181101","0.0-7.0-0.0-1.23","null","<span style='color:GreenYellow; font-size: 70px;'>正确! </span>","null","","","","","","","","","","","","","","","","","","","","","","","feedback_test"
"","","","","","html-keyboard-response","59","182414","0.0-8.0","1312","<style>.context{color:white; font-size: 35px; line-height:40px}</style>                              <div><p class='context'>您正确回答了67% 的试次。</p><p class='context'>您的平均反应时为814毫秒。</p><p class='context'>恭喜您完成这一阶段的练习。按任意键进入<span style='color: yellow;'>先文字后图形条件</span>的练习。</p></div>"," ","","","","","","","","","","","","","","","","","","","","","","",""
"","","","","","psychophysics","60","184342","0.0-9.0-0.0-0.0","772","","f","","","","","","","","","","","","","key","f","6.944246376811677","960","536","f","true","img/T_ambi40.png","坏人","prac_word_first",""
"","","","","","html-keyboard-response","61","184642","0.0-9.0-0.0-1.0","null","<span style='color:GreenYellow; font-size: 70px;'>正确! </span>","null","","","","","","","","","","","","","","","","","","","","","","","feedback_test"
"","","","","","psychophysics","62","187125","0.0-9.0-0.0-0.1","1331","","f","","","","","","","","","","","","","key","f","6.944530898876396","960","536","f","true","img/S_ambi40.png","好人","prac_word_first",""
"","","","","","html-keyboard-response","63","187426","0.0-9.0-0.0-1.1","null","<span style='color:GreenYellow; font-size: 70px;'>正确! </span>","null","","","","","","","","","","","","","","","","","","","","","","","feedback_test"
"","","","","","psychophysics","64","189472","0.0-9.0-0.0-0.2","896","","f","","","","","","","","","","","","","key","f","6.944058020477804","960","536","f","true","img/S_ambi40.png","好人","prac_word_first",""
"","","","","","html-keyboard-response","65","189773","0.0-9.0-0.0-1.2","null","<span style='color:GreenYellow; font-size: 70px;'>正确! </span>","null","","","","","","","","","","","","","","","","","","","","","","","feedback_test"
"","","","","","psychophysics","66","191876","0.0-9.0-0.0-0.3","952","","j","","","","","","","","","","","","","key","j","6.944275747508254","960","536","j","true","img/S_ambi40.png","坏人","prac_word_first",""
"","","","","","html-keyboard-response","67","192176","0.0-9.0-0.0-1.3","null","<span style='color:GreenYellow; font-size: 70px;'>正确! </span>","null","","","","","","","","","","","","","","","","","","","","","","","feedback_test"
"","","","","","psychophysics","68","194358","0.0-9.0-0.0-0.4","1031","","f","","","","","","","","","","","","","key","f","6.9441533546325545","960","536","f","true","img/C_ambi40.png","常人","prac_word_first",""
"","","","","","html-keyboard-response","69","194659","0.0-9.0-0.0-1.4","null","<span style='color:GreenYellow; font-size: 70px;'>正确! </span>","null","","","","","","","","","","","","","","","","","","","","","","","feedback_test"
"","","","","","psychophysics","70","197199","0.0-9.0-0.0-0.5","1388","","j","","","","","","","","","","","","","key","j","6.944367123287719","960","536","j","true","img/T_ambi40.png","好人","prac_word_first",""
"","","","","","html-keyboard-response","71","197500","0.0-9.0-0.0-1.5","null","<span style='color:GreenYellow; font-size: 70px;'>正确! </span>","null","","","","","","","","","","","","","","","","","","","","","","","feedback_test"
"","","","","","psychophysics","72","199381","0.0-9.0-0.0-0.6","728","","f","","","","","","","","","","","","","key","f","6.944670370370322","960","536","f","true","img/C_ambi40.png","常人","prac_word_first",""
"","","","","","html-keyboard-response","73","199682","0.0-9.0-0.0-1.6","null","<span style='color:GreenYellow; font-size: 70px;'>正确! </span>","null","","","","","","","","","","","","","","","","","","","","","","","feedback_test"
"","","","","","psychophysics","74","201610","0.0-9.0-0.0-0.7","777","","f","","","","","","","","","","","","","key","f","6.943913043478223","960","536","j","false","img/C_ambi40.png","好人","prac_word_first",""
"","","","","","html-keyboard-response","75","201912","0.0-9.0-0.0-1.7","null","<span style='color:red; font-size: 70px;'>错误! </span>","null","","","","","","","","","","","","","","","","","","","","","","","feedback_test"
"","","","","","psychophysics","76","203666","0.0-9.0-0.0-0.8","603","","j","","","","","","","","","","","","","key","j","6.944219123506019","960","536","j","true","img/C_ambi40.png","坏人","prac_word_first",""
"","","","","","html-keyboard-response","77","203968","0.0-9.0-0.0-1.8","null","<span style='color:GreenYellow; font-size: 70px;'>正确! </span>","null","","","","","","","","","","","","","","","","","","","","","","","feedback_test"
"","","","","","psychophysics","78","206220","0.0-9.0-0.0-0.9","1101","","j","","","","","","","","","","","","","key","j","6.9440712074303335","960","536","j","true","img/S_ambi40.png","常人","prac_word_first",""
"","","","","","html-keyboard-response","79","206521","0.0-9.0-0.0-1.9","null","<span style='color:GreenYellow; font-size: 70px;'>正确! </span>","null","","","","","","","","","","","","","","","","","","","","","","","feedback_test"
"","","","","","psychophysics","80","208740","0.0-9.0-0.0-0.10","1067","","f","","","","","","","","","","","","","key","f","6.942701257861573","960","536","f","true","img/T_ambi40.png","坏人","prac_word_first",""
"","","","","","html-keyboard-response","81","209041","0.0-9.0-0.0-1.10","null","<span style='color:GreenYellow; font-size: 70px;'>正确! </span>","null","","","","","","","","","","","","","","","","","","","","","","","feedback_test"
"","","","","","psychophysics","82","210897","0.0-9.0-0.0-0.11","705","","j","","","","","","","","","","","","","key","j","6.944571428571406","960","536","j","true","img/T_ambi40.png","常人","prac_word_first",""
"","","","","","html-keyboard-response","83","211198","0.0-9.0-0.0-1.11","null","<span style='color:GreenYellow; font-size: 70px;'>正确! </span>","null","","","","","","","","","","","","","","","","","","","","","","","feedback_test"
"","","","","","psychophysics","84","212955","0.0-9.0-0.0-0.12","605","","j","","","","","","","","","","","","","key","j","6.944218253968251","960","536","j","true","img/C_ambi40.png","坏人","prac_word_first",""
"","","","","","html-keyboard-response","85","213256","0.0-9.0-0.0-1.12","null","<span style='color:GreenYellow; font-size: 70px;'>正确! </span>","null","","","","","","","","","","","","","","","","","","","","","","","feedback_test"
"","","","","","psychophysics","86","215263","0.0-9.0-0.0-0.13","856","","j","","","","","","","","","","","","","key","j","6.944423611111031","960","536","j","true","img/T_ambi40.png","常人","prac_word_first",""
"","","","","","html-keyboard-response","87","215565","0.0-9.0-0.0-1.13","null","<span style='color:GreenYellow; font-size: 70px;'>正确! </span>","null","","","","","","","","","","","","","","","","","","","","","","","feedback_test"
"","","","","","psychophysics","88","217374","0.0-9.0-0.0-0.14","658","","j","","","","","","","","","","","","","key","j","6.944857142857118","960","536","j","true","img/S_ambi40.png","坏人","prac_word_first",""
"","","","","","html-keyboard-response","89","217675","0.0-9.0-0.0-1.14","null","<span style='color:GreenYellow; font-size: 70px;'>正确! </span>","null","","","","","","","","","","","","","","","","","","","","","","","feedback_test"
"","","","","","psychophysics","90","219936","0.0-9.0-0.0-0.15","1109","","j","","","","","","","","","","","","","key","j","6.9439444444445","960","536","j","true","img/T_ambi40.png","好人","prac_word_first",""
"","","","","","html-keyboard-response","91","220237","0.0-9.0-0.0-1.15","null","<span style='color:GreenYellow; font-size: 70px;'>正确! </span>","null","","","","","","","","","","","","","","","","","","","","","","","feedback_test"
"","","","","","psychophysics","92","222699","0.0-9.0-0.0-0.16","1310","","j","","","","","","","","","","","","","key","j","6.942096317280447","960","536","f","false","img/T_ambi40.png","坏人","prac_word_first",""
"","","","","","html-keyboard-response","93","223000","0.0-9.0-0.0-1.16","null","<span style='color:red; font-size: 70px;'>错误! </span>","null","","","","","","","","","","","","","","","","","","","","","","","feedback_test"
"","","","","","psychophysics","94","224908","0.0-9.0-0.0-0.17","757","","j","","","","","","","","","","","","","key","j","6.944343065693431","960","536","j","true","img/S_ambi40.png","常人","prac_word_first",""
"","","","","","html-keyboard-response","95","225210","0.0-9.0-0.0-1.17","null","<span style='color:GreenYellow; font-size: 70px;'>正确! </span>","null","","","","","","","","","","","","","","","","","","","","","","","feedback_test"
"","","","","","psychophysics","96","227110","0.0-9.0-0.0-0.18","749","","f","","","","","","","","","","","","","key","f","6.944301470588257","960","536","j","false","img/C_ambi40.png","好人","prac_word_first",""
"","","","","","html-keyboard-response","97","227411","0.0-9.0-0.0-1.18","null","<span style='color:red; font-size: 70px;'>错误! </span>","null","","","","","","","","","","","","","","","","","","","","","","","feedback_test"
"","","","","","psychophysics","98","229324","0.0-9.0-0.0-0.19","761","","j","","","","","","","","","","","","","key","j","6.94397810218976","960","536","f","false","img/S_ambi40.png","好人","prac_word_first",""
"","","","","","html-keyboard-response","99","229625","0.0-9.0-0.0-1.19","null","<span style='color:red; font-size: 70px;'>错误! </span>","null","","","","","","","","","","","","","","","","","","","","","","","feedback_test"
"","","","","","psychophysics","100","231576","0.0-9.0-0.0-0.20","801","","j","","","","","","","","","","","","","key","j","6.944446428571453","960","536","f","false","img/T_ambi40.png","坏人","prac_word_first",""
"","","","","","html-keyboard-response","101","231877","0.0-9.0-0.0-1.20","null","<span style='color:red; font-size: 70px;'>错误! </span>","null","","","","","","","","","","","","","","","","","","","","","","","feedback_test"
"","","","","","psychophysics","102","233780","0.0-9.0-0.0-0.21","752","","f","","","","","","","","","","","","","key","f","6.944823529411758","960","536","f","true","img/C_ambi40.png","常人","prac_word_first",""
"","","","","","html-keyboard-response","103","234081","0.0-9.0-0.0-1.21","null","<span style='color:GreenYellow; font-size: 70px;'>正确! </span>","null","","","","","","","","","","","","","","","","","","","","","","","feedback_test"
"","","","","","psychophysics","104","236024","0.0-9.0-0.0-0.22","793","","j","","","","","","","","","","","","","key","j","6.943738351254428","960","536","f","false","img/S_ambi40.png","好人","prac_word_first",""
"","","","","","html-keyboard-response","105","236326","0.0-9.0-0.0-1.22","null","<span style='color:red; font-size: 70px;'>错误! </span>","null","","","","","","","","","","","","","","","","","","","","","","","feedback_test"
"","","","","","psychophysics","106","238372","0.0-9.0-0.0-0.23","894","","f","","","","","","","","","","","","","key","f","6.94438775510212","960","536","f","true","img/C_ambi40.png","常人","prac_word_first",""
"","","","","","html-keyboard-response","107","238673","0.0-9.0-0.0-1.23","null","<span style='color:GreenYellow; font-size: 70px;'>正确! </span>","null","","","","","","","","","","","","","","","","","","","","","","","feedback_test"
"","","","","","html-keyboard-response","108","239803","0.0-10.0","1129","<style>.context{color:white; font-size: 35px; line-height:40px}</style>                              <div><p class='context'>您正确回答了75% 的试次。</p><p class='context'>您的平均反应时为900毫秒。</p><p class='context'>恭喜您完成练习。按任意键进入<span style='color: yellow;'>图形和文字同时呈现条件</span>的练习。</p></div>"," ","","","","","","","","","","","","","","","","","","","","","","",""
"","","","","","psychophysics","109","241564","0.0-11.0-0.0-0.0","757","","j","","","","","","","","","","","","","key","j","6.944634920634959","960","536","f","false","img/T_ambi40.png","坏人","prac_simultaneous",""
"","","","","","html-keyboard-response","110","241865","0.0-11.0-0.0-1.0","null","<span style='color:red; font-size: 70px;'>错误! </span>","null","","","","","","","","","","","","","","","","","","","","","","","feedback_test"
"","","","","","psychophysics","111","244172","0.0-11.0-0.0-0.1","1306","","j","","","","","","","","","","","","","key","j","6.944398791540845","960","536","j","true","img/T_ambi40.png","好人","prac_simultaneous",""
"","","","","","html-keyboard-response","112","244474","0.0-11.0-0.0-1.1","null","<span style='color:GreenYellow; font-size: 70px;'>正确! </span>","null","","","","","","","","","","","","","","","","","","","","","","","feedback_test"
"","","","","","psychophysics","113","246873","0.0-11.0-0.0-0.2","1399","","j","","","","","","","","","","","","","key","j","6.943758720930207","960","536","j","true","img/C_ambi40.png","坏人","prac_simultaneous",""
"","","","","","html-keyboard-response","114","247175","0.0-11.0-0.0-1.2","null","<span style='color:GreenYellow; font-size: 70px;'>正确! </span>","null","","","","","","","","","","","","","","","","","","","","","","","feedback_test"
"","","","","","psychophysics","115","248995","0.0-11.0-0.0-0.3","820","","f","","","","","","","","","","","","","key","f","6.944134099616837","960","536","j","false","img/S_ambi40.png","坏人","prac_simultaneous",""
"","","","","","html-keyboard-response","116","249297","0.0-11.0-0.0-1.3","null","<span style='color:red; font-size: 70px;'>错误! </span>","null","","","","","","","","","","","","","","","","","","","","","","","feedback_test"
"","","","","","psychophysics","117","251357","0.0-11.0-0.0-0.4","1058","","j","","","","","","","","","","","","","key","j","6.944195945945909","960","536","f","false","img/S_ambi40.png","好人","prac_simultaneous",""
"","","","","","html-keyboard-response","118","251658","0.0-11.0-0.0-1.4","null","<span style='color:red; font-size: 70px;'>错误! </span>","null","","","","","","","","","","","","","","","","","","","","","","","feedback_test"
"","","","","","psychophysics","119","253427","0.0-11.0-0.0-0.5","768","","f","","","","","","","","","","","","","key","f","6.944562992125962","960","536","j","false","img/C_ambi40.png","好人","prac_simultaneous",""
"","","","","","html-keyboard-response","120","253729","0.0-11.0-0.0-1.5","null","<span style='color:red; font-size: 70px;'>错误! </span>","null","","","","","","","","","","","","","","","","","","","","","","","feedback_test"
"","","","","","psychophysics","121","255681","0.0-11.0-0.0-0.6","950","","f","","","","","","","","","","","","","key","f","6.94409642857146","960","536","j","false","img/T_ambi40.png","常人","prac_simultaneous",""
"","","","","","html-keyboard-response","122","255983","0.0-11.0-0.0-1.6","null","<span style='color:red; font-size: 70px;'>错误! </span>","null","","","","","","","","","","","","","","","","","","","","","","","feedback_test"
"","","","","","psychophysics","123","257941","0.0-11.0-0.0-0.7","957","","j","","","","","","","","","","","","","key","j","6.944120996441316","960","536","f","false","img/S_ambi40.png","好人","prac_simultaneous",""
"","","","","","html-keyboard-response","124","258242","0.0-11.0-0.0-1.7","null","<span style='color:red; font-size: 70px;'>错误! </span>","null","","","","","","","","","","","","","","","","","","","","","","","feedback_test"
"","","","","","psychophysics","125","260076","0.0-11.0-0.0-0.8","833","","j","","","","","","","","","","","","","key","j","6.94422813688211","960","536","f","false","img/T_ambi40.png","坏人","prac_simultaneous",""
"","","","","","html-keyboard-response","126","260377","0.0-11.0-0.0-1.8","null","<span style='color:red; font-size: 70px;'>错误! </span>","null","","","","","","","","","","","","","","","","","","","","","","","feedback_test"
"","","","","","psychophysics","127","262016","0.0-11.0-0.0-0.9","638","","f","","","","","","","","","","","","","key","f","6.944182978723535","960","536","f","true","img/C_ambi40.png","常人","prac_simultaneous",""
"","","","","","html-keyboard-response","128","262318","0.0-11.0-0.0-1.9","null","<span style='color:GreenYellow; font-size: 70px;'>正确! </span>","null","","","","","","","","","","","","","","","","","","","","","","","feedback_test"
"","","","","","psychophysics","129","264821","0.0-11.0-0.0-0.10","null","","null","","","","","","","","","","","","","key","null","6.944694444444516","960","536","f","false","img/C_ambi40.png","常人","prac_simultaneous",""
"","","","","","html-keyboard-response","130","265122","0.0-11.0-0.0-1.10","null","<span class='add_' style='color:yellow; font-size: 70px;'> 太慢! </span>","null","","","","","","","","","","","","","","","","","","","","","","","feedback_test"
"","","","","","psychophysics","131","266943","0.0-11.0-0.0-0.11","819","","j","","","","","","","","","","","","","key","j","6.944264367816237","960","536","j","true","img/S_ambi40.png","常人","prac_simultaneous",""
"","","","","","html-keyboard-response","132","267244","0.0-11.0-0.0-1.11","null","<span style='color:GreenYellow; font-size: 70px;'>正确! </span>","null","","","","","","","","","","","","","","","","","","","","","","","feedback_test"
"","","","","","psychophysics","133","269115","0.0-11.0-0.0-0.12","868","","f","","","","","","","","","","","","","key","f","6.944776119403029","960","536","f","true","img/S_ambi40.png","好人","prac_simultaneous",""
"","","","","","html-keyboard-response","134","269416","0.0-11.0-0.0-1.12","null","<span style='color:GreenYellow; font-size: 70px;'>正确! </span>","null","","","","","","","","","","","","","","","","","","","","","","","feedback_test"
"","","","","","psychophysics","135","271708","0.0-11.0-0.0-0.13","1291","","j","","","","","","","","","","","","","key","j","6.942801829268297","960","536","j","true","img/C_ambi40.png","好人","prac_simultaneous",""
"","","","","","html-keyboard-response","136","272009","0.0-11.0-0.0-1.13","null","<span style='color:GreenYellow; font-size: 70px;'>正确! </span>","null","","","","","","","","","","","","","","","","","","","","","","","feedback_test"
"","","","","","psychophysics","137","274013","0.0-11.0-0.0-0.14","1003","","f","","","","","","","","","","","","","key","f","6.944756097561041","960","536","f","true","img/S_ambi40.png","好人","prac_simultaneous",""
"","","","","","html-keyboard-response","138","274314","0.0-11.0-0.0-1.14","null","<span style='color:GreenYellow; font-size: 70px;'>正确! </span>","null","","","","","","","","","","","","","","","","","","","","","","","feedback_test"
"","","","","","psychophysics","139","276016","0.0-11.0-0.0-0.15","700","","f","","","","","","","","","","","","","key","f","6.9438524590163455","960","536","f","true","img/C_ambi40.png","常人","prac_simultaneous",""
"","","","","","html-keyboard-response","140","276317","0.0-11.0-0.0-1.15","null","<span style='color:GreenYellow; font-size: 70px;'>正确! </span>","null","","","","","","","","","","","","","","","","","","","","","","","feedback_test"
"","","","","","psychophysics","141","277927","0.0-11.0-0.0-0.16","609","","f","","","","","","","","","","","","","key","f","6.9443463203464475","960","536","f","true","img/C_ambi40.png","常人","prac_simultaneous",""
"","","","","","html-keyboard-response","142","278227","0.0-11.0-0.0-1.16","null","<span style='color:GreenYellow; font-size: 70px;'>正确! </span>","null","","","","","","","","","","","","","","","","","","","","","","","feedback_test"
"","","","","","psychophysics","143","280187","0.0-11.0-0.0-0.17","959","","j","","","","","","","","","","","","","key","j","6.944594306049966","960","536","f","false","img/T_ambi40.png","坏人","prac_simultaneous",""
"","","","","","html-keyboard-response","144","280488","0.0-11.0-0.0-1.17","null","<span style='color:red; font-size: 70px;'>错误! </span>","null","","","","","","","","","","","","","","","","","","","","","","","feedback_test"
"","","","","","psychophysics","145","282786","0.0-11.0-0.0-0.18","1295","","f","","","","","","","","","","","","","key","f","6.944239393939355","960","536","j","false","img/S_ambi40.png","常人","prac_simultaneous",""
"","","","","","html-keyboard-response","146","283087","0.0-11.0-0.0-1.18","null","<span style='color:red; font-size: 70px;'>错误! </span>","null","","","","","","","","","","","","","","","","","","","","","","","feedback_test"
"","","","","","psychophysics","147","284845","0.0-11.0-0.0-0.19","756","","j","","","","","","","","","","","","","key","j","6.9447261904761755","960","536","j","true","img/S_ambi40.png","坏人","prac_simultaneous",""
"","","","","","html-keyboard-response","148","285147","0.0-11.0-0.0-1.19","null","<span style='color:GreenYellow; font-size: 70px;'>正确! </span>","null","","","","","","","","","","","","","","","","","","","","","","","feedback_test"
"","","","","","psychophysics","149","287295","0.0-11.0-0.0-0.20","1146","","j","","","","","","","","","","","","","key","j","6.944792207792158","960","536","f","false","img/T_ambi40.png","坏人","prac_simultaneous",""
"","","","","","html-keyboard-response","150","287596","0.0-11.0-0.0-1.20","null","<span style='color:red; font-size: 70px;'>错误! </span>","null","","","","","","","","","","","","","","","","","","","","","","","feedback_test"
"","","","","","psychophysics","151","289939","0.0-11.0-0.0-0.21","1342","","j","","","","","","","","","","","","","key","j","6.941517857142788","960","536","j","true","img/C_ambi40.png","坏人","prac_simultaneous",""
"","","","","","html-keyboard-response","152","290240","0.0-11.0-0.0-1.21","null","<span style='color:GreenYellow; font-size: 70px;'>正确! </span>","null","","","","","","","","","","","","","","","","","","","","","","","feedback_test"
"","","","","","psychophysics","153","292183","0.0-11.0-0.0-0.22","942","","j","","","","","","","","","","","","","key","j","6.9447419354838145","960","536","j","true","img/T_ambi40.png","好人","prac_simultaneous",""
"","","","","","html-keyboard-response","154","292484","0.0-11.0-0.0-1.22","null","<span style='color:GreenYellow; font-size: 70px;'>正确! </span>","null","","","","","","","","","","","","","","","","","","","","","","","feedback_test"
"","","","","","psychophysics","155","294986","0.0-11.0-0.0-0.23","null","","null","","","","","","","","","","","","","key","null","6.944295264623896","960","536","j","false","img/T_ambi40.png","常人","prac_simultaneous",""
"","","","","","html-keyboard-response","156","295287","0.0-11.0-0.0-1.23","null","<span class='add_' style='color:yellow; font-size: 70px;'> 太慢! </span>","null","","","","","","","","","","","","","","","","","","","","","","","feedback_test"
"","","","","","html-keyboard-response","157","296201","0.0-11.0-1.0-0.0","914","<style>.context{color:white; font-size: 35px; line-height:40px}</style>                              <div><p class='context'>您正确回答了50% 的试次。</p><p class='context'>您的平均反应时为973毫秒。</p>"," ","","","","","","","","","","","","","","","","","","","","","","",""
"","","","","","instructions","158","309295","0.0-11.0-1.0-1.0","13091","","","","","","","","","","","","","","[{""page_index"":0,""viewing_time"":4367},{""page_index"":1,""viewing_time"":7374},{""page_index"":2,""viewing_time"":1350}]","","","","","","","","","","",""
"","","","","","psychophysics","159","311444","0.0-11.1-0.1-0.24","1147","","j","","","","","","","","","","","","","key","j","6.944123376623309","960","536","j","true","img/T_ambi40.png","好人","prac_simultaneous",""
"","","","","","html-keyboard-response","160","311745","0.0-11.1-0.1-1.24","null","<span style='color:GreenYellow; font-size: 70px;'>正确! </span>","null","","","","","","","","","","","","","","","","","","","","","","","feedback_test"
"","","","","","psychophysics","161","313351","0.0-11.1-0.1-0.25","604","","f","","","","","","","","","","","","","key","f","6.944239130434732","960","536","f","true","img/C_ambi40.png","常人","prac_simultaneous",""
"","","","","","html-keyboard-response","162","313651","0.0-11.1-0.1-1.25","null","<span style='color:GreenYellow; font-size: 70px;'>正确! </span>","null","","","","","","","","","","","","","","","","","","","","","","","feedback_test"
"","","","","","psychophysics","163","315785","0.0-11.1-0.1-0.26","1134","","j","","","","","","","","","","","","","key","j","6.94444951140064","960","536","j","true","img/T_ambi40.png","常人","prac_simultaneous",""
"","","","","","html-keyboard-response","164","316087","0.0-11.1-0.1-1.26","null","<span style='color:GreenYellow; font-size: 70px;'>正确! </span>","null","","","","","","","","","","","","","","","","","","","","","","","feedback_test"
"","","","","","psychophysics","165","317735","0.0-11.1-0.1-0.27","647","","f","","","","","","","","","","","","","key","f","6.943983050847576","960","536","f","true","img/C_ambi40.png","常人","prac_simultaneous",""
"","","","","","html-keyboard-response","166","318035","0.0-11.1-0.1-1.27","null","<span style='color:GreenYellow; font-size: 70px;'>正确! </span>","null","","","","","","","","","","","","","","","","","","","","","","","feedback_test"
"","","","","","psychophysics","167","319919","0.0-11.1-0.1-0.28","883","","j","","","","","","","","","","","","","key","j","6.944262962962966","960","536","f","false","img/T_ambi40.png","坏人","prac_simultaneous",""
"","","","","","html-keyboard-response","168","320220","0.0-11.1-0.1-1.28","null","<span style='color:red; font-size: 70px;'>错误! </span>","null","","","","","","","","","","","","","","","","","","","","","","","feedback_test"
"","","","","","psychophysics","169","322449","0.0-11.1-0.1-0.29","1228","","j","","","","","","","","","","","","","key","j","6.944565624999996","960","536","j","true","img/C_ambi40.png","好人","prac_simultaneous",""
"","","","","","html-keyboard-response","170","322751","0.0-11.1-0.1-1.29","null","<span style='color:GreenYellow; font-size: 70px;'>正确! </span>","null","","","","","","","","","","","","","","","","","","","","","","","feedback_test"
"","","","","","psychophysics","171","325148","0.0-11.1-0.1-0.30","1397","","j","","","","","","","","","","","","","key","j","6.944145348837273","960","536","j","true","img/S_ambi40.png","坏人","prac_simultaneous",""
"","","","","","html-keyboard-response","172","325449","0.0-11.1-0.1-1.30","null","<span style='color:GreenYellow; font-size: 70px;'>正确! </span>","null","","","","","","","","","","","","","","","","","","","","","","","feedback_test"
"","","","","","psychophysics","173","327086","0.0-11.1-0.1-0.31","635","","j","","","","","","","","","","","","","key","j","6.944536170212582","960","536","f","false","img/T_ambi40.png","坏人","prac_simultaneous",""
"","","","","","html-keyboard-response","174","327387","0.0-11.1-0.1-1.31","null","<span style='color:red; font-size: 70px;'>错误! </span>","null","","","","","","","","","","","","","","","","","","","","","","","feedback_test"
"","","","","","psychophysics","175","329888","0.0-11.1-0.1-0.32","null","","null","","","","","","","","","","","","","key","null","6.944348189415064","960","536","j","false","img/S_ambi40.png","常人","prac_simultaneous",""
"","","","","","html-keyboard-response","176","330190","0.0-11.1-0.1-1.32","null","<span class='add_' style='color:yellow; font-size: 70px;'> 太慢! </span>","null","","","","","","","","","","","","","","","","","","","","","","","feedback_test"
"","","","","","psychophysics","177","332016","0.0-11.1-0.1-0.33","824","","f","","","","","","","","","","","","","key","f","6.944309160305287","960","536","f","true","img/S_ambi40.png","好人","prac_simultaneous",""
"","","","","","html-keyboard-response","178","332317","0.0-11.1-0.1-1.33","null","<span style='color:GreenYellow; font-size: 70px;'>正确! </span>","null","","","","","","","","","","","","","","","","","","","","","","","feedback_test"
"","","","","","psychophysics","179","333897","0.0-11.1-0.1-0.34","578","","f","","","","","","","","","","","","","key","f","6.944255506608016","960","536","f","true","img/S_ambi40.png","好人","prac_simultaneous",""
"","","","","","html-keyboard-response","180","334198","0.0-11.1-0.1-1.34","null","<span style='color:GreenYellow; font-size: 70px;'>正确! </span>","null","","","","","","","","","","","","","","","","","","","","","","","feedback_test"
"","","","","","psychophysics","181","336205","0.0-11.1-0.1-0.35","1006","","f","","","","","","","","","","","","","key","f","6.9444201388889475","960","536","j","false","img/C_ambi40.png","坏人","prac_simultaneous",""
"","","","","","html-keyboard-response","182","336507","0.0-11.1-0.1-1.35","null","<span style='color:red; font-size: 70px;'>错误! </span>","null","","","","","","","","","","","","","","","","","","","","","","","feedback_test"
"","","","","","psychophysics","183","338414","0.0-11.1-0.1-0.36","905","","j","","","","","","","","","","","","","key","j","6.944329670329762","960","536","f","false","img/S_ambi40.png","好人","prac_simultaneous",""
"","","","","","html-keyboard-response","184","338715","0.0-11.1-0.1-1.36","null","<span style='color:red; font-size: 70px;'>错误! </span>","null","","","","","","","","","","","","","","","","","","","","","","","feedback_test"
"","","","","","psychophysics","185","340496","0.0-11.1-0.1-0.37","781","","f","","","","","","","","","","","","","key","f","6.944345098039062","960","536","f","true","img/T_ambi40.png","坏人","prac_simultaneous",""
"","","","","","html-keyboard-response","186","340798","0.0-11.1-0.1-1.37","null","<span style='color:GreenYellow; font-size: 70px;'>正确! </span>","null","","","","","","","","","","","","","","","","","","","","","","","feedback_test"
"","","","","","psychophysics","187","342591","0.0-11.1-0.1-0.38","793","","f","","","","","","","","","","","","","key","f","6.944315175097327","960","536","f","true","img/C_ambi40.png","常人","prac_simultaneous",""
"","","","","","html-keyboard-response","188","342892","0.0-11.1-0.1-1.38","null","<span style='color:GreenYellow; font-size: 70px;'>正确! </span>","null","","","","","","","","","","","","","","","","","","","","","","","feedback_test"
"","","","","","psychophysics","189","345374","0.0-11.1-0.1-0.39","1480","","j","","","","","","","","","","","","","key","j","6.944688202247215","960","536","f","false","img/T_ambi40.png","坏人","prac_simultaneous",""
"","","","","","html-keyboard-response","190","345674","0.0-11.1-0.1-1.39","null","<span style='color:red; font-size: 70px;'>错误! </span>","null","","","","","","","","","","","","","","","","","","","","","","","feedback_test"
"","","","","","psychophysics","191","347872","0.0-11.1-0.1-0.40","1197","","f","","","","","","","","","","","","","key","f","6.944479365079361","960","536","j","false","img/S_ambi40.png","常人","prac_simultaneous",""
"","","","","","html-keyboard-response","192","348174","0.0-11.1-0.1-1.40","null","<span style='color:red; font-size: 70px;'>错误! </span>","null","","","","","","","","","","","","","","","","","","","","","","","feedback_test"
"","","","","","psychophysics","193","350156","0.0-11.1-0.1-0.41","982","","j","","","","","","","","","","","","","key","j","6.944580985915488","960","536","j","true","img/C_ambi40.png","好人","prac_simultaneous",""
"","","","","","html-keyboard-response","194","350457","0.0-11.1-0.1-1.41","null","<span style='color:GreenYellow; font-size: 70px;'>正确! </span>","null","","","","","","","","","","","","","","","","","","","","","","","feedback_test"
"","","","","","psychophysics","195","352565","0.0-11.1-0.1-0.42","1107","","j","","","","","","","","","","","","","key","j","6.943543046357655","960","536","f","false","img/S_ambi40.png","好人","prac_simultaneous",""
"","","","","","html-keyboard-response","196","352866","0.0-11.1-0.1-1.42","null","<span style='color:red; font-size: 70px;'>错误! </span>","null","","","","","","","","","","","","","","","","","","","","","","","feedback_test"
"","","","","","psychophysics","197","355073","0.0-11.1-0.1-0.43","1207","","j","","","","","","","","","","","","","key","j","6.940813291139305","960","536","j","true","img/S_ambi40.png","坏人","prac_simultaneous",""
"","","","","","html-keyboard-response","198","355375","0.0-11.1-0.1-1.43","null","<span style='color:GreenYellow; font-size: 70px;'>正确! </span>","null","","","","","","","","","","","","","","","","","","","","","","","feedback_test"
"","","","","","psychophysics","199","357355","0.0-11.1-0.1-0.44","980","","f","","","","","","","","","","","","","key","f","6.943859154929515","960","536","j","false","img/T_ambi40.png","好人","prac_simultaneous",""
"","","","","","html-keyboard-response","200","357656","0.0-11.1-0.1-1.44","null","<span style='color:red; font-size: 70px;'>错误! </span>","null","","","","","","","","","","","","","","","","","","","","","","","feedback_test"
"","","","","","psychophysics","201","359473","0.0-11.1-0.1-0.45","815","","j","","","","","","","","","","","","","key","j","6.944302681992294","960","536","j","true","img/C_ambi40.png","坏人","prac_simultaneous",""
"","","","","","html-keyboard-response","202","359774","0.0-11.1-0.1-1.45","null","<span style='color:GreenYellow; font-size: 70px;'>正确! </span>","null","","","","","","","","","","","","","","","","","","","","","","","feedback_test"
"","","","","","psychophysics","203","361859","0.0-11.1-0.1-0.46","1084","","j","","","","","","","","","","","","","key","j","6.943802675585236","960","536","j","true","img/T_ambi40.png","常人","prac_simultaneous",""
"","","","","","html-keyboard-response","204","362160","0.0-11.1-0.1-1.46","null","<span style='color:GreenYellow; font-size: 70px;'>正确! </span>","null","","","","","","","","","","","","","","","","","","","","","","","feedback_test"
"","","","","","psychophysics","205","364341","0.0-11.1-0.1-0.47","1181","","f","","","","","","","","","","","","","key","f","6.944022364217413","960","536","f","true","img/C_ambi40.png","常人","prac_simultaneous",""
"","","","","","html-keyboard-response","206","364643","0.0-11.1-0.1-1.47","null","<span style='color:GreenYellow; font-size: 70px;'>正确! </span>","null","","","","","","","","","","","","","","","","","","","","","","","feedback_test"
"","","","","","html-keyboard-response","207","367536","0.0-12.0","2892","<style>.context{color:white; font-size: 35px; line-height:40px}</style>                              <div><p class='context'>您正确回答了63% 的试次。</p><p class='context'>您的平均反应时为960毫秒。</p><p class='context'>恭喜您完成练习。按任意键进入正式实验。</p><p class='footer' style='font-size: 35px; line-height:40px;'>请在进入正式实验实验之前将您的<span style='color: lightgreen;'>食指</span>放在电脑键盘的相应键位上进行按键。</p>"," ","","","","","","","","","","","","","","","","","","","","","","",""
"","","","","","html-keyboard-response","208","368380","0.0-13.0-0.0-0.0","841","
      <p>请您将手指放在按键上，准备进入呈现顺序为<span style='color: yellow;'>先图形后文字条件</span>的正式匹配任务</p>
      <p> <div style = ""color: green""><按任意键进入下一阶段的匹配任务></div></p>
      "," ","","","","","","","","","","","","","","","","","","","","","","",""
"","","","","","psychophysics","209","370622","0.0-13.0-0.0-1.0-0.0-0.0","1091","","j","","","","","","","","","","","","","key","j","6.944838006230546","960","536","j","true","img/C_ambi40.png","坏人","image_first",""
"","","","","","html-keyboard-response","210","370924","0.0-13.0-0.0-1.0-0.0-1.0","null","<span style='color:GreenYellow; font-size: 70px;'>正确! </span>","null","","","","","","","","","","","","","","","","","","","","","","","feedback_test"
"","","","","","psychophysics","211","373072","0.0-13.0-0.0-1.0-0.0-0.1","997","","j","","","","","","","","","","","","","key","j","6.9440162337663685","960","536","j","true","img/T_ambi40.png","好人","image_first",""
"","","","","","html-keyboard-response","212","373374","0.0-13.0-0.0-1.0-0.0-1.1","null","<span style='color:GreenYellow; font-size: 70px;'>正确! </span>","null","","","","","","","","","","","","","","","","","","","","","","","feedback_test"
"","","","","","psychophysics","213","375506","0.0-13.0-0.0-1.0-0.0-0.2","981","","f","","","","","","","","","","","","","key","f","6.944088235294128","960","536","j","false","img/S_ambi40.png","常人","image_first",""
"","","","","","html-keyboard-response","214","375808","0.0-13.0-0.0-1.0-0.0-1.2","null","<span style='color:red; font-size: 70px;'>错误! </span>","null","","","","","","","","","","","","","","","","","","","","","","","feedback_test"
"","","","","","psychophysics","215","377475","0.0-13.0-0.0-1.0-0.0-0.3","516","","f","","","","","","","","","","","","","key","f","6.944179916317929","960","536","f","true","img/C_ambi40.png","常人","image_first",""
"","","","","","html-keyboard-response","216","377776","0.0-13.0-0.0-1.0-0.0-1.3","null","<span style='color:GreenYellow; font-size: 70px;'>正确! </span>","null","","","","","","","","","","","","","","","","","","","","","","","feedback_test"
"","","","","","psychophysics","217","379529","0.0-13.0-0.0-1.0-0.0-0.4","602","","f","","","","","","","","","","","","","key","f","6.944410358565818","960","536","f","true","img/S_ambi40.png","好人","image_first",""
"","","","","","html-keyboard-response","218","379830","0.0-13.0-0.0-1.0-0.0-1.4","null","<span style='color:GreenYellow; font-size: 70px;'>正确! </span>","null","","","","","","","","","","","","","","","","","","","","","","","feedback_test"
"","","","","","psychophysics","219","381544","0.0-13.0-0.0-1.0-0.0-0.5","562","","j","","","","","","","","","","","","","key","j","6.94313061224482","960","536","j","true","img/T_ambi40.png","常人","image_first",""
"","","","","","html-keyboard-response","220","381846","0.0-13.0-0.0-1.0-0.0-1.5","null","<span style='color:GreenYellow; font-size: 70px;'>正确! </span>","null","","","","","","","","","","","","","","","","","","","","","","","feedback_test"
"","","","","","psychophysics","221","383817","0.0-13.0-0.0-1.0-0.0-0.6","820","","f","","","","","","","","","","","","","key","f","6.944230496454059","960","536","f","true","img/S_ambi40.png","好人","image_first",""
"","","","","","html-keyboard-response","222","384118","0.0-13.0-0.0-1.0-0.0-1.6","null","<span style='color:GreenYellow; font-size: 70px;'>正确! </span>","null","","","","","","","","","","","","","","","","","","","","","","","feedback_test"
"","","","","","psychophysics","223","386614","0.0-13.0-0.0-1.0-0.0-0.7","1344","","f","","","","","","","","","","","","","key","f","6.944416201117386","960","536","f","true","img/T_ambi40.png","坏人","image_first",""
"","","","","","html-keyboard-response","224","386916","0.0-13.0-0.0-1.0-0.0-1.7","null","<span style='color:GreenYellow; font-size: 70px;'>正确! </span>","null","","","","","","","","","","","","","","","","","","","","","","","feedback_test"
"","","","","","psychophysics","225","388937","0.0-13.0-0.0-1.0-0.0-0.8","870","","j","","","","","","","","","","","","","key","j","6.9441965517240725","960","536","j","true","img/C_ambi40.png","好人","image_first",""
"","","","","","html-keyboard-response","226","389238","0.0-13.0-0.0-1.0-0.0-1.8","null","<span style='color:GreenYellow; font-size: 70px;'>正确! </span>","null","","","","","","","","","","","","","","","","","","","","","","","feedback_test"
"","","","","","psychophysics","227","391523","0.0-13.0-0.0-1.0-0.0-0.9","1134","","j","","","","","","","","","","","","","key","j","6.944134146341395","960","536","f","false","img/T_ambi40.png","坏人","image_first",""
"","","","","","html-keyboard-response","228","391824","0.0-13.0-0.0-1.0-0.0-1.9","null","<span style='color:red; font-size: 70px;'>错误! </span>","null","","","","","","","","","","","","","","","","","","","","","","","feedback_test"
"","","","","","psychophysics","229","393754","0.0-13.0-0.0-1.0-0.0-0.10","780","","j","","","","","","","","","","","","","key","j","6.943391304347787","960","536","j","true","img/S_ambi40.png","坏人","image_first",""
"","","","","","html-keyboard-response","230","394056","0.0-13.0-0.0-1.0-0.0-1.10","null","<span style='color:GreenYellow; font-size: 70px;'>正确! </span>","null","","","","","","","","","","","","","","","","","","","","","","","feedback_test"
"","","","","","psychophysics","231","396584","0.0-13.0-0.0-1.0-0.0-0.11","1377","","f","","","","","","","","","","","","","key","f","6.944068870523377","960","536","f","true","img/C_ambi40.png","常人","image_first",""
"","","","","","html-keyboard-response","232","396885","0.0-13.0-0.0-1.0-0.0-1.11","null","<span style='color:GreenYellow; font-size: 70px;'>正确! </span>","null","","","","","","","","","","","","","","","","","","","","","","","feedback_test"
"","","","","","psychophysics","233","399145","0.0-13.0-0.0-1.0-0.0-0.12","1108","","j","","","","","","","","","","","","","key","j","6.944033846153985","960","536","j","true","img/S_ambi40.png","常人","image_first",""
"","","","","","html-keyboard-response","234","399446","0.0-13.0-0.0-1.0-0.0-1.12","null","<span style='color:GreenYellow; font-size: 70px;'>正确! </span>","null","","","","","","","","","","","","","","","","","","","","","","","feedback_test"
"","","","","","psychophysics","235","401482","0.0-13.0-0.0-1.0-0.0-0.13","883","","f","","","","","","","","","","","","","key","f","6.944578767123422","960","536","j","false","img/C_ambi40.png","好人","image_first",""
"","","","","","html-keyboard-response","236","401784","0.0-13.0-0.0-1.0-0.0-1.13","null","<span style='color:red; font-size: 70px;'>错误! </span>","null","","","","","","","","","","","","","","","","","","","","","","","feedback_test"
"","","","","","psychophysics","237","404063","0.0-13.0-0.0-1.0-0.0-0.14","1129","","j","","","","","","","","","","","","","key","j","6.9441223241590295","960","536","f","false","img/S_ambi40.png","好人","image_first",""
"","","","","","html-keyboard-response","238","404365","0.0-13.0-0.0-1.0-0.0-1.14","null","<span style='color:red; font-size: 70px;'>错误! </span>","null","","","","","","","","","","","","","","","","","","","","","","","feedback_test"
"","","","","","psychophysics","239","406466","0.0-13.0-0.0-1.0-0.0-0.15","948","","f","","","","","","","","","","","","","key","f","6.944126245847082","960","536","j","false","img/S_ambi40.png","坏人","image_first",""
"","","","","","html-keyboard-response","240","406766","0.0-13.0-0.0-1.0-0.0-1.15","null","<span style='color:red; font-size: 70px;'>错误! </span>","null","","","","","","","","","","","","","","","","","","","","","","","feedback_test"
"","","","","","psychophysics","241","408992","0.0-13.0-0.0-1.0-0.0-0.16","1074","","f","","","","","","","","","","","","","key","f","6.9440718750000086","960","536","f","true","img/T_ambi40.png","坏人","image_first",""
"","","","","","html-keyboard-response","242","409293","0.0-13.0-0.0-1.0-0.0-1.16","null","<span style='color:GreenYellow; font-size: 70px;'>正确! </span>","null","","","","","","","","","","","","","","","","","","","","","","","feedback_test"
"","","","","","psychophysics","243","411633","0.0-13.0-0.0-1.0-0.0-0.17","1190","","f","","","","","","","","","","","","","key","f","6.94425297619039","960","536","f","true","img/S_ambi40.png","好人","image_first",""
"","","","","","html-keyboard-response","244","411934","0.0-13.0-0.0-1.0-0.0-1.17","null","<span style='color:GreenYellow; font-size: 70px;'>正确! </span>","null","","","","","","","","","","","","","","","","","","","","","","","feedback_test"
"","","","","","psychophysics","245","413660","0.0-13.0-0.0-1.0-0.0-0.18","575","","j","","","","","","","","","","","","","key","j","6.94288663967604","960","536","j","true","img/T_ambi40.png","常人","image_first",""
"","","","","","html-keyboard-response","246","413962","0.0-13.0-0.0-1.0-0.0-1.18","null","<span style='color:GreenYellow; font-size: 70px;'>正确! </span>","null","","","","","","","","","","","","","","","","","","","","","","","feedback_test"
"","","","","","psychophysics","247","416094","0.0-13.0-0.0-1.0-0.0-0.19","981","","j","","","","","","","","","","","","","key","j","6.9432557377050115","960","536","j","true","img/C_ambi40.png","坏人","image_first",""
"","","","","","html-keyboard-response","248","416395","0.0-13.0-0.0-1.0-0.0-1.19","null","<span style='color:GreenYellow; font-size: 70px;'>正确! </span>","null","","","","","","","","","","","","","","","","","","","","","","","feedback_test"
"","","","","","psychophysics","249","418270","0.0-13.0-0.0-1.0-0.0-0.20","725","","f","","","","","","","","","","","","","key","f","6.944052044609709","960","536","f","true","img/T_ambi40.png","坏人","image_first",""
"","","","","","html-keyboard-response","250","418572","0.0-13.0-0.0-1.0-0.0-1.20","null","<span style='color:GreenYellow; font-size: 70px;'>正确! </span>","null","","","","","","","","","","","","","","","","","","","","","","","feedback_test"
"","","","","","psychophysics","251","421169","0.0-13.0-0.0-1.0-0.0-0.21","1446","","j","","","","","","","","","","","","","key","j","6.943483870967807","960","536","j","true","img/T_ambi40.png","好人","image_first",""
"","","","","","html-keyboard-response","252","421471","0.0-13.0-0.0-1.0-0.0-1.21","null","<span style='color:GreenYellow; font-size: 70px;'>正确! </span>","null","","","","","","","","","","","","","","","","","","","","","","","feedback_test"
"","","","","","psychophysics","253","423219","0.0-13.0-0.0-1.0-0.0-0.22","596","","f","","","","","","","","","","","","","key","f","6.944243999999948","960","536","f","true","img/C_ambi40.png","常人","image_first",""
"","","","","","html-keyboard-response","254","423520","0.0-13.0-0.0-1.0-0.0-1.22","null","<span style='color:GreenYellow; font-size: 70px;'>正确! </span>","null","","","","","","","","","","","","","","","","","","","","","","","feedback_test"
"","","","","","psychophysics","255","425111","0.0-13.0-0.0-1.0-0.0-0.23","440","","f","","","","","","","","","","","","","key","f","6.944214912280522","960","536","f","true","img/C_ambi40.png","常人","image_first",""
"","","","","","html-keyboard-response","256","425413","0.0-13.0-0.0-1.0-0.0-1.23","null","<span style='color:GreenYellow; font-size: 70px;'>正确! </span>","null","","","","","","","","","","","","","","","","","","","","","","","feedback_test"
"","","","","","psychophysics","257","427237","0.0-13.0-0.0-1.0-0.0-0.24","671","","f","","","","","","","","","","","","","key","f","6.94361685823749","960","536","f","true","img/T_ambi40.png","坏人","image_first",""
"","","","","","html-keyboard-response","258","427539","0.0-13.0-0.0-1.0-0.0-1.24","null","<span style='color:GreenYellow; font-size: 70px;'>正确! </span>","null","","","","","","","","","","","","","","","","","","","","","","","feedback_test"
"","","","","","psychophysics","259","429528","0.0-13.0-0.0-1.0-0.0-0.25","837","","f","","","","","","","","","","","","","key","f","6.944221052631589","960","536","f","true","img/T_ambi40.png","坏人","image_first",""
"","","","","","html-keyboard-response","260","429829","0.0-13.0-0.0-1.0-0.0-1.25","null","<span style='color:GreenYellow; font-size: 70px;'>正确! </span>","null","","","","","","","","","","","","","","","","","","","","","","","feedback_test"
"","","","","","psychophysics","261","431884","0.0-13.0-0.0-1.0-0.0-0.26","905","","j","","","","","","","","","","","","","key","j","6.944633898305138","960","536","j","true","img/C_ambi40.png","好人","image_first",""
"","","","","","html-keyboard-response","262","432186","0.0-13.0-0.0-1.0-0.0-1.26","null","<span style='color:GreenYellow; font-size: 70px;'>正确! </span>","null","","","","","","","","","","","","","","","","","","","","","","","feedback_test"
"","","","","","psychophysics","263","434298","0.0-13.0-0.0-1.0-0.0-0.27","961","","f","","","","","","","","","","","","","key","f","6.9443630363036055","960","536","j","false","img/T_ambi40.png","好人","image_first",""
"","","","","","html-keyboard-response","264","434600","0.0-13.0-0.0-1.0-0.0-1.27","null","<span style='color:red; font-size: 70px;'>错误! </span>","null","","","","","","","","","","","","","","","","","","","","","","","feedback_test"
"","","","","","psychophysics","265","436925","0.0-13.0-0.0-1.0-0.0-0.28","1174","","j","","","","","","","","","","","","","key","j","6.9421261261261344","960","536","j","true","img/S_ambi40.png","常人","image_first",""
"","","","","","html-keyboard-response","266","437226","0.0-13.0-0.0-1.0-0.0-1.28","null","<span style='color:GreenYellow; font-size: 70px;'>正确! </span>","null","","","","","","","","","","","","","","","","","","","","","","","feedback_test"
"","","","","","psychophysics","267","439339","0.0-13.0-0.0-1.0-0.0-0.29","962","","j","","","","","","","","","","","","","key","j","6.944320132013252","960","536","j","true","img/S_ambi40.png","坏人","image_first",""
"","","","","","html-keyboard-response","268","439640","0.0-13.0-0.0-1.0-0.0-1.29","null","<span style='color:GreenYellow; font-size: 70px;'>正确! </span>","null","","","","","","","","","","","","","","","","","","","","","","","feedback_test"
"","","","","","psychophysics","269","441455","0.0-13.0-0.0-1.0-0.0-0.30","664","","j","","","","","","","","","","","","","key","j","6.944965384615353","960","536","j","true","img/C_ambi40.png","坏人","image_first",""
"","","","","","html-keyboard-response","270","441756","0.0-13.0-0.0-1.0-0.0-1.30","null","<span style='color:GreenYellow; font-size: 70px;'>正确! </span>","null","","","","","","","","","","","","","","","","","","","","","","","feedback_test"
"","","","","","psychophysics","271","443586","0.0-13.0-0.0-1.0-0.0-0.31","679","","j","","","","","","","","","","","","","key","j","6.944618320610651","960","536","j","true","img/T_ambi40.png","常人","image_first",""
"","","","","","html-keyboard-response","272","443887","0.0-13.0-0.0-1.0-0.0-1.31","null","<span style='color:GreenYellow; font-size: 70px;'>正确! </span>","null","","","","","","","","","","","","","","","","","","","","","","","feedback_test"
"","","","","","psychophysics","273","445792","0.0-13.0-0.0-1.0-0.0-0.32","753","","f","","","","","","","","","","","","","key","f","6.944238095238102","960","536","f","true","img/C_ambi40.png","常人","image_first",""
"","","","","","html-keyboard-response","274","446093","0.0-13.0-0.0-1.0-0.0-1.32","null","<span style='color:GreenYellow; font-size: 70px;'>正确! </span>","null","","","","","","","","","","","","","","","","","","","","","","","feedback_test"
"","","","","","psychophysics","275","448133","0.0-13.0-0.0-1.0-0.0-0.33","889","","f","","","","","","","","","","","","","key","f","6.940510273972655","960","536","f","true","img/S_ambi40.png","好人","image_first",""
"","","","","","html-keyboard-response","276","448434","0.0-13.0-0.0-1.0-0.0-1.33","null","<span style='color:GreenYellow; font-size: 70px;'>正确! </span>","null","","","","","","","","","","","","","","","","","","","","","","","feedback_test"
"","","","","","psychophysics","277","450687","0.0-13.0-0.0-1.0-0.0-0.34","1102","","f","","","","","","","","","","","","","key","f","6.944173374612983","960","536","f","true","img/C_ambi40.png","常人","image_first",""
"","","","","","html-keyboard-response","278","450987","0.0-13.0-0.0-1.0-0.0-1.34","null","<span style='color:GreenYellow; font-size: 70px;'>正确! </span>","null","","","","","","","","","","","","","","","","","","","","","","","feedback_test"
"","","","","","psychophysics","279","452999","0.0-13.0-0.0-1.0-0.0-0.35","860","","j","","","","","","","","","","","","","key","j","6.944024221453402","960","536","f","false","img/S_ambi40.png","好人","image_first",""
"","","","","","html-keyboard-response","280","453301","0.0-13.0-0.0-1.0-0.0-1.35","null","<span style='color:red; font-size: 70px;'>错误! </span>","null","","","","","","","","","","","","","","","","","","","","","","","feedback_test"
"","","","","","psychophysics","281","455224","0.0-13.0-0.0-1.0-0.0-0.36","771","","f","","","","","","","","","","","","","key","f","6.9443043478259705","960","536","f","true","img/C_ambi40.png","常人","image_first",""
"","","","","","html-keyboard-response","282","455525","0.0-13.0-0.0-1.0-0.0-1.36","null","<span style='color:GreenYellow; font-size: 70px;'>正确! </span>","null","","","","","","","","","","","","","","","","","","","","","","","feedback_test"
"","","","","","psychophysics","283","457570","0.0-13.0-0.0-1.0-0.0-0.37","894","","f","","","","","","","","","","","","","key","f","6.944232081911374","960","536","f","true","img/T_ambi40.png","坏人","image_first",""
"","","","","","html-keyboard-response","284","457872","0.0-13.0-0.0-1.0-0.0-1.37","null","<span style='color:GreenYellow; font-size: 70px;'>正确! </span>","null","","","","","","","","","","","","","","","","","","","","","","","feedback_test"
"","","","","","psychophysics","285","459778","0.0-13.0-0.0-1.0-0.0-0.38","754","","f","","","","","","","","","","","","","key","f","6.944216117216146","960","536","f","true","img/C_ambi40.png","常人","image_first",""
"","","","","","html-keyboard-response","286","460080","0.0-13.0-0.0-1.0-0.0-1.38","null","<span style='color:GreenYellow; font-size: 70px;'>正确! </span>","null","","","","","","","","","","","","","","","","","","","","","","","feedback_test"
"","","","","","psychophysics","287","462058","0.0-13.0-0.0-1.0-0.0-0.39","828","","f","","","","","","","","","","","","","key","f","6.944431095406275","960","536","j","false","img/S_ambi40.png","常人","image_first",""
"","","","","","html-keyboard-response","288","462359","0.0-13.0-0.0-1.0-0.0-1.39","null","<span style='color:red; font-size: 70px;'>错误! </span>","null","","","","","","","","","","","","","","","","","","","","","","","feedback_test"
"","","","","","psychophysics","289","464435","0.0-13.0-0.0-1.0-0.0-0.40","925","","j","","","","","","","","","","","","","key","j","6.944177852348962","960","536","j","true","img/T_ambi40.png","常人","image_first",""
"","","","","","html-keyboard-response","290","464736","0.0-13.0-0.0-1.0-0.0-1.40","null","<span style='color:GreenYellow; font-size: 70px;'>正确! </span>","null","","","","","","","","","","","","","","","","","","","","","","","feedback_test"
"","","","","","psychophysics","291","466849","0.0-13.0-0.0-1.0-0.0-0.41","961","","j","","","","","","","","","","","","","key","j","6.944554455445583","960","536","j","true","img/T_ambi40.png","好人","image_first",""
"","","","","","html-keyboard-response","292","467150","0.0-13.0-0.0-1.0-0.0-1.41","null","<span style='color:GreenYellow; font-size: 70px;'>正确! </span>","null","","","","","","","","","","","","","","","","","","","","","","","feedback_test"
"","","","","","psychophysics","293","469229","0.0-13.0-0.0-1.0-0.0-0.42","928","","j","","","","","","","","","","","","","key","j","6.944241610738322","960","536","j","true","img/S_ambi40.png","坏人","image_first",""
"","","","","","html-keyboard-response","294","469531","0.0-13.0-0.0-1.0-0.0-1.42","null","<span style='color:GreenYellow; font-size: 70px;'>正确! </span>","null","","","","","","","","","","","","","","","","","","","","","","","feedback_test"
"","","","","","psychophysics","295","471542","0.0-13.0-0.0-1.0-0.0-0.43","860","","j","","","","","","","","","","","","","key","j","6.942489583333251","960","536","j","true","img/C_ambi40.png","好人","image_first",""
"","","","","","html-keyboard-response","296","471843","0.0-13.0-0.0-1.0-0.0-1.43","null","<span style='color:GreenYellow; font-size: 70px;'>正确! </span>","null","","","","","","","","","","","","","","","","","","","","","","","feedback_test"
"","","","","","psychophysics","297","473966","0.0-13.0-0.0-1.0-0.0-0.44","971","","j","","","","","","","","","","","","","key","j","6.943483552631446","960","536","j","true","img/C_ambi40.png","坏人","image_first",""
"","","","","","html-keyboard-response","298","474267","0.0-13.0-0.0-1.0-0.0-1.44","null","<span style='color:GreenYellow; font-size: 70px;'>正确! </span>","null","","","","","","","","","","","","","","","","","","","","","","","feedback_test"
"","","","","","psychophysics","299","476367","0.0-13.0-0.0-1.0-0.0-0.45","949","","f","","","","","","","","","","","","","key","f","6.943880398671121","960","536","f","true","img/T_ambi40.png","坏人","image_first",""
"","","","","","html-keyboard-response","300","476670","0.0-13.0-0.0-1.0-0.0-1.45","null","<span style='color:GreenYellow; font-size: 70px;'>正确! </span>","null","","","","","","","","","","","","","","","","","","","","","","","feedback_test"
"","","","","","psychophysics","301","478797","0.0-13.0-0.0-1.0-0.0-0.46","976","","f","","","","","","","","","","","","","key","f","6.942255737704843","960","536","f","true","img/S_ambi40.png","好人","image_first",""
"","","","","","html-keyboard-response","302","479098","0.0-13.0-0.0-1.0-0.0-1.46","null","<span style='color:GreenYellow; font-size: 70px;'>正确! </span>","null","","","","","","","","","","","","","","","","","","","","","","","feedback_test"
"","","","","","psychophysics","303","481594","0.0-13.0-0.0-1.0-0.0-0.47","1344","","f","","","","","","","","","","","","","key","f","6.944418994413283","960","536","f","true","img/S_ambi40.png","好人","image_first",""
"","","","","","html-keyboard-response","304","481896","0.0-13.0-0.0-1.0-0.0-1.47","null","<span style='color:GreenYellow; font-size: 70px;'>正确! </span>","null","","","","","","","","","","","","","","","","","","","","","","","feedback_test"
"","","","","","psychophysics","305","483585","0.0-13.0-0.0-1.0-0.0-0.48","538","","f","","","","","","","","","","","","","key","f","6.944570247933926","960","536","f","true","img/C_ambi40.png","常人","image_first",""
"","","","","","html-keyboard-response","306","483887","0.0-13.0-0.0-1.0-0.0-1.48","null","<span style='color:GreenYellow; font-size: 70px;'>正确! </span>","null","","","","","","","","","","","","","","","","","","","","","","","feedback_test"
"","","","","","psychophysics","307","485778","0.0-13.0-0.0-1.0-0.0-0.49","739","","f","","","","","","","","","","","","","key","f","6.9447564575645035","960","536","f","true","img/T_ambi40.png","坏人","image_first",""
"","","","","","html-keyboard-response","308","486080","0.0-13.0-0.0-1.0-0.0-1.49","null","<span style='color:GreenYellow; font-size: 70px;'>正确! </span>","null","","","","","","","","","","","","","","","","","","","","","","","feedback_test"
"","","","","","psychophysics","309","488256","0.0-13.0-0.0-1.0-0.0-0.50","1025","","j","","","","","","","","","","","","","key","j","6.943900641025744","960","536","j","true","img/S_ambi40.png","坏人","image_first",""
"","","","","","html-keyboard-response","310","488557","0.0-13.0-0.0-1.0-0.0-1.50","null","<span style='color:GreenYellow; font-size: 70px;'>正确! </span>","null","","","","","","","","","","","","","","","","","","","","","","","feedback_test"
"","","","","","psychophysics","311","490695","0.0-13.0-0.0-1.0-0.0-0.51","986","","j","","","","","","","","","","","","","key","j","6.944355048859797","960","536","j","true","img/C_ambi40.png","坏人","image_first",""
"","","","","","html-keyboard-response","312","490996","0.0-13.0-0.0-1.0-0.0-1.51","null","<span style='color:GreenYellow; font-size: 70px;'>正确! </span>","null","","","","","","","","","","","","","","","","","","","","","","","feedback_test"
"","","","","","psychophysics","313","493508","0.0-13.0-0.0-1.0-0.0-0.52","1360","","f","","","","","","","","","","","","","key","f","6.944241666666737","960","536","j","false","img/C_ambi40.png","好人","image_first",""
"","","","","","html-keyboard-response","314","493810","0.0-13.0-0.0-1.0-0.0-1.52","null","<span style='color:red; font-size: 70px;'>错误! </span>","null","","","","","","","","","","","","","","","","","","","","","","","feedback_test"
"","","","","","psychophysics","315","495943","0.0-13.0-0.0-1.0-0.0-0.53","983","","f","","","","","","","","","","","","","key","f","6.944349673202488","960","536","f","true","img/C_ambi40.png","常人","image_first",""
"","","","","","html-keyboard-response","316","496245","0.0-13.0-0.0-1.0-0.0-1.53","null","<span style='color:GreenYellow; font-size: 70px;'>正确! </span>","null","","","","","","","","","","","","","","","","","","","","","","","feedback_test"
"","","","","","psychophysics","317","498009","0.0-13.0-0.0-1.0-0.0-0.54","613","","j","","","","","","","","","","","","","key","j","6.944134387351699","960","536","j","true","img/S_ambi40.png","常人","image_first",""
"","","","","","html-keyboard-response","318","498311","0.0-13.0-0.0-1.0-0.0-1.54","null","<span style='color:GreenYellow; font-size: 70px;'>正确! </span>","null","","","","","","","","","","","","","","","","","","","","","","","feedback_test"
"","","","","","psychophysics","319","500408","0.0-13.0-0.0-1.0-0.0-0.55","946","","j","","","","","","","","","","","","","key","j","6.9440332225912975","960","536","f","false","img/S_ambi40.png","好人","image_first",""
"","","","","","html-keyboard-response","320","500710","0.0-13.0-0.0-1.0-0.0-1.55","null","<span style='color:red; font-size: 70px;'>错误! </span>","null","","","","","","","","","","","","","","","","","","","","","","","feedback_test"
"","","","","","psychophysics","321","502531","0.0-13.0-0.0-1.0-0.0-0.56","670","","f","","","","","","","","","","","","","key","f","6.944199233716425","960","536","f","true","img/T_ambi40.png","坏人","image_first",""
"","","","","","html-keyboard-response","322","502833","0.0-13.0-0.0-1.0-0.0-1.56","null","<span style='color:GreenYellow; font-size: 70px;'>正确! </span>","null","","","","","","","","","","","","","","","","","","","","","","","feedback_test"
"","","","","","psychophysics","323","504973","0.0-13.0-0.0-1.0-0.0-0.57","989","","j","","","","","","","","","","","","","key","j","6.94458631921828","960","536","j","true","img/T_ambi40.png","好人","image_first",""
"","","","","","html-keyboard-response","324","505274","0.0-13.0-0.0-1.0-0.0-1.57","null","<span style='color:GreenYellow; font-size: 70px;'>正确! </span>","null","","","","","","","","","","","","","","","","","","","","","","","feedback_test"
"","","","","","psychophysics","325","507271","0.0-13.0-0.0-1.0-0.0-0.58","847","","j","","","","","","","","","","","","","key","j","6.944223776223811","960","536","j","true","img/T_ambi40.png","常人","image_first",""
"","","","","","html-keyboard-response","326","507572","0.0-13.0-0.0-1.0-0.0-1.58","null","<span style='color:GreenYellow; font-size: 70px;'>正确! </span>","null","","","","","","","","","","","","","","","","","","","","","","","feedback_test"
"","","","","","psychophysics","327","510037","0.0-13.0-0.0-1.0-0.0-0.59","1314","","f","","","","","","","","","","","","","key","f","6.9406147308782185","960","536","f","true","img/S_ambi40.png","好人","image_first",""
"","","","","","html-keyboard-response","328","510338","0.0-13.0-0.0-1.0-0.0-1.59","null","<span style='color:GreenYellow; font-size: 70px;'>正确! </span>","null","","","","","","","","","","","","","","","","","","","","","","","feedback_test"
"","","","","","html-keyboard-response","329","511453","0.0-13.0-0.0-1.0-1.0","1113","<style>.context{color:white; font-size: 35px; line-height:40px}</style>                              <div><p class='context'>您正确回答了83% 的试次。</p><p class='context'>您的平均反应时为895毫秒。</p><p class='context'>请按任意键进入休息</p></div>"," ","","","","","","","","","","","","","","","","","","","","","","",""
"","","","","","html-button-response","330","513552","0.0-13.0-0.0-1.0-2.0","2098","
                      <p>您当前还剩余3组实验</p>
                      <p>现在是休息时间，当您结束休息后，您可以点击 结束休息 按钮 继续</p>
                      <p>建议休息时间还剩余<span id=""iii"">60</span>秒</p>","0","","","","","","","","","","","","","","","","","","","","","","",""
"","","","","","psychophysics","331","515403","0.0-13.0-0.0-1.0-0.1-0.60","699","","f","","","","","","","","","","","","","key","f","6.944343396226374","960","536","f","true","img/C_ambi40.png","常人","image_first",""
"","","","","","html-keyboard-response","332","515704","0.0-13.0-0.0-1.0-0.1-1.60","null","<span style='color:GreenYellow; font-size: 70px;'>正确! </span>","null","","","","","","","","","","","","","","","","","","","","","","","feedback_test"
"","","","","","psychophysics","333","517758","0.0-13.0-0.0-1.0-0.1-0.61","903","","j","","","","","","","","","","","","","key","j","6.943278911564702","960","536","j","true","img/T_ambi40.png","好人","image_first",""
"","","","","","html-keyboard-response","334","518060","0.0-13.0-0.0-1.0-0.1-1.61","null","<span style='color:GreenYellow; font-size: 70px;'>正确! </span>","null","","","","","","","","","","","","","","","","","","","","","","","feedback_test"
"","","","","","psychophysics","335","519750","0.0-13.0-0.0-1.0-0.1-0.62","540","","j","","","","","","","","","","","","","key","j","6.944400826446214","960","536","f","false","img/S_ambi40.png","好人","image_first",""
"","","","","","html-keyboard-response","336","520051","0.0-13.0-0.0-1.0-0.1-1.62","null","<span style='color:red; font-size: 70px;'>错误! </span>","null","","","","","","","","","","","","","","","","","","","","","","","feedback_test"
"","","","","","psychophysics","337","521777","0.0-13.0-0.0-1.0-0.1-0.63","576","","f","","","","","","","","","","","","","key","f","6.939720647773415","960","536","f","true","img/C_ambi40.png","常人","image_first",""
"","","","","","html-keyboard-response","338","522078","0.0-13.0-0.0-1.0-0.1-1.63","null","<span style='color:GreenYellow; font-size: 70px;'>正确! </span>","null","","","","","","","","","","","","","","","","","","","","","","","feedback_test"
"","","","","","psychophysics","339","524138","0.0-13.0-0.0-1.0-0.1-0.64","908","","f","","","","","","","","","","","","","key","f","6.944256756756757","960","536","f","true","img/T_ambi40.png","坏人","image_first",""
"","","","","","html-keyboard-response","340","524440","0.0-13.0-0.0-1.0-0.1-1.64","null","<span style='color:GreenYellow; font-size: 70px;'>正确! </span>","null","","","","","","","","","","","","","","","","","","","","","","","feedback_test"
"","","","","","psychophysics","341","526480","0.0-13.0-0.0-1.0-0.1-0.65","889","","f","","","","","","","","","","","","","key","f","6.943630136986429","960","536","f","true","img/T_ambi40.png","坏人","image_first",""
"","","","","","html-keyboard-response","342","526782","0.0-13.0-0.0-1.0-0.1-1.65","null","<span style='color:GreenYellow; font-size: 70px;'>正确! </span>","null","","","","","","","","","","","","","","","","","","","","","","","feedback_test"
"","","","","","psychophysics","343","528701","0.0-13.0-0.0-1.0-0.1-0.66","768","","f","","","","","","","","","","","","","key","f","6.9446036363634365","960","536","f","true","img/S_ambi40.png","好人","image_first",""
"","","","","","html-keyboard-response","344","529002","0.0-13.0-0.0-1.0-0.1-1.66","null","<span style='color:GreenYellow; font-size: 70px;'>正确! </span>","null","","","","","","","","","","","","","","","","","","","","","","","feedback_test"
"","","","","","psychophysics","345","530839","0.0-13.0-0.0-1.0-0.1-0.67","686","","j","","","","","","","","","","","","","key","j","6.94212167300399","960","536","j","true","img/S_ambi40.png","坏人","image_first",""
"","","","","","html-keyboard-response","346","531141","0.0-13.0-0.0-1.0-0.1-1.67","null","<span style='color:GreenYellow; font-size: 70px;'>正确! </span>","null","","","","","","","","","","","","","","","","","","","","","","","feedback_test"
"","","","","","psychophysics","347","533086","0.0-13.0-0.0-1.0-0.1-0.68","795","","f","","","","","","","","","","","","","key","f","6.940762589928081","960","536","j","false","img/C_ambi40.png","好人","image_first",""
"","","","","","html-keyboard-response","348","533387","0.0-13.0-0.0-1.0-0.1-1.68","null","<span style='color:red; font-size: 70px;'>错误! </span>","null","","","","","","","","","","","","","","","","","","","","","","","feedback_test"
"","","","","","psychophysics","349","535677","0.0-13.0-0.0-1.0-0.1-0.69","1138","","j","","","","","","","","","","","","","key","j","6.945832826747732","960","536","j","true","img/S_ambi40.png","常人","image_first",""
"","","","","","html-keyboard-response","350","535977","0.0-13.0-0.0-1.0-0.1-1.69","null","<span style='color:GreenYellow; font-size: 70px;'>正确! </span>","null","","","","","","","","","","","","","","","","","","","","","","","feedback_test"
"","","","","","psychophysics","351","537935","0.0-13.0-0.0-1.0-0.1-0.70","807","","j","","","","","","","","","","","","","key","j","6.944366548042595","960","536","j","true","img/C_ambi40.png","坏人","image_first",""
"","","","","","html-keyboard-response","352","538236","0.0-13.0-0.0-1.0-0.1-1.70","null","<span style='color:GreenYellow; font-size: 70px;'>正确! </span>","null","","","","","","","","","","","","","","","","","","","","","","","feedback_test"
"","","","","","psychophysics","353","540221","0.0-13.0-0.0-1.0-0.1-0.71","834","","j","","","","","","","","","","","","","key","j","6.943694736842442","960","536","j","true","img/T_ambi40.png","常人","image_first",""
"","","","","","html-keyboard-response","354","540523","0.0-13.0-0.0-1.0-0.1-1.71","null","<span style='color:GreenYellow; font-size: 70px;'>正确! </span>","null","","","","","","","","","","","","","","","","","","","","","","","feedback_test"
"","","","","","psychophysics","355","542408","0.0-13.0-0.0-1.0-0.1-0.72","734","","j","","","","","","","","","","","","","key","j","6.938977777777688","960","536","j","true","img/S_ambi40.png","常人","image_first",""
"","","","","","html-keyboard-response","356","542710","0.0-13.0-0.0-1.0-0.1-1.72","null","<span style='color:GreenYellow; font-size: 70px;'>正确! </span>","null","","","","","","","","","","","","","","","","","","","","","","","feedback_test"
"","","","","","psychophysics","357","544556","0.0-13.0-0.0-1.0-0.1-0.73","696","","f","","","","","","","","","","","","","key","f","6.942178030302977","960","536","f","true","img/T_ambi40.png","坏人","image_first",""
"","","","","","html-keyboard-response","358","544856","0.0-13.0-0.0-1.0-0.1-1.73","null","<span style='color:GreenYellow; font-size: 70px;'>正确! </span>","null","","","","","","","","","","","","","","","","","","","","","","","feedback_test"
"","","","","","psychophysics","359","546855","0.0-13.0-0.0-1.0-0.1-0.74","848","","f","","","","","","","","","","","","","key","f","6.942449477351943","960","536","f","true","img/C_ambi40.png","常人","image_first",""
"","","","","","html-keyboard-response","360","547156","0.0-13.0-0.0-1.0-0.1-1.74","null","<span style='color:GreenYellow; font-size: 70px;'>正确! </span>","null","","","","","","","","","","","","","","","","","","","","","","","feedback_test"
"","","","","","psychophysics","361","549208","0.0-13.0-0.0-1.0-0.1-0.75","900","","j","","","","","","","","","","","","","key","j","6.944105442177004","960","536","j","true","img/T_ambi40.png","常人","image_first",""
"","","","","","html-keyboard-response","362","549510","0.0-13.0-0.0-1.0-0.1-1.75","null","<span style='color:GreenYellow; font-size: 70px;'>正确! </span>","null","","","","","","","","","","","","","","","","","","","","","","","feedback_test"
"","","","","","psychophysics","363","552090","0.0-13.0-0.0-1.0-0.1-0.76","1428","","j","","","","","","","","","","","","","key","j","6.943770270270447","960","536","j","true","img/S_ambi40.png","坏人","image_first",""
"","","","","","html-keyboard-response","364","552391","0.0-13.0-0.0-1.0-0.1-1.76","null","<span style='color:GreenYellow; font-size: 70px;'>正确! </span>","null","","","","","","","","","","","","","","","","","","","","","","","feedback_test"
"","","","","","psychophysics","365","554305","0.0-13.0-0.0-1.0-0.1-0.77","761","","f","","","","","","","","","","","","","key","f","6.944248175182648","960","536","f","true","img/T_ambi40.png","坏人","image_first",""
"","","","","","html-keyboard-response","366","554607","0.0-13.0-0.0-1.0-0.1-1.77","null","<span style='color:GreenYellow; font-size: 70px;'>正确! </span>","null","","","","","","","","","","","","","","","","","","","","","","","feedback_test"
"","","","","","psychophysics","367","556515","0.0-13.0-0.0-1.0-0.1-0.78","756","","j","","","","","","","","","","","","","key","j","6.944113553113614","960","536","j","true","img/T_ambi40.png","好人","image_first",""
"","","","","","html-keyboard-response","368","556816","0.0-13.0-0.0-1.0-0.1-1.78","null","<span style='color:GreenYellow; font-size: 70px;'>正确! </span>","null","","","","","","","","","","","","","","","","","","","","","","","feedback_test"
"","","","","","psychophysics","369","558878","0.0-13.0-0.0-1.0-0.1-0.79","912","","j","","","","","","","","","","","","","key","j","6.944108108108127","960","536","j","true","img/C_ambi40.png","坏人","image_first",""
"","","","","","html-keyboard-response","370","559180","0.0-13.0-0.0-1.0-0.1-1.79","null","<span style='color:GreenYellow; font-size: 70px;'>正确! </span>","null","","","","","","","","","","","","","","","","","","","","","","","feedback_test"
"","","","","","psychophysics","371","561156","0.0-13.0-0.0-1.0-0.1-0.80","825","","f","","","","","","","","","","","","","key","f","6.944464788732404","960","536","f","true","img/S_ambi40.png","好人","image_first",""
"","","","","","html-keyboard-response","372","561457","0.0-13.0-0.0-1.0-0.1-1.80","null","<span style='color:GreenYellow; font-size: 70px;'>正确! </span>","null","","","","","","","","","","","","","","","","","","","","","","","feedback_test"
"","","","","","psychophysics","373","563733","0.0-13.0-0.0-1.0-0.1-0.81","1124","","j","","","","","","","","","","","","","key","j","6.9441651376145845","960","536","j","true","img/C_ambi40.png","好人","image_first",""
"","","","","","html-keyboard-response","374","564034","0.0-13.0-0.0-1.0-0.1-1.81","null","<span style='color:GreenYellow; font-size: 70px;'>正确! </span>","null","","","","","","","","","","","","","","","","","","","","","","","feedback_test"
"","","","","","psychophysics","375","565900","0.0-13.0-0.0-1.0-0.1-0.82","715","","f","","","","","","","","","","","","","key","f","6.944634328358251","960","536","f","true","img/S_ambi40.png","好人","image_first",""
"","","","","","html-keyboard-response","376","566202","0.0-13.0-0.0-1.0-0.1-1.82","null","<span style='color:GreenYellow; font-size: 70px;'>正确! </span>","null","","","","","","","","","","","","","","","","","","","","","","","feedback_test"
"","","","","","psychophysics","377","568005","0.0-13.0-0.0-1.0-0.1-0.83","652","","j","","","","","","","","","","","","","key","j","6.94355984556023","960","536","f","false","img/C_ambi40.png","常人","image_first",""
"","","","","","html-keyboard-response","378","568306","0.0-13.0-0.0-1.0-0.1-1.83","null","<span style='color:red; font-size: 70px;'>错误! </span>","null","","","","","","","","","","","","","","","","","","","","","","","feedback_test"
"","","","","","psychophysics","379","570173","0.0-13.0-0.0-1.0-0.1-0.84","716","","j","","","","","","","","","","","","","key","j","6.943771535580828","960","536","j","true","img/S_ambi40.png","常人","image_first",""
"","","","","","html-keyboard-response","380","570475","0.0-13.0-0.0-1.0-0.1-1.84","null","<span style='color:GreenYellow; font-size: 70px;'>正确! </span>","null","","","","","","","","","","","","","","","","","","","","","","","feedback_test"
"","","","","","psychophysics","381","572242","0.0-13.0-0.0-1.0-0.1-0.85","616","","j","","","","","","","","","","","","","key","j","6.944245059288884","960","536","j","true","img/S_ambi40.png","坏人","image_first",""
"","","","","","html-keyboard-response","382","572543","0.0-13.0-0.0-1.0-0.1-1.85","null","<span style='color:GreenYellow; font-size: 70px;'>正确! </span>","null","","","","","","","","","","","","","","","","","","","","","","","feedback_test"
"","","","","","psychophysics","383","574524","0.0-13.0-0.0-1.0-0.1-0.86","830","","f","","","","","","","","","","","","","key","f","6.943305263158114","960","536","f","true","img/S_ambi40.png","好人","image_first",""
"","","","","","html-keyboard-response","384","574825","0.0-13.0-0.0-1.0-0.1-1.86","null","<span style='color:GreenYellow; font-size: 70px;'>正确! </span>","null","","","","","","","","","","","","","","","","","","","","","","","feedback_test"
"","","","","","psychophysics","385","576755","0.0-13.0-0.0-1.0-0.1-0.87","778","","f","","","","","","","","","","","","","key","f","6.94431046931416","960","536","f","true","img/T_ambi40.png","坏人","image_first",""
"","","","","","html-keyboard-response","386","577056","0.0-13.0-0.0-1.0-0.1-1.87","null","<span style='color:GreenYellow; font-size: 70px;'>正确! </span>","null","","","","","","","","","","","","","","","","","","","","","","","feedback_test"
"","","","","","psychophysics","387","579064","0.0-13.0-0.0-1.0-0.1-0.88","858","","j","","","","","","","","","","","","","key","j","6.9445624999999485","960","536","j","true","img/C_ambi40.png","坏人","image_first",""
"","","","","","html-keyboard-response","388","579365","0.0-13.0-0.0-1.0-0.1-1.88","null","<span style='color:GreenYellow; font-size: 70px;'>正确! </span>","null","","","","","","","","","","","","","","","","","","","","","","","feedback_test"
"","","","","","psychophysics","389","581410","0.0-13.0-0.0-1.0-0.1-0.89","894","","f","","","","","","","","","","","","","key","f","6.944382252559421","960","536","f","true","img/C_ambi40.png","常人","image_first",""
"","","","","","html-keyboard-response","390","581711","0.0-13.0-0.0-1.0-0.1-1.89","null","<span style='color:GreenYellow; font-size: 70px;'>正确! </span>","null","","","","","","","","","","","","","","","","","","","","","","","feedback_test"
"","","","","","psychophysics","391","583324","0.0-13.0-0.0-1.0-0.1-0.90","462","","f","","","","","","","","","","","","","key","f","6.943748917749144","960","536","f","true","img/C_ambi40.png","常人","image_first",""
"","","","","","html-keyboard-response","392","583626","0.0-13.0-0.0-1.0-0.1-1.90","null","<span style='color:GreenYellow; font-size: 70px;'>正确! </span>","null","","","","","","","","","","","","","","","","","","","","","","","feedback_test"
"","","","","","psychophysics","393","585375","0.0-13.0-0.0-1.0-0.1-0.91","597","","j","","","","","","","","","","","","","key","j","6.943408000000287","960","536","j","true","img/C_ambi40.png","好人","image_first",""
"","","","","","html-keyboard-response","394","585676","0.0-13.0-0.0-1.0-0.1-1.91","null","<span style='color:GreenYellow; font-size: 70px;'>正确! </span>","null","","","","","","","","","","","","","","","","","","","","","","","feedback_test"
"","","","","","psychophysics","395","587735","0.0-13.0-0.0-1.0-0.1-0.92","908","","f","","","","","","","","","","","","","key","f","6.944325423728817","960","536","f","true","img/S_ambi40.png","好人","image_first",""
"","","","","","html-keyboard-response","396","588036","0.0-13.0-0.0-1.0-0.1-1.92","null","<span style='color:GreenYellow; font-size: 70px;'>正确! </span>","null","","","","","","","","","","","","","","","","","","","","","","","feedback_test"
"","","","","","psychophysics","397","589991","0.0-13.0-0.0-1.0-0.1-0.93","803","","j","","","","","","","","","","","","","key","j","6.944996428571176","960","536","j","true","img/T_ambi40.png","好人","image_first",""
"","","","","","html-keyboard-response","398","590292","0.0-13.0-0.0-1.0-0.1-1.93","null","<span style='color:GreenYellow; font-size: 70px;'>正确! </span>","null","","","","","","","","","","","","","","","","","","","","","","","feedback_test"
"","","","","","psychophysics","399","592622","0.0-13.0-0.0-1.0-0.1-0.94","1180","","f","","","","","","","","","","","","","key","f","6.942248502994043","960","536","f","true","img/T_ambi40.png","坏人","image_first",""
"","","","","","html-keyboard-response","400","592924","0.0-13.0-0.0-1.0-0.1-1.94","null","<span style='color:GreenYellow; font-size: 70px;'>正确! </span>","null","","","","","","","","","","","","","","","","","","","","","","","feedback_test"
"","","","","","psychophysics","401","595074","0.0-13.0-0.0-1.0-0.1-0.95","997","","j","","","","","","","","","","","","","key","j","6.94134090909116","960","536","j","true","img/T_ambi40.png","常人","image_first",""
"","","","","","html-keyboard-response","402","595376","0.0-13.0-0.0-1.0-0.1-1.95","null","<span style='color:GreenYellow; font-size: 70px;'>正确! </span>","null","","","","","","","","","","","","","","","","","","","","","","","feedback_test"
"","","","","","psychophysics","403","597472","0.0-13.0-0.0-1.0-0.1-0.96","945","","f","","","","","","","","","","","","","key","f","6.941923333333495","960","536","f","true","img/T_ambi40.png","坏人","image_first",""
"","","","","","html-keyboard-response","404","597774","0.0-13.0-0.0-1.0-0.1-1.96","null","<span style='color:GreenYellow; font-size: 70px;'>正确! </span>","null","","","","","","","","","","","","","","","","","","","","","","","feedback_test"
"","","","","","psychophysics","405","599643","0.0-13.0-0.0-1.0-0.1-0.97","718","","f","","","","","","","","","","","","","key","f","6.944809701492221","960","536","j","false","img/T_ambi40.png","好人","image_first",""
"","","","","","html-keyboard-response","406","599944","0.0-13.0-0.0-1.0-0.1-1.97","null","<span style='color:red; font-size: 70px;'>错误! </span>","null","","","","","","","","","","","","","","","","","","","","","","","feedback_test"
"","","","","","psychophysics","407","602567","0.0-13.0-0.0-1.0-0.1-0.98","1473","","j","","","","","","","","","","","","","key","j","6.944212201591495","960","536","j","true","img/T_ambi40.png","常人","image_first",""
"","","","","","html-keyboard-response","408","602869","0.0-13.0-0.0-1.0-0.1-1.98","null","<span style='color:GreenYellow; font-size: 70px;'>正确! </span>","null","","","","","","","","","","","","","","","","","","","","","","","feedback_test"
"","","","","","psychophysics","409","604705","0.0-13.0-0.0-1.0-0.1-0.99","686","","f","","","","","","","","","","","","","key","f","6.94058555133106","960","536","f","true","img/T_ambi40.png","坏人","image_first",""
"","","","","","html-keyboard-response","410","605006","0.0-13.0-0.0-1.0-0.1-1.99","null","<span style='color:GreenYellow; font-size: 70px;'>正确! </span>","null","","","","","","","","","","","","","","","","","","","","","","","feedback_test"
"","","","","","psychophysics","411","607049","0.0-13.0-0.0-1.0-0.1-0.100","891","","j","","","","","","","","","","","","","key","j","6.944378839590374","960","536","j","true","img/C_ambi40.png","坏人","image_first",""
"","","","","","html-keyboard-response","412","607351","0.0-13.0-0.0-1.0-0.1-1.100","null","<span style='color:GreenYellow; font-size: 70px;'>正确! </span>","null","","","","","","","","","","","","","","","","","","","","","","","feedback_test"
"","","","","","psychophysics","413","609433","0.0-13.0-0.0-1.0-0.1-0.101","932","","j","","","","","","","","","","","","","key","j","6.944127090300984","960","536","j","true","img/S_ambi40.png","常人","image_first",""
"","","","","","html-keyboard-response","414","609735","0.0-13.0-0.0-1.0-0.1-1.101","null","<span style='color:GreenYellow; font-size: 70px;'>正确! </span>","null","","","","","","","","","","","","","","","","","","","","","","","feedback_test"
"","","","","","psychophysics","415","612021","0.0-13.0-0.0-1.0-0.1-0.102","1134","","f","","","","","","","","","","","","","key","f","6.944060975609762","960","536","f","true","img/S_ambi40.png","好人","image_first",""
"","","","","","html-keyboard-response","416","612322","0.0-13.0-0.0-1.0-0.1-1.102","null","<span style='color:GreenYellow; font-size: 70px;'>正确! </span>","null","","","","","","","","","","","","","","","","","","","","","","","feedback_test"
"","","","","","psychophysics","417","614088","0.0-13.0-0.0-1.0-0.1-0.103","616","","f","","","","","","","","","","","","","key","f","6.9443992094864715","960","536","f","true","img/S_ambi40.png","好人","image_first",""
"","","","","","html-keyboard-response","418","614390","0.0-13.0-0.0-1.0-0.1-1.103","null","<span style='color:GreenYellow; font-size: 70px;'>正确! </span>","null","","","","","","","","","","","","","","","","","","","","","","","feedback_test"
"","","","","","psychophysics","419","616269","0.0-13.0-0.0-1.0-0.1-0.104","727","","f","","","","","","","","","","","","","key","f","6.943925650557936","960","536","f","true","img/C_ambi40.png","常人","image_first",""
"","","","","","html-keyboard-response","420","616571","0.0-13.0-0.0-1.0-0.1-1.104","null","<span style='color:GreenYellow; font-size: 70px;'>正确! </span>","null","","","","","","","","","","","","","","","","","","","","","","","feedback_test"
"","","","","","psychophysics","421","618171","0.0-13.0-0.0-1.0-0.1-0.105","448","","f","","","","","","","","","","","","","key","f","6.944253275108902","960","536","f","true","img/C_ambi40.png","常人","image_first",""
"","","","","","html-keyboard-response","422","618472","0.0-13.0-0.0-1.0-0.1-1.105","null","<span style='color:GreenYellow; font-size: 70px;'>正确! </span>","null","","","","","","","","","","","","","","","","","","","","","","","feedback_test"
"","","","","","psychophysics","423","620265","0.0-13.0-0.0-1.0-0.1-0.106","641","","j","","","","","","","","","","","","","key","j","6.943517509727387","960","536","j","true","img/S_ambi40.png","坏人","image_first",""
"","","","","","html-keyboard-response","424","620566","0.0-13.0-0.0-1.0-0.1-1.106","null","<span style='color:GreenYellow; font-size: 70px;'>正确! </span>","null","","","","","","","","","","","","","","","","","","","","","","","feedback_test"
"","","","","","psychophysics","425","622259","0.0-13.0-0.0-1.0-0.1-0.107","543","","f","","","","","","","","","","","","","key","f","6.943930041152264","960","536","j","false","img/C_ambi40.png","好人","image_first",""
"","","","","","html-keyboard-response","426","622561","0.0-13.0-0.0-1.0-0.1-1.107","null","<span style='color:red; font-size: 70px;'>错误! </span>","null","","","","","","","","","","","","","","","","","","","","","","","feedback_test"
"","","","","","psychophysics","427","625026","0.0-13.0-0.0-1.0-0.1-0.108","1312","","f","","","","","","","","","","","","","key","f","6.944265536723217","960","536","f","true","img/S_ambi40.png","好人","image_first",""
"","","","","","html-keyboard-response","428","625328","0.0-13.0-0.0-1.0-0.1-1.108","null","<span style='color:GreenYellow; font-size: 70px;'>正确! </span>","null","","","","","","","","","","","","","","","","","","","","","","","feedback_test"
"","","","","","psychophysics","429","627603","0.0-13.0-0.0-1.0-0.1-0.109","1124","","f","","","","","","","","","","","","","key","f","6.943742331288443","960","536","f","true","img/C_ambi40.png","常人","image_first",""
"","","","","","html-keyboard-response","430","627904","0.0-13.0-0.0-1.0-0.1-1.109","null","<span style='color:GreenYellow; font-size: 70px;'>正确! </span>","null","","","","","","","","","","","","","","","","","","","","","","","feedback_test"
"","","","","","psychophysics","431","629835","0.0-13.0-0.0-1.0-0.1-0.110","781","","j","","","","","","","","","","","","","key","j","6.944541516245195","960","536","j","true","img/T_ambi40.png","好人","image_first",""
"","","","","","html-keyboard-response","432","630136","0.0-13.0-0.0-1.0-0.1-1.110","null","<span style='color:GreenYellow; font-size: 70px;'>正确! </span>","null","","","","","","","","","","","","","","","","","","","","","","","feedback_test"
"","","","","","psychophysics","433","631889","0.0-13.0-0.0-1.0-0.1-0.111","601","","j","","","","","","","","","","","","","key","j","6.944047808764963","960","536","f","false","img/T_ambi40.png","坏人","image_first",""
"","","","","","html-keyboard-response","434","632191","0.0-13.0-0.0-1.0-0.1-1.111","null","<span style='color:red; font-size: 70px;'>错误! </span>","null","","","","","","","","","","","","","","","","","","","","","","","feedback_test"
