subj_idx,gender,year,education,dist,trial_type,rt,response,key_press,condition,correct_response,correct,word,Image,shape_en,valence,ACC,exp,matchness,trial_id
1,0,2000,5,434.97,psychophysics,874,f,f,image_first,f,TRUE,三角,img/C_ambi40.png,circle,circle,1,exp1,mismatch,1
1,0,2000,5,434.97,psychophysics,670,j,j,image_first,j,TRUE,圆形,img/C_ambi40.png,circle,circle,1,exp1,match,2
1,0,2000,5,434.97,psychophysics,594,j,j,image_first,j,TRUE,三角,img/T_ambi40.png,triangle,triangle,1,exp1,match,3
1,0,2000,5,434.97,psychophysics,645,f,f,image_first,f,TRUE,圆形,img/S_ambi40.png,square,square,1,exp1,mismatch,4
1,0,2000,5,434.97,psychophysics,573,j,j,image_first,j,TRUE,方形,img/S_ambi40.png,square,square,1,exp1,match,5
1,0,2000,5,434.97,psychophysics,548,j,j,image_first,j,TRUE,三角,img/T_ambi40.png,triangle,triangle,1,exp1,match,6
1,0,2000,5,434.97,psychophysics,612,f,f,image_first,f,TRUE,方形,img/C_ambi40.png,circle,circle,1,exp1,mismatch,7
1,0,2000,5,434.97,psychophysics,574,j,j,image_first,j,TRUE,方形,img/S_ambi40.png,square,square,1,exp1,match,8
1,0,2000,5,434.97,psychophysics,611,f,f,image_first,f,TRUE,方形,img/T_ambi40.png,triangle,triangle,1,exp1,mismatch,9
1,0,2000,5,434.97,psychophysics,678,f,f,image_first,f,TRUE,圆形,img/T_ambi40.png,triangle,triangle,1,exp1,mismatch,10
1,0,2000,5,434.97,psychophysics,578,j,j,image_first,j,TRUE,圆形,img/C_ambi40.png,circle,circle,1,exp1,match,11
1,0,2000,5,434.97,psychophysics,573,f,f,image_first,f,TRUE,三角,img/S_ambi40.png,square,square,1,exp1,mismatch,12
1,0,2000,5,434.97,psychophysics,570,j,j,image_first,j,TRUE,三角,img/T_ambi40.png,triangle,triangle,1,exp1,match,13
1,0,2000,5,434.97,psychophysics,557,j,j,image_first,j,TRUE,三角,img/T_ambi40.png,triangle,triangle,1,exp1,match,14
1,0,2000,5,434.97,psychophysics,556,f,f,image_first,f,TRUE,三角,img/S_ambi40.png,square,square,1,exp1,mismatch,15
1,0,2000,5,434.97,psychophysics,558,j,j,image_first,j,TRUE,圆形,img/C_ambi40.png,circle,circle,1,exp1,match,16
1,0,2000,5,434.97,psychophysics,676,f,f,image_first,f,TRUE,方形,img/T_ambi40.png,triangle,triangle,1,exp1,mismatch,17
1,0,2000,5,434.97,psychophysics,756,f,f,image_first,f,TRUE,圆形,img/S_ambi40.png,square,square,1,exp1,mismatch,18
1,0,2000,5,434.97,psychophysics,620,f,f,image_first,f,TRUE,圆形,img/T_ambi40.png,triangle,triangle,1,exp1,mismatch,19
1,0,2000,5,434.97,psychophysics,672,f,f,image_first,f,TRUE,方形,img/C_ambi40.png,circle,circle,1,exp1,mismatch,20
1,0,2000,5,434.97,psychophysics,640,j,j,image_first,j,TRUE,方形,img/S_ambi40.png,square,square,1,exp1,match,21
1,0,2000,5,434.97,psychophysics,622,f,f,image_first,f,TRUE,三角,img/C_ambi40.png,circle,circle,1,exp1,mismatch,22
1,0,2000,5,434.97,psychophysics,740,j,j,image_first,j,TRUE,方形,img/S_ambi40.png,square,square,1,exp1,match,23
1,0,2000,5,434.97,psychophysics,705,j,j,image_first,j,TRUE,圆形,img/C_ambi40.png,circle,circle,1,exp1,match,24
1,0,2000,5,434.97,psychophysics,555,j,j,image_first,j,TRUE,三角,img/T_ambi40.png,triangle,triangle,1,exp1,match,25
1,0,2000,5,434.97,psychophysics,609,f,f,image_first,f,TRUE,方形,img/C_ambi40.png,circle,circle,1,exp1,mismatch,26
1,0,2000,5,434.97,psychophysics,610,f,f,image_first,f,TRUE,三角,img/S_ambi40.png,square,square,1,exp1,mismatch,27
1,0,2000,5,434.97,psychophysics,505,j,j,image_first,j,TRUE,圆形,img/C_ambi40.png,circle,circle,1,exp1,match,28
1,0,2000,5,434.97,psychophysics,829,f,f,image_first,f,TRUE,圆形,img/S_ambi40.png,square,square,1,exp1,mismatch,29
1,0,2000,5,434.97,psychophysics,614,j,j,image_first,j,TRUE,方形,img/S_ambi40.png,square,square,1,exp1,match,30
1,0,2000,5,434.97,psychophysics,623,f,f,image_first,f,TRUE,三角,img/C_ambi40.png,circle,circle,1,exp1,mismatch,31
1,0,2000,5,434.97,psychophysics,580,j,j,image_first,j,TRUE,三角,img/T_ambi40.png,triangle,triangle,1,exp1,match,32
1,0,2000,5,434.97,psychophysics,679,j,j,image_first,j,TRUE,方形,img/S_ambi40.png,square,square,1,exp1,match,33
1,0,2000,5,434.97,psychophysics,627,j,j,image_first,j,TRUE,圆形,img/C_ambi40.png,circle,circle,1,exp1,match,34
1,0,2000,5,434.97,psychophysics,627,f,f,image_first,f,TRUE,方形,img/T_ambi40.png,triangle,triangle,1,exp1,mismatch,35
1,0,2000,5,434.97,psychophysics,672,f,f,image_first,f,TRUE,圆形,img/T_ambi40.png,triangle,triangle,1,exp1,mismatch,36
1,0,2000,5,434.97,psychophysics,629,j,j,image_first,j,TRUE,三角,img/T_ambi40.png,triangle,triangle,1,exp1,match,37
1,0,2000,5,434.97,psychophysics,662,j,j,image_first,j,TRUE,圆形,img/C_ambi40.png,circle,circle,1,exp1,match,38
1,0,2000,5,434.97,psychophysics,607,f,f,image_first,f,TRUE,方形,img/C_ambi40.png,circle,circle,1,exp1,mismatch,39
1,0,2000,5,434.97,psychophysics,643,f,f,image_first,f,TRUE,圆形,img/T_ambi40.png,triangle,triangle,1,exp1,mismatch,40
1,0,2000,5,434.97,psychophysics,590,j,j,image_first,j,TRUE,方形,img/S_ambi40.png,square,square,1,exp1,match,41
1,0,2000,5,434.97,psychophysics,608,j,j,image_first,j,TRUE,方形,img/S_ambi40.png,square,square,1,exp1,match,42
1,0,2000,5,434.97,psychophysics,591,f,f,image_first,f,TRUE,三角,img/C_ambi40.png,circle,circle,1,exp1,mismatch,43
1,0,2000,5,434.97,psychophysics,695,f,f,image_first,f,TRUE,三角,img/S_ambi40.png,square,square,1,exp1,mismatch,44
1,0,2000,5,434.97,psychophysics,557,j,j,image_first,j,TRUE,三角,img/T_ambi40.png,triangle,triangle,1,exp1,match,45
1,0,2000,5,434.97,psychophysics,597,f,f,image_first,f,TRUE,方形,img/T_ambi40.png,triangle,triangle,1,exp1,mismatch,46
1,0,2000,5,434.97,psychophysics,777,f,f,image_first,f,TRUE,圆形,img/S_ambi40.png,square,square,1,exp1,mismatch,47
1,0,2000,5,434.97,psychophysics,586,j,j,image_first,j,TRUE,圆形,img/C_ambi40.png,circle,circle,1,exp1,match,48
1,0,2000,5,434.97,psychophysics,744,j,j,image_first,j,TRUE,方形,img/S_ambi40.png,square,square,1,exp1,match,49
1,0,2000,5,434.97,psychophysics,579,j,j,image_first,j,TRUE,三角,img/T_ambi40.png,triangle,triangle,1,exp1,match,50
1,0,2000,5,434.97,psychophysics,636,f,f,image_first,f,TRUE,圆形,img/T_ambi40.png,triangle,triangle,1,exp1,mismatch,51
1,0,2000,5,434.97,psychophysics,696,f,f,image_first,f,TRUE,三角,img/C_ambi40.png,circle,circle,1,exp1,mismatch,52
1,0,2000,5,434.97,psychophysics,612,j,j,image_first,j,TRUE,方形,img/S_ambi40.png,square,square,1,exp1,match,53
1,0,2000,5,434.97,psychophysics,663,f,f,image_first,f,TRUE,方形,img/T_ambi40.png,triangle,triangle,1,exp1,mismatch,54
1,0,2000,5,434.97,psychophysics,538,j,j,image_first,j,TRUE,圆形,img/C_ambi40.png,circle,circle,1,exp1,match,55
1,0,2000,5,434.97,psychophysics,603,j,j,image_first,j,TRUE,圆形,img/C_ambi40.png,circle,circle,1,exp1,match,56
1,0,2000,5,434.97,psychophysics,616,f,f,image_first,f,TRUE,三角,img/S_ambi40.png,square,square,1,exp1,mismatch,57
1,0,2000,5,434.97,psychophysics,559,j,j,image_first,j,TRUE,三角,img/T_ambi40.png,triangle,triangle,1,exp1,match,58
1,0,2000,5,434.97,psychophysics,616,f,f,image_first,f,TRUE,方形,img/C_ambi40.png,circle,circle,1,exp1,mismatch,59
1,0,2000,5,434.97,psychophysics,663,f,f,image_first,f,TRUE,圆形,img/S_ambi40.png,square,square,1,exp1,mismatch,60
1,0,2000,5,434.97,psychophysics,742,f,f,image_first,f,TRUE,圆形,img/S_ambi40.png,square,square,1,exp1,mismatch,62
1,0,2000,5,434.97,psychophysics,553,j,j,image_first,j,TRUE,圆形,img/C_ambi40.png,circle,circle,1,exp1,match,63
1,0,2000,5,434.97,psychophysics,599,j,j,image_first,j,TRUE,三角,img/T_ambi40.png,triangle,triangle,1,exp1,match,64
1,0,2000,5,434.97,psychophysics,588,j,j,image_first,j,TRUE,方形,img/S_ambi40.png,square,square,1,exp1,match,65
1,0,2000,5,434.97,psychophysics,669,j,j,image_first,j,TRUE,方形,img/S_ambi40.png,square,square,1,exp1,match,66
1,0,2000,5,434.97,psychophysics,609,f,f,image_first,f,TRUE,方形,img/T_ambi40.png,triangle,triangle,1,exp1,mismatch,67
1,0,2000,5,434.97,psychophysics,671,f,f,image_first,f,TRUE,三角,img/S_ambi40.png,square,square,1,exp1,mismatch,68
1,0,2000,5,434.97,psychophysics,598,f,f,image_first,f,TRUE,圆形,img/T_ambi40.png,triangle,triangle,1,exp1,mismatch,69
1,0,2000,5,434.97,psychophysics,615,f,f,image_first,f,TRUE,方形,img/C_ambi40.png,circle,circle,1,exp1,mismatch,70
1,0,2000,5,434.97,psychophysics,561,j,j,image_first,j,TRUE,圆形,img/C_ambi40.png,circle,circle,1,exp1,match,71
1,0,2000,5,434.97,psychophysics,578,f,f,image_first,f,TRUE,三角,img/C_ambi40.png,circle,circle,1,exp1,mismatch,72
1,0,2000,5,434.97,psychophysics,630,f,f,image_first,f,TRUE,方形,img/C_ambi40.png,circle,circle,1,exp1,mismatch,73
1,0,2000,5,434.97,psychophysics,546,j,j,image_first,j,TRUE,三角,img/T_ambi40.png,triangle,triangle,1,exp1,match,74
1,0,2000,5,434.97,psychophysics,714,f,f,image_first,f,TRUE,圆形,img/S_ambi40.png,square,square,1,exp1,mismatch,75
1,0,2000,5,434.97,psychophysics,740,f,f,image_first,f,TRUE,三角,img/C_ambi40.png,circle,circle,1,exp1,mismatch,76
1,0,2000,5,434.97,psychophysics,648,f,f,image_first,f,TRUE,圆形,img/T_ambi40.png,triangle,triangle,1,exp1,mismatch,77
1,0,2000,5,434.97,psychophysics,679,j,j,image_first,j,TRUE,方形,img/S_ambi40.png,square,square,1,exp1,match,78
1,0,2000,5,434.97,psychophysics,592,j,j,image_first,j,TRUE,圆形,img/C_ambi40.png,circle,circle,1,exp1,match,79
1,0,2000,5,434.97,psychophysics,591,f,f,image_first,f,TRUE,方形,img/T_ambi40.png,triangle,triangle,1,exp1,mismatch,80
1,0,2000,5,434.97,psychophysics,615,f,f,image_first,f,TRUE,三角,img/S_ambi40.png,square,square,1,exp1,mismatch,81
1,0,2000,5,434.97,psychophysics,576,j,j,image_first,j,TRUE,方形,img/S_ambi40.png,square,square,1,exp1,match,82
1,0,2000,5,434.97,psychophysics,564,j,j,image_first,j,TRUE,三角,img/T_ambi40.png,triangle,triangle,1,exp1,match,83
1,0,2000,5,434.97,psychophysics,538,j,j,image_first,j,TRUE,圆形,img/C_ambi40.png,circle,circle,1,exp1,match,84
1,0,2000,5,434.97,psychophysics,493,j,j,image_first,j,TRUE,三角,img/T_ambi40.png,triangle,triangle,1,exp1,match,85
1,0,2000,5,434.97,psychophysics,520,j,j,image_first,j,TRUE,圆形,img/C_ambi40.png,circle,circle,1,exp1,match,86
1,0,2000,5,434.97,psychophysics,643,f,f,image_first,f,TRUE,圆形,img/T_ambi40.png,triangle,triangle,1,exp1,mismatch,87
1,0,2000,5,434.97,psychophysics,568,j,j,image_first,j,TRUE,三角,img/T_ambi40.png,triangle,triangle,1,exp1,match,88
1,0,2000,5,434.97,psychophysics,736,f,f,image_first,f,TRUE,方形,img/C_ambi40.png,circle,circle,1,exp1,mismatch,89
1,0,2000,5,434.97,psychophysics,497,j,j,image_first,j,TRUE,方形,img/S_ambi40.png,square,square,1,exp1,match,90
1,0,2000,5,434.97,psychophysics,615,f,f,image_first,f,TRUE,方形,img/T_ambi40.png,triangle,triangle,1,exp1,mismatch,91
1,0,2000,5,434.97,psychophysics,636,f,f,image_first,f,TRUE,圆形,img/S_ambi40.png,square,square,1,exp1,mismatch,92
1,0,2000,5,434.97,psychophysics,548,j,j,image_first,j,TRUE,圆形,img/C_ambi40.png,circle,circle,1,exp1,match,93
1,0,2000,5,434.97,psychophysics,588,j,j,image_first,j,TRUE,方形,img/S_ambi40.png,square,square,1,exp1,match,94
1,0,2000,5,434.97,psychophysics,567,f,f,image_first,f,TRUE,三角,img/S_ambi40.png,square,square,1,exp1,mismatch,95
1,0,2000,5,434.97,psychophysics,664,f,f,image_first,f,TRUE,三角,img/C_ambi40.png,circle,circle,1,exp1,mismatch,96
1,0,2000,5,434.97,psychophysics,588,j,j,image_first,j,TRUE,方形,img/S_ambi40.png,square,square,1,exp1,match,97
1,0,2000,5,434.97,psychophysics,579,j,j,image_first,j,TRUE,三角,img/T_ambi40.png,triangle,triangle,1,exp1,match,98
1,0,2000,5,434.97,psychophysics,626,f,f,image_first,f,TRUE,方形,img/T_ambi40.png,triangle,triangle,1,exp1,mismatch,99
1,0,2000,5,434.97,psychophysics,638,f,f,image_first,f,TRUE,三角,img/C_ambi40.png,circle,circle,1,exp1,mismatch,100
1,0,2000,5,434.97,psychophysics,748,f,f,image_first,f,TRUE,圆形,img/S_ambi40.png,square,square,1,exp1,mismatch,101
1,0,2000,5,434.97,psychophysics,555,j,j,image_first,j,TRUE,圆形,img/C_ambi40.png,circle,circle,1,exp1,match,102
1,0,2000,5,434.97,psychophysics,550,f,f,image_first,f,TRUE,圆形,img/T_ambi40.png,triangle,triangle,1,exp1,mismatch,103
1,0,2000,5,434.97,psychophysics,682,f,f,image_first,f,TRUE,方形,img/C_ambi40.png,circle,circle,1,exp1,mismatch,104
1,0,2000,5,434.97,psychophysics,571,j,j,image_first,j,TRUE,方形,img/S_ambi40.png,square,square,1,exp1,match,105
1,0,2000,5,434.97,psychophysics,584,j,j,image_first,j,TRUE,圆形,img/C_ambi40.png,circle,circle,1,exp1,match,106
1,0,2000,5,434.97,psychophysics,528,j,j,image_first,j,TRUE,三角,img/T_ambi40.png,triangle,triangle,1,exp1,match,107
1,0,2000,5,434.97,psychophysics,580,f,f,image_first,f,TRUE,三角,img/S_ambi40.png,square,square,1,exp1,mismatch,108
1,0,2000,5,434.97,psychophysics,634,f,f,image_first,f,TRUE,圆形,img/T_ambi40.png,triangle,triangle,1,exp1,mismatch,109
1,0,2000,5,434.97,psychophysics,528,j,j,image_first,j,TRUE,方形,img/S_ambi40.png,square,square,1,exp1,match,110
1,0,2000,5,434.97,psychophysics,551,j,j,image_first,j,TRUE,三角,img/T_ambi40.png,triangle,triangle,1,exp1,match,111
1,0,2000,5,434.97,psychophysics,533,j,j,image_first,j,TRUE,圆形,img/C_ambi40.png,circle,circle,1,exp1,match,112
1,0,2000,5,434.97,psychophysics,545,f,f,image_first,f,TRUE,三角,img/S_ambi40.png,square,square,1,exp1,mismatch,113
1,0,2000,5,434.97,psychophysics,640,f,f,image_first,f,TRUE,三角,img/C_ambi40.png,circle,circle,1,exp1,mismatch,114
1,0,2000,5,434.97,psychophysics,546,j,j,image_first,j,TRUE,圆形,img/C_ambi40.png,circle,circle,1,exp1,match,115
1,0,2000,5,434.97,psychophysics,552,j,j,image_first,j,TRUE,方形,img/S_ambi40.png,square,square,1,exp1,match,116
1,0,2000,5,434.97,psychophysics,597,f,f,image_first,f,TRUE,圆形,img/S_ambi40.png,square,square,1,exp1,mismatch,117
1,0,2000,5,434.97,psychophysics,565,j,j,image_first,j,TRUE,三角,img/T_ambi40.png,triangle,triangle,1,exp1,match,118
1,0,2000,5,434.97,psychophysics,600,f,f,image_first,f,TRUE,方形,img/T_ambi40.png,triangle,triangle,1,exp1,mismatch,119
1,0,2000,5,434.97,psychophysics,619,f,f,image_first,f,TRUE,方形,img/C_ambi40.png,circle,circle,1,exp1,mismatch,120
1,0,2000,5,434.97,psychophysics,599,j,j,image_first,j,TRUE,方形,img/S_ambi40.png,square,square,1,exp1,match,121
1,0,2000,5,434.97,psychophysics,638,f,f,image_first,f,TRUE,方形,img/C_ambi40.png,circle,circle,1,exp1,mismatch,122
1,0,2000,5,434.97,psychophysics,562,j,j,image_first,j,TRUE,三角,img/T_ambi40.png,triangle,triangle,1,exp1,match,123
1,0,2000,5,434.97,psychophysics,596,j,j,image_first,j,TRUE,圆形,img/C_ambi40.png,circle,circle,1,exp1,match,124
1,0,2000,5,434.97,psychophysics,570,f,f,image_first,f,TRUE,三角,img/C_ambi40.png,circle,circle,1,exp1,mismatch,125
1,0,2000,5,434.97,psychophysics,624,f,f,image_first,f,TRUE,方形,img/T_ambi40.png,triangle,triangle,1,exp1,mismatch,126
1,0,2000,5,434.97,psychophysics,558,j,j,image_first,j,TRUE,方形,img/S_ambi40.png,square,square,1,exp1,match,127
1,0,2000,5,434.97,psychophysics,568,f,f,image_first,f,TRUE,三角,img/S_ambi40.png,square,square,1,exp1,mismatch,128
1,0,2000,5,434.97,psychophysics,626,f,f,image_first,f,TRUE,圆形,img/T_ambi40.png,triangle,triangle,1,exp1,mismatch,129
1,0,2000,5,434.97,psychophysics,542,j,j,image_first,j,TRUE,圆形,img/C_ambi40.png,circle,circle,1,exp1,match,130
1,0,2000,5,434.97,psychophysics,668,f,f,image_first,f,TRUE,圆形,img/S_ambi40.png,square,square,1,exp1,mismatch,131
1,0,2000,5,434.97,psychophysics,516,j,j,image_first,j,TRUE,三角,img/T_ambi40.png,triangle,triangle,1,exp1,match,132
1,0,2000,5,434.97,psychophysics,558,f,f,image_first,f,TRUE,方形,img/C_ambi40.png,circle,circle,1,exp1,mismatch,133
1,0,2000,5,434.97,psychophysics,622,f,f,image_first,f,TRUE,圆形,img/T_ambi40.png,triangle,triangle,1,exp1,mismatch,134
1,0,2000,5,434.97,psychophysics,631,f,f,image_first,f,TRUE,圆形,img/S_ambi40.png,square,square,1,exp1,mismatch,135
1,0,2000,5,434.97,psychophysics,643,j,j,image_first,j,TRUE,方形,img/S_ambi40.png,square,square,1,exp1,match,136
1,0,2000,5,434.97,psychophysics,567,j,j,image_first,j,TRUE,圆形,img/C_ambi40.png,circle,circle,1,exp1,match,137
1,0,2000,5,434.97,psychophysics,578,j,j,image_first,j,TRUE,方形,img/S_ambi40.png,square,square,1,exp1,match,138
1,0,2000,5,434.97,psychophysics,544,f,f,image_first,f,TRUE,三角,img/C_ambi40.png,circle,circle,1,exp1,mismatch,139
1,0,2000,5,434.97,psychophysics,616,f,f,image_first,f,TRUE,方形,img/T_ambi40.png,triangle,triangle,1,exp1,mismatch,140
1,0,2000,5,434.97,psychophysics,507,j,j,image_first,j,TRUE,圆形,img/C_ambi40.png,circle,circle,1,exp1,match,141
1,0,2000,5,434.97,psychophysics,537,f,f,image_first,f,TRUE,三角,img/S_ambi40.png,square,square,1,exp1,mismatch,142
1,0,2000,5,434.97,psychophysics,533,j,j,image_first,j,TRUE,三角,img/T_ambi40.png,triangle,triangle,1,exp1,match,143
1,0,2000,5,434.97,psychophysics,530,j,j,image_first,j,TRUE,三角,img/T_ambi40.png,triangle,triangle,1,exp1,match,144
1,0,2000,5,434.97,psychophysics,525,f,f,image_first,f,TRUE,圆形,img/S_ambi40.png,square,square,1,exp1,mismatch,145
1,0,2000,5,434.97,psychophysics,603,f,f,image_first,f,TRUE,圆形,img/T_ambi40.png,triangle,triangle,1,exp1,mismatch,146
1,0,2000,5,434.97,psychophysics,545,j,j,image_first,j,TRUE,圆形,img/C_ambi40.png,circle,circle,1,exp1,match,147
1,0,2000,5,434.97,psychophysics,602,f,f,image_first,f,TRUE,三角,img/C_ambi40.png,circle,circle,1,exp1,mismatch,148
1,0,2000,5,434.97,psychophysics,635,f,f,image_first,f,TRUE,三角,img/S_ambi40.png,square,square,1,exp1,mismatch,149
1,0,2000,5,434.97,psychophysics,566,j,j,image_first,j,TRUE,方形,img/S_ambi40.png,square,square,1,exp1,match,150
1,0,2000,5,434.97,psychophysics,589,j,j,image_first,j,TRUE,方形,img/S_ambi40.png,square,square,1,exp1,match,151
1,0,2000,5,434.97,psychophysics,610,f,f,image_first,f,TRUE,方形,img/T_ambi40.png,triangle,triangle,1,exp1,mismatch,152
1,0,2000,5,434.97,psychophysics,527,j,j,image_first,j,TRUE,三角,img/T_ambi40.png,triangle,triangle,1,exp1,match,153
1,0,2000,5,434.97,psychophysics,577,j,j,image_first,j,TRUE,圆形,img/C_ambi40.png,circle,circle,1,exp1,match,154
1,0,2000,5,434.97,psychophysics,760,j,j,image_first,j,TRUE,三角,img/T_ambi40.png,triangle,triangle,1,exp1,match,155
1,0,2000,5,434.97,psychophysics,669,f,f,image_first,f,TRUE,方形,img/C_ambi40.png,circle,circle,1,exp1,mismatch,156
1,0,2000,5,434.97,psychophysics,475,j,j,image_first,j,TRUE,方形,img/S_ambi40.png,square,square,1,exp1,match,157
1,0,2000,5,434.97,psychophysics,676,f,f,image_first,f,TRUE,方形,img/C_ambi40.png,circle,circle,1,exp1,mismatch,158
1,0,2000,5,434.97,psychophysics,541,j,j,image_first,j,TRUE,三角,img/T_ambi40.png,triangle,triangle,1,exp1,match,159
1,0,2000,5,434.97,psychophysics,527,j,j,image_first,j,TRUE,圆形,img/C_ambi40.png,circle,circle,1,exp1,match,160
1,0,2000,5,434.97,psychophysics,588,f,f,image_first,f,TRUE,三角,img/C_ambi40.png,circle,circle,1,exp1,mismatch,161
1,0,2000,5,434.97,psychophysics,632,f,f,image_first,f,TRUE,三角,img/S_ambi40.png,square,square,1,exp1,mismatch,162
1,0,2000,5,434.97,psychophysics,683,f,f,image_first,f,TRUE,方形,img/T_ambi40.png,triangle,triangle,1,exp1,mismatch,163
1,0,2000,5,434.97,psychophysics,568,j,j,image_first,j,TRUE,方形,img/S_ambi40.png,square,square,1,exp1,match,164
1,0,2000,5,434.97,psychophysics,641,f,f,image_first,f,TRUE,圆形,img/S_ambi40.png,square,square,1,exp1,mismatch,165
1,0,2000,5,434.97,psychophysics,679,f,f,image_first,f,TRUE,圆形,img/T_ambi40.png,triangle,triangle,1,exp1,mismatch,166
1,0,2000,5,434.97,psychophysics,540,j,j,image_first,j,TRUE,圆形,img/C_ambi40.png,circle,circle,1,exp1,match,167
1,0,2000,5,434.97,psychophysics,531,j,j,image_first,j,TRUE,三角,img/T_ambi40.png,triangle,triangle,1,exp1,match,168
1,0,2000,5,434.97,psychophysics,596,f,f,image_first,f,TRUE,三角,img/C_ambi40.png,circle,circle,1,exp1,mismatch,169
1,0,2000,5,434.97,psychophysics,711,f,f,image_first,f,TRUE,圆形,img/S_ambi40.png,square,square,1,exp1,mismatch,170
1,0,2000,5,434.97,psychophysics,616,f,f,image_first,f,TRUE,方形,img/T_ambi40.png,triangle,triangle,1,exp1,mismatch,171
1,0,2000,5,434.97,psychophysics,648,f,f,image_first,f,TRUE,方形,img/C_ambi40.png,circle,circle,1,exp1,mismatch,172
1,0,2000,5,434.97,psychophysics,572,j,j,image_first,j,TRUE,三角,img/T_ambi40.png,triangle,triangle,1,exp1,match,173
1,0,2000,5,434.97,psychophysics,625,j,j,image_first,j,TRUE,圆形,img/C_ambi40.png,circle,circle,1,exp1,match,174
1,0,2000,5,434.97,psychophysics,641,j,j,image_first,j,TRUE,方形,img/S_ambi40.png,square,square,1,exp1,match,175
1,0,2000,5,434.97,psychophysics,586,j,j,image_first,j,TRUE,三角,img/T_ambi40.png,triangle,triangle,1,exp1,match,176
1,0,2000,5,434.97,psychophysics,584,f,f,image_first,f,TRUE,圆形,img/T_ambi40.png,triangle,triangle,1,exp1,mismatch,177
1,0,2000,5,434.97,psychophysics,564,j,j,image_first,j,TRUE,方形,img/S_ambi40.png,square,square,1,exp1,match,178
1,0,2000,5,434.97,psychophysics,547,f,f,image_first,f,TRUE,三角,img/S_ambi40.png,square,square,1,exp1,mismatch,179
1,0,2000,5,434.97,psychophysics,591,j,j,image_first,j,TRUE,圆形,img/C_ambi40.png,circle,circle,1,exp1,match,180
1,0,2000,5,434.97,psychophysics,694,f,f,image_first,f,TRUE,方形,img/C_ambi40.png,circle,circle,1,exp1,mismatch,181
1,0,2000,5,434.97,psychophysics,536,j,j,image_first,j,TRUE,圆形,img/C_ambi40.png,circle,circle,1,exp1,match,182
1,0,2000,5,434.97,psychophysics,595,j,j,image_first,j,TRUE,方形,img/S_ambi40.png,square,square,1,exp1,match,183
1,0,2000,5,434.97,psychophysics,591,f,f,image_first,f,TRUE,三角,img/C_ambi40.png,circle,circle,1,exp1,mismatch,184
1,0,2000,5,434.97,psychophysics,522,j,j,image_first,j,TRUE,方形,img/S_ambi40.png,square,square,1,exp1,match,185
1,0,2000,5,434.97,psychophysics,591,f,f,image_first,f,TRUE,方形,img/T_ambi40.png,triangle,triangle,1,exp1,mismatch,186
1,0,2000,5,434.97,psychophysics,508,j,j,image_first,j,TRUE,三角,img/T_ambi40.png,triangle,triangle,1,exp1,match,187
1,0,2000,5,434.97,psychophysics,494,j,j,image_first,j,TRUE,圆形,img/C_ambi40.png,circle,circle,1,exp1,match,188
1,0,2000,5,434.97,psychophysics,607,f,f,image_first,f,TRUE,圆形,img/S_ambi40.png,square,square,1,exp1,mismatch,189
1,0,2000,5,434.97,psychophysics,468,j,j,image_first,j,TRUE,三角,img/T_ambi40.png,triangle,triangle,1,exp1,match,190
1,0,2000,5,434.97,psychophysics,553,f,f,image_first,f,TRUE,三角,img/S_ambi40.png,square,square,1,exp1,mismatch,191
1,0,2000,5,434.97,psychophysics,622,f,f,image_first,f,TRUE,圆形,img/T_ambi40.png,triangle,triangle,1,exp1,mismatch,192
1,0,2000,5,434.97,psychophysics,628,f,f,image_first,f,TRUE,方形,img/C_ambi40.png,circle,circle,1,exp1,mismatch,193
1,0,2000,5,434.97,psychophysics,650,f,f,image_first,f,TRUE,圆形,img/T_ambi40.png,triangle,triangle,1,exp1,mismatch,194
1,0,2000,5,434.97,psychophysics,522,j,j,image_first,j,TRUE,三角,img/T_ambi40.png,triangle,triangle,1,exp1,match,195
1,0,2000,5,434.97,psychophysics,548,j,j,image_first,j,TRUE,圆形,img/C_ambi40.png,circle,circle,1,exp1,match,196
1,0,2000,5,434.97,psychophysics,586,f,f,image_first,f,TRUE,三角,img/S_ambi40.png,square,square,1,exp1,mismatch,197
1,0,2000,5,434.97,psychophysics,665,j,j,image_first,j,TRUE,方形,img/S_ambi40.png,square,square,1,exp1,match,198
1,0,2000,5,434.97,psychophysics,552,j,j,image_first,j,TRUE,圆形,img/C_ambi40.png,circle,circle,1,exp1,match,199
1,0,2000,5,434.97,psychophysics,568,f,f,image_first,f,TRUE,方形,img/T_ambi40.png,triangle,triangle,1,exp1,mismatch,200
1,0,2000,5,434.97,psychophysics,610,j,j,image_first,j,TRUE,方形,img/S_ambi40.png,square,square,1,exp1,match,201
1,0,2000,5,434.97,psychophysics,579,f,f,image_first,f,TRUE,三角,img/C_ambi40.png,circle,circle,1,exp1,mismatch,202
1,0,2000,5,434.97,psychophysics,677,f,f,image_first,f,TRUE,圆形,img/S_ambi40.png,square,square,1,exp1,mismatch,203
1,0,2000,5,434.97,psychophysics,501,j,j,image_first,j,TRUE,三角,img/T_ambi40.png,triangle,triangle,1,exp1,match,204
1,0,2000,5,434.97,psychophysics,504,j,j,image_first,j,TRUE,三角,img/T_ambi40.png,triangle,triangle,1,exp1,match,205
1,0,2000,5,434.97,psychophysics,609,f,f,image_first,f,TRUE,方形,img/C_ambi40.png,circle,circle,1,exp1,mismatch,206
1,0,2000,5,434.97,psychophysics,576,j,j,image_first,j,TRUE,圆形,img/C_ambi40.png,circle,circle,1,exp1,match,207
1,0,2000,5,434.97,psychophysics,506,j,j,image_first,j,TRUE,方形,img/S_ambi40.png,square,square,1,exp1,match,209
1,0,2000,5,434.97,psychophysics,591,j,j,image_first,j,TRUE,方形,img/S_ambi40.png,square,square,1,exp1,match,210
1,0,2000,5,434.97,psychophysics,672,j,j,image_first,j,TRUE,圆形,img/C_ambi40.png,circle,circle,1,exp1,match,211
1,0,2000,5,434.97,psychophysics,583,f,f,image_first,f,TRUE,圆形,img/T_ambi40.png,triangle,triangle,1,exp1,mismatch,212
1,0,2000,5,434.97,psychophysics,646,f,f,image_first,f,TRUE,三角,img/S_ambi40.png,square,square,1,exp1,mismatch,213
1,0,2000,5,434.97,psychophysics,640,f,f,image_first,f,TRUE,方形,img/T_ambi40.png,triangle,triangle,1,exp1,mismatch,214
1,0,2000,5,434.97,psychophysics,588,j,j,image_first,j,TRUE,三角,img/T_ambi40.png,triangle,triangle,1,exp1,match,215
1,0,2000,5,434.97,psychophysics,718,f,f,image_first,f,TRUE,三角,img/C_ambi40.png,circle,circle,1,exp1,mismatch,216
1,0,2000,5,434.97,psychophysics,561,j,j,image_first,j,TRUE,三角,img/T_ambi40.png,triangle,triangle,1,exp1,match,217
1,0,2000,5,434.97,psychophysics,638,f,f,image_first,f,TRUE,方形,img/T_ambi40.png,triangle,triangle,1,exp1,mismatch,218
1,0,2000,5,434.97,psychophysics,599,j,j,image_first,j,TRUE,三角,img/T_ambi40.png,triangle,triangle,1,exp1,match,219
1,0,2000,5,434.97,psychophysics,557,j,j,image_first,j,TRUE,圆形,img/C_ambi40.png,circle,circle,1,exp1,match,220
1,0,2000,5,434.97,psychophysics,646,f,f,image_first,f,TRUE,三角,img/C_ambi40.png,circle,circle,1,exp1,mismatch,221
1,0,2000,5,434.97,psychophysics,536,j,j,image_first,j,TRUE,方形,img/S_ambi40.png,square,square,1,exp1,match,222
1,0,2000,5,434.97,psychophysics,601,f,f,image_first,f,TRUE,圆形,img/T_ambi40.png,triangle,triangle,1,exp1,mismatch,223
1,0,2000,5,434.97,psychophysics,740,f,f,image_first,f,TRUE,圆形,img/S_ambi40.png,square,square,1,exp1,mismatch,224
1,0,2000,5,434.97,psychophysics,567,j,j,image_first,j,TRUE,圆形,img/C_ambi40.png,circle,circle,1,exp1,match,225
1,0,2000,5,434.97,psychophysics,626,f,f,image_first,f,TRUE,方形,img/C_ambi40.png,circle,circle,1,exp1,mismatch,226
1,0,2000,5,434.97,psychophysics,621,j,j,image_first,j,TRUE,方形,img/S_ambi40.png,square,square,1,exp1,match,227
1,0,2000,5,434.97,psychophysics,558,f,f,image_first,f,TRUE,三角,img/S_ambi40.png,square,square,1,exp1,mismatch,228
1,0,2000,5,434.97,psychophysics,575,j,j,image_first,j,TRUE,三角,img/T_ambi40.png,triangle,triangle,1,exp1,match,229
1,0,2000,5,434.97,psychophysics,630,f,f,image_first,f,TRUE,圆形,img/S_ambi40.png,square,square,1,exp1,mismatch,230
1,0,2000,5,434.97,psychophysics,634,f,f,image_first,f,TRUE,方形,img/C_ambi40.png,circle,circle,1,exp1,mismatch,231
1,0,2000,5,434.97,psychophysics,565,j,j,image_first,j,TRUE,方形,img/S_ambi40.png,square,square,1,exp1,match,232
1,0,2000,5,434.97,psychophysics,576,f,f,image_first,f,TRUE,方形,img/T_ambi40.png,triangle,triangle,1,exp1,mismatch,233
1,0,2000,5,434.97,psychophysics,546,j,j,image_first,j,TRUE,圆形,img/C_ambi40.png,circle,circle,1,exp1,match,234
1,0,2000,5,434.97,psychophysics,650,f,f,image_first,f,TRUE,三角,img/C_ambi40.png,circle,circle,1,exp1,mismatch,235
1,0,2000,5,434.97,psychophysics,675,j,j,image_first,j,TRUE,圆形,img/C_ambi40.png,circle,circle,1,exp1,match,236
1,0,2000,5,434.97,psychophysics,602,f,f,image_first,f,TRUE,圆形,img/T_ambi40.png,triangle,triangle,1,exp1,mismatch,237
1,0,2000,5,434.97,psychophysics,546,j,j,image_first,j,TRUE,方形,img/S_ambi40.png,square,square,1,exp1,match,238
1,0,2000,5,434.97,psychophysics,674,j,j,image_first,j,TRUE,三角,img/T_ambi40.png,triangle,triangle,1,exp1,match,239
1,0,2000,5,434.97,psychophysics,562,f,f,image_first,f,TRUE,三角,img/S_ambi40.png,square,square,1,exp1,mismatch,240
1,0,2000,5,434.97,psychophysics,689,f,f,word_first,f,TRUE,方形,img/T_ambi40.png,triangle,triangle,1,exp1,mismatch,1
1,0,2000,5,434.97,psychophysics,706,f,f,word_first,f,TRUE,三角,img/C_ambi40.png,circle,circle,1,exp1,mismatch,2
1,0,2000,5,434.97,psychophysics,682,f,f,word_first,f,TRUE,圆形,img/S_ambi40.png,square,square,1,exp1,mismatch,3
1,0,2000,5,434.97,psychophysics,612,j,j,word_first,j,TRUE,三角,img/T_ambi40.png,triangle,triangle,1,exp1,match,4
1,0,2000,5,434.97,psychophysics,590,j,j,word_first,j,TRUE,三角,img/T_ambi40.png,triangle,triangle,1,exp1,match,5
1,0,2000,5,434.97,psychophysics,572,f,f,word_first,f,TRUE,圆形,img/T_ambi40.png,triangle,triangle,1,exp1,mismatch,6
1,0,2000,5,434.97,psychophysics,626,j,j,word_first,j,TRUE,圆形,img/C_ambi40.png,circle,circle,1,exp1,match,7
1,0,2000,5,434.97,psychophysics,605,f,f,word_first,f,TRUE,方形,img/C_ambi40.png,circle,circle,1,exp1,mismatch,8
1,0,2000,5,434.97,psychophysics,609,f,f,word_first,f,TRUE,三角,img/S_ambi40.png,square,square,1,exp1,mismatch,9
1,0,2000,5,434.97,psychophysics,724,j,j,word_first,j,TRUE,方形,img/S_ambi40.png,square,square,1,exp1,match,10
1,0,2000,5,434.97,psychophysics,566,j,j,word_first,j,TRUE,圆形,img/C_ambi40.png,circle,circle,1,exp1,match,11
1,0,2000,5,434.97,psychophysics,566,j,j,word_first,j,TRUE,方形,img/S_ambi40.png,square,square,1,exp1,match,12
1,0,2000,5,434.97,psychophysics,552,f,f,word_first,f,TRUE,方形,img/T_ambi40.png,triangle,triangle,1,exp1,mismatch,13
1,0,2000,5,434.97,psychophysics,534,j,j,word_first,j,TRUE,圆形,img/C_ambi40.png,circle,circle,1,exp1,match,14
1,0,2000,5,434.97,psychophysics,806,f,f,word_first,f,TRUE,圆形,img/T_ambi40.png,triangle,triangle,1,exp1,mismatch,15
1,0,2000,5,434.97,psychophysics,500,j,j,word_first,j,TRUE,方形,img/S_ambi40.png,square,square,1,exp1,match,16
1,0,2000,5,434.97,psychophysics,568,f,f,word_first,f,TRUE,三角,img/C_ambi40.png,circle,circle,1,exp1,mismatch,17
1,0,2000,5,434.97,psychophysics,649,f,f,word_first,f,TRUE,圆形,img/S_ambi40.png,square,square,1,exp1,mismatch,18
1,0,2000,5,434.97,psychophysics,937,j,j,word_first,j,TRUE,圆形,img/C_ambi40.png,circle,circle,1,exp1,match,19
1,0,2000,5,434.97,psychophysics,561,f,f,word_first,f,TRUE,三角,img/S_ambi40.png,square,square,1,exp1,mismatch,20
1,0,2000,5,434.97,psychophysics,587,j,j,word_first,j,TRUE,方形,img/S_ambi40.png,square,square,1,exp1,match,21
1,0,2000,5,434.97,psychophysics,569,j,j,word_first,j,TRUE,三角,img/T_ambi40.png,triangle,triangle,1,exp1,match,22
1,0,2000,5,434.97,psychophysics,594,f,f,word_first,f,TRUE,方形,img/C_ambi40.png,circle,circle,1,exp1,mismatch,23
1,0,2000,5,434.97,psychophysics,662,j,j,word_first,j,TRUE,三角,img/T_ambi40.png,triangle,triangle,1,exp1,match,24
1,0,2000,5,434.97,psychophysics,535,j,j,word_first,j,TRUE,方形,img/S_ambi40.png,square,square,1,exp1,match,25
1,0,2000,5,434.97,psychophysics,531,j,j,word_first,j,TRUE,方形,img/S_ambi40.png,square,square,1,exp1,match,26
1,0,2000,5,434.97,psychophysics,491,j,j,word_first,j,TRUE,圆形,img/C_ambi40.png,circle,circle,1,exp1,match,27
1,0,2000,5,434.97,psychophysics,428,j,j,word_first,j,TRUE,圆形,img/C_ambi40.png,circle,circle,1,exp1,match,28
1,0,2000,5,434.97,psychophysics,632,f,f,word_first,f,TRUE,方形,img/T_ambi40.png,triangle,triangle,1,exp1,mismatch,29
1,0,2000,5,434.97,psychophysics,612,f,f,word_first,f,TRUE,圆形,img/T_ambi40.png,triangle,triangle,1,exp1,mismatch,30
1,0,2000,5,434.97,psychophysics,651,f,f,word_first,f,TRUE,三角,img/S_ambi40.png,square,square,1,exp1,mismatch,31
1,0,2000,5,434.97,psychophysics,629,j,j,word_first,j,TRUE,三角,img/T_ambi40.png,triangle,triangle,1,exp1,match,32
1,0,2000,5,434.97,psychophysics,516,f,f,word_first,f,TRUE,三角,img/C_ambi40.png,circle,circle,1,exp1,mismatch,33
1,0,2000,5,434.97,psychophysics,626,f,f,word_first,f,TRUE,方形,img/C_ambi40.png,circle,circle,1,exp1,mismatch,34
1,0,2000,5,434.97,psychophysics,567,j,j,word_first,j,TRUE,三角,img/T_ambi40.png,triangle,triangle,1,exp1,match,35
1,0,2000,5,434.97,psychophysics,569,f,f,word_first,f,TRUE,圆形,img/S_ambi40.png,square,square,1,exp1,mismatch,36
1,0,2000,5,434.97,psychophysics,589,f,f,word_first,f,TRUE,圆形,img/T_ambi40.png,triangle,triangle,1,exp1,mismatch,37
1,0,2000,5,434.97,psychophysics,607,f,f,word_first,f,TRUE,圆形,img/S_ambi40.png,square,square,1,exp1,mismatch,38
1,0,2000,5,434.97,psychophysics,640,j,j,word_first,j,TRUE,圆形,img/C_ambi40.png,circle,circle,1,exp1,match,39
1,0,2000,5,434.97,psychophysics,616,j,j,word_first,j,TRUE,三角,img/T_ambi40.png,triangle,triangle,1,exp1,match,40
1,0,2000,5,434.97,psychophysics,585,f,f,word_first,f,TRUE,方形,img/T_ambi40.png,triangle,triangle,1,exp1,mismatch,41
1,0,2000,5,434.97,psychophysics,616,f,f,word_first,f,TRUE,方形,img/C_ambi40.png,circle,circle,1,exp1,mismatch,42
1,0,2000,5,434.97,psychophysics,618,j,j,word_first,j,TRUE,方形,img/S_ambi40.png,square,square,1,exp1,match,43
1,0,2000,5,434.97,psychophysics,567,j,j,word_first,j,TRUE,方形,img/S_ambi40.png,square,square,1,exp1,match,44
1,0,2000,5,434.97,psychophysics,627,j,j,word_first,j,TRUE,三角,img/T_ambi40.png,triangle,triangle,1,exp1,match,45
1,0,2000,5,434.97,psychophysics,663,f,f,word_first,f,TRUE,三角,img/S_ambi40.png,square,square,1,exp1,mismatch,46
1,0,2000,5,434.97,psychophysics,568,j,j,word_first,j,TRUE,圆形,img/C_ambi40.png,circle,circle,1,exp1,match,47
1,0,2000,5,434.97,psychophysics,601,f,f,word_first,f,TRUE,三角,img/C_ambi40.png,circle,circle,1,exp1,mismatch,48
1,0,2000,5,434.97,psychophysics,690,f,f,word_first,f,TRUE,圆形,img/T_ambi40.png,triangle,triangle,1,exp1,mismatch,49
1,0,2000,5,434.97,psychophysics,612,f,f,word_first,f,TRUE,三角,img/S_ambi40.png,square,square,1,exp1,mismatch,50
1,0,2000,5,434.97,psychophysics,605,j,j,word_first,j,TRUE,三角,img/T_ambi40.png,triangle,triangle,1,exp1,match,51
1,0,2000,5,434.97,psychophysics,617,j,j,word_first,j,TRUE,圆形,img/C_ambi40.png,circle,circle,1,exp1,match,52
1,0,2000,5,434.97,psychophysics,554,f,f,word_first,f,TRUE,方形,img/C_ambi40.png,circle,circle,1,exp1,mismatch,53
1,0,2000,5,434.97,psychophysics,551,j,j,word_first,j,TRUE,方形,img/S_ambi40.png,square,square,1,exp1,match,54
1,0,2000,5,434.97,psychophysics,566,f,f,word_first,f,TRUE,圆形,img/S_ambi40.png,square,square,1,exp1,mismatch,55
1,0,2000,5,434.97,psychophysics,606,f,f,word_first,f,TRUE,三角,img/C_ambi40.png,circle,circle,1,exp1,mismatch,56
1,0,2000,5,434.97,psychophysics,587,j,j,word_first,j,TRUE,三角,img/T_ambi40.png,triangle,triangle,1,exp1,match,57
1,0,2000,5,434.97,psychophysics,547,j,j,word_first,j,TRUE,圆形,img/C_ambi40.png,circle,circle,1,exp1,match,58
1,0,2000,5,434.97,psychophysics,545,f,f,word_first,f,TRUE,方形,img/T_ambi40.png,triangle,triangle,1,exp1,mismatch,59
1,0,2000,5,434.97,psychophysics,514,j,j,word_first,j,TRUE,方形,img/S_ambi40.png,square,square,1,exp1,match,60
1,0,2000,5,434.97,psychophysics,616,j,j,word_first,j,TRUE,圆形,img/C_ambi40.png,circle,circle,1,exp1,match,61
1,0,2000,5,434.97,psychophysics,540,j,j,word_first,j,TRUE,圆形,img/C_ambi40.png,circle,circle,1,exp1,match,62
1,0,2000,5,434.97,psychophysics,633,j,j,word_first,j,TRUE,方形,img/S_ambi40.png,square,square,1,exp1,match,63
1,0,2000,5,434.97,psychophysics,548,f,f,word_first,f,TRUE,圆形,img/T_ambi40.png,triangle,triangle,1,exp1,mismatch,64
1,0,2000,5,434.97,psychophysics,655,f,f,word_first,f,TRUE,方形,img/T_ambi40.png,triangle,triangle,1,exp1,mismatch,65
1,0,2000,5,434.97,psychophysics,542,j,j,word_first,j,TRUE,方形,img/S_ambi40.png,square,square,1,exp1,match,66
1,0,2000,5,434.97,psychophysics,506,f,f,word_first,f,TRUE,三角,img/C_ambi40.png,circle,circle,1,exp1,mismatch,67
1,0,2000,5,434.97,psychophysics,513,j,j,word_first,j,TRUE,三角,img/T_ambi40.png,triangle,triangle,1,exp1,match,68
1,0,2000,5,434.97,psychophysics,568,f,f,word_first,f,TRUE,三角,img/S_ambi40.png,square,square,1,exp1,mismatch,69
1,0,2000,5,434.97,psychophysics,543,f,f,word_first,f,TRUE,圆形,img/S_ambi40.png,square,square,1,exp1,mismatch,70
1,0,2000,5,434.97,psychophysics,457,j,j,word_first,j,TRUE,三角,img/T_ambi40.png,triangle,triangle,1,exp1,match,71
1,0,2000,5,434.97,psychophysics,557,f,f,word_first,f,TRUE,方形,img/C_ambi40.png,circle,circle,1,exp1,mismatch,72
1,0,2000,5,434.97,psychophysics,534,f,f,word_first,f,TRUE,三角,img/C_ambi40.png,circle,circle,1,exp1,mismatch,73
1,0,2000,5,434.97,psychophysics,415,j,j,word_first,j,TRUE,圆形,img/C_ambi40.png,circle,circle,1,exp1,match,74
1,0,2000,5,434.97,psychophysics,545,j,j,word_first,j,TRUE,三角,img/T_ambi40.png,triangle,triangle,1,exp1,match,75
1,0,2000,5,434.97,psychophysics,557,j,j,word_first,j,TRUE,方形,img/S_ambi40.png,square,square,1,exp1,match,76
1,0,2000,5,434.97,psychophysics,509,f,f,word_first,f,TRUE,三角,img/S_ambi40.png,square,square,1,exp1,mismatch,77
1,0,2000,5,434.97,psychophysics,513,f,f,word_first,f,TRUE,圆形,img/T_ambi40.png,triangle,triangle,1,exp1,mismatch,78
1,0,2000,5,434.97,psychophysics,527,j,j,word_first,j,TRUE,圆形,img/C_ambi40.png,circle,circle,1,exp1,match,79
1,0,2000,5,434.97,psychophysics,560,f,f,word_first,f,TRUE,方形,img/T_ambi40.png,triangle,triangle,1,exp1,mismatch,80
1,0,2000,5,434.97,psychophysics,613,f,f,word_first,f,TRUE,圆形,img/S_ambi40.png,square,square,1,exp1,mismatch,81
1,0,2000,5,434.97,psychophysics,530,j,j,word_first,j,TRUE,方形,img/S_ambi40.png,square,square,1,exp1,match,82
1,0,2000,5,434.97,psychophysics,516,j,j,word_first,j,TRUE,三角,img/T_ambi40.png,triangle,triangle,1,exp1,match,83
1,0,2000,5,434.97,psychophysics,522,f,f,word_first,f,TRUE,方形,img/C_ambi40.png,circle,circle,1,exp1,mismatch,84
1,0,2000,5,434.97,psychophysics,577,f,f,word_first,f,TRUE,圆形,img/T_ambi40.png,triangle,triangle,1,exp1,mismatch,85
1,0,2000,5,434.97,psychophysics,572,f,f,word_first,f,TRUE,三角,img/C_ambi40.png,circle,circle,1,exp1,mismatch,86
1,0,2000,5,434.97,psychophysics,524,j,j,word_first,j,TRUE,圆形,img/C_ambi40.png,circle,circle,1,exp1,match,87
1,0,2000,5,434.97,psychophysics,558,f,f,word_first,f,TRUE,方形,img/T_ambi40.png,triangle,triangle,1,exp1,mismatch,88
1,0,2000,5,434.97,psychophysics,619,j,j,word_first,j,TRUE,方形,img/S_ambi40.png,square,square,1,exp1,match,89
1,0,2000,5,434.97,psychophysics,530,j,j,word_first,j,TRUE,三角,img/T_ambi40.png,triangle,triangle,1,exp1,match,90
1,0,2000,5,434.97,psychophysics,529,f,f,word_first,f,TRUE,圆形,img/S_ambi40.png,square,square,1,exp1,mismatch,91
1,0,2000,5,434.97,psychophysics,518,j,j,word_first,j,TRUE,方形,img/S_ambi40.png,square,square,1,exp1,match,92
1,0,2000,5,434.97,psychophysics,511,j,j,word_first,j,TRUE,三角,img/T_ambi40.png,triangle,triangle,1,exp1,match,93
1,0,2000,5,434.97,psychophysics,630,j,j,word_first,j,TRUE,圆形,img/C_ambi40.png,circle,circle,1,exp1,match,94
1,0,2000,5,434.97,psychophysics,610,f,f,word_first,f,TRUE,方形,img/C_ambi40.png,circle,circle,1,exp1,mismatch,95
1,0,2000,5,434.97,psychophysics,525,f,f,word_first,f,TRUE,三角,img/S_ambi40.png,square,square,1,exp1,mismatch,96
1,0,2000,5,434.97,psychophysics,560,f,f,word_first,f,TRUE,圆形,img/S_ambi40.png,square,square,1,exp1,mismatch,97
1,0,2000,5,434.97,psychophysics,532,f,f,word_first,f,TRUE,方形,img/C_ambi40.png,circle,circle,1,exp1,mismatch,98
1,0,2000,5,434.97,psychophysics,586,f,f,word_first,f,TRUE,方形,img/T_ambi40.png,triangle,triangle,1,exp1,mismatch,99
1,0,2000,5,434.97,psychophysics,620,f,f,word_first,f,TRUE,三角,img/C_ambi40.png,circle,circle,1,exp1,mismatch,100
1,0,2000,5,434.97,psychophysics,537,f,f,word_first,f,TRUE,圆形,img/T_ambi40.png,triangle,triangle,1,exp1,mismatch,101
1,0,2000,5,434.97,psychophysics,537,j,j,word_first,j,TRUE,三角,img/T_ambi40.png,triangle,triangle,1,exp1,match,102
1,0,2000,5,434.97,psychophysics,592,j,j,word_first,j,TRUE,方形,img/S_ambi40.png,square,square,1,exp1,match,103
1,0,2000,5,434.97,psychophysics,638,j,j,word_first,j,TRUE,方形,img/S_ambi40.png,square,square,1,exp1,match,104
1,0,2000,5,434.97,psychophysics,693,j,j,word_first,j,TRUE,圆形,img/C_ambi40.png,circle,circle,1,exp1,match,105
1,0,2000,5,434.97,psychophysics,572,f,f,word_first,f,TRUE,三角,img/S_ambi40.png,square,square,1,exp1,mismatch,106
1,0,2000,5,434.97,psychophysics,546,j,j,word_first,j,TRUE,三角,img/T_ambi40.png,triangle,triangle,1,exp1,match,107
1,0,2000,5,434.97,psychophysics,584,j,j,word_first,j,TRUE,圆形,img/C_ambi40.png,circle,circle,1,exp1,match,108
1,0,2000,5,434.97,psychophysics,549,f,f,word_first,f,TRUE,圆形,img/T_ambi40.png,triangle,triangle,1,exp1,mismatch,109
1,0,2000,5,434.97,psychophysics,570,j,j,word_first,j,TRUE,三角,img/T_ambi40.png,triangle,triangle,1,exp1,match,110
1,0,2000,5,434.97,psychophysics,518,j,j,word_first,j,TRUE,方形,img/S_ambi40.png,square,square,1,exp1,match,111
1,0,2000,5,434.97,psychophysics,521,j,j,word_first,j,TRUE,三角,img/T_ambi40.png,triangle,triangle,1,exp1,match,112
1,0,2000,5,434.97,psychophysics,430,j,j,word_first,j,TRUE,圆形,img/C_ambi40.png,circle,circle,1,exp1,match,113
1,0,2000,5,434.97,psychophysics,566,f,f,word_first,f,TRUE,圆形,img/S_ambi40.png,square,square,1,exp1,mismatch,114
1,0,2000,5,434.97,psychophysics,582,j,j,word_first,j,TRUE,圆形,img/C_ambi40.png,circle,circle,1,exp1,match,115
1,0,2000,5,434.97,psychophysics,577,f,f,word_first,f,TRUE,三角,img/S_ambi40.png,square,square,1,exp1,mismatch,116
1,0,2000,5,434.97,psychophysics,575,f,f,word_first,f,TRUE,三角,img/C_ambi40.png,circle,circle,1,exp1,mismatch,117
1,0,2000,5,434.97,psychophysics,563,f,f,word_first,f,TRUE,方形,img/T_ambi40.png,triangle,triangle,1,exp1,mismatch,118
1,0,2000,5,434.97,psychophysics,519,j,j,word_first,j,TRUE,方形,img/S_ambi40.png,square,square,1,exp1,match,119
1,0,2000,5,434.97,psychophysics,693,f,f,word_first,f,TRUE,方形,img/C_ambi40.png,circle,circle,1,exp1,mismatch,120
1,0,2000,5,434.97,psychophysics,682,f,f,word_first,f,TRUE,三角,img/C_ambi40.png,circle,circle,1,exp1,mismatch,121
1,0,2000,5,434.97,psychophysics,539,j,j,word_first,j,TRUE,三角,img/T_ambi40.png,triangle,triangle,1,exp1,match,122
1,0,2000,5,434.97,psychophysics,478,j,j,word_first,j,TRUE,方形,img/S_ambi40.png,square,square,1,exp1,match,123
1,0,2000,5,434.97,psychophysics,526,j,j,word_first,j,TRUE,方形,img/S_ambi40.png,square,square,1,exp1,match,124
1,0,2000,5,434.97,psychophysics,488,j,j,word_first,j,TRUE,圆形,img/C_ambi40.png,circle,circle,1,exp1,match,125
1,0,2000,5,434.97,psychophysics,537,f,f,word_first,f,TRUE,方形,img/C_ambi40.png,circle,circle,1,exp1,mismatch,126
1,0,2000,5,434.97,psychophysics,595,f,f,word_first,f,TRUE,方形,img/T_ambi40.png,triangle,triangle,1,exp1,mismatch,127
1,0,2000,5,434.97,psychophysics,1051,f,f,word_first,f,TRUE,三角,img/S_ambi40.png,square,square,1,exp1,mismatch,128
1,0,2000,5,434.97,psychophysics,589,f,f,word_first,f,TRUE,圆形,img/S_ambi40.png,square,square,1,exp1,mismatch,129
1,0,2000,5,434.97,psychophysics,533,j,j,word_first,j,TRUE,圆形,img/C_ambi40.png,circle,circle,1,exp1,match,130
1,0,2000,5,434.97,psychophysics,595,f,f,word_first,f,TRUE,圆形,img/T_ambi40.png,triangle,triangle,1,exp1,mismatch,131
1,0,2000,5,434.97,psychophysics,541,j,j,word_first,j,TRUE,三角,img/T_ambi40.png,triangle,triangle,1,exp1,match,132
1,0,2000,5,434.97,psychophysics,575,f,f,word_first,f,TRUE,三角,img/S_ambi40.png,square,square,1,exp1,mismatch,134
1,0,2000,5,434.97,psychophysics,667,f,f,word_first,f,TRUE,圆形,img/S_ambi40.png,square,square,1,exp1,mismatch,135
1,0,2000,5,434.97,psychophysics,608,f,f,word_first,f,TRUE,方形,img/C_ambi40.png,circle,circle,1,exp1,mismatch,136
1,0,2000,5,434.97,psychophysics,524,j,j,word_first,j,TRUE,三角,img/T_ambi40.png,triangle,triangle,1,exp1,match,137
1,0,2000,5,434.97,psychophysics,558,j,j,word_first,j,TRUE,圆形,img/C_ambi40.png,circle,circle,1,exp1,match,138
1,0,2000,5,434.97,psychophysics,589,f,f,word_first,f,TRUE,圆形,img/T_ambi40.png,triangle,triangle,1,exp1,mismatch,139
1,0,2000,5,434.97,psychophysics,544,j,j,word_first,j,TRUE,圆形,img/C_ambi40.png,circle,circle,1,exp1,match,140
1,0,2000,5,434.97,psychophysics,501,j,j,word_first,j,TRUE,方形,img/S_ambi40.png,square,square,1,exp1,match,141
1,0,2000,5,434.97,psychophysics,567,f,f,word_first,f,TRUE,方形,img/T_ambi40.png,triangle,triangle,1,exp1,mismatch,142
1,0,2000,5,434.97,psychophysics,625,f,f,word_first,f,TRUE,三角,img/C_ambi40.png,circle,circle,1,exp1,mismatch,143
1,0,2000,5,434.97,psychophysics,478,j,j,word_first,j,TRUE,三角,img/T_ambi40.png,triangle,triangle,1,exp1,match,144
1,0,2000,5,434.97,psychophysics,580,f,f,word_first,f,TRUE,方形,img/C_ambi40.png,circle,circle,1,exp1,mismatch,145
1,0,2000,5,434.97,psychophysics,622,f,f,word_first,f,TRUE,圆形,img/T_ambi40.png,triangle,triangle,1,exp1,mismatch,146
1,0,2000,5,434.97,psychophysics,562,f,f,word_first,f,TRUE,三角,img/C_ambi40.png,circle,circle,1,exp1,mismatch,147
1,0,2000,5,434.97,psychophysics,483,j,j,word_first,j,TRUE,三角,img/T_ambi40.png,triangle,triangle,1,exp1,match,148
1,0,2000,5,434.97,psychophysics,510,j,j,word_first,j,TRUE,三角,img/T_ambi40.png,triangle,triangle,1,exp1,match,149
1,0,2000,5,434.97,psychophysics,682,f,f,word_first,f,TRUE,方形,img/T_ambi40.png,triangle,triangle,1,exp1,mismatch,151
1,0,2000,5,434.97,psychophysics,614,j,j,word_first,j,TRUE,方形,img/S_ambi40.png,square,square,1,exp1,match,152
1,0,2000,5,434.97,psychophysics,650,f,f,word_first,f,TRUE,圆形,img/S_ambi40.png,square,square,1,exp1,mismatch,153
1,0,2000,5,434.97,psychophysics,899,j,j,word_first,j,TRUE,圆形,img/C_ambi40.png,circle,circle,1,exp1,match,154
1,0,2000,5,434.97,psychophysics,517,j,j,word_first,j,TRUE,圆形,img/C_ambi40.png,circle,circle,1,exp1,match,155
1,0,2000,5,434.97,psychophysics,569,j,j,word_first,j,TRUE,方形,img/S_ambi40.png,square,square,1,exp1,match,156
1,0,2000,5,434.97,psychophysics,641,f,f,word_first,f,TRUE,圆形,img/T_ambi40.png,triangle,triangle,1,exp1,mismatch,157
1,0,2000,5,434.97,psychophysics,645,f,f,word_first,f,TRUE,三角,img/C_ambi40.png,circle,circle,1,exp1,mismatch,158
1,0,2000,5,434.97,psychophysics,523,j,j,word_first,j,TRUE,方形,img/S_ambi40.png,square,square,1,exp1,match,159
1,0,2000,5,434.97,psychophysics,594,j,j,word_first,j,TRUE,三角,img/T_ambi40.png,triangle,triangle,1,exp1,match,160
1,0,2000,5,434.97,psychophysics,566,j,j,word_first,j,TRUE,三角,img/T_ambi40.png,triangle,triangle,1,exp1,match,161
1,0,2000,5,434.97,psychophysics,556,j,j,word_first,j,TRUE,圆形,img/C_ambi40.png,circle,circle,1,exp1,match,162
1,0,2000,5,434.97,psychophysics,526,j,j,word_first,j,TRUE,圆形,img/C_ambi40.png,circle,circle,1,exp1,match,163
1,0,2000,5,434.97,psychophysics,569,f,f,word_first,f,TRUE,方形,img/T_ambi40.png,triangle,triangle,1,exp1,mismatch,164
1,0,2000,5,434.97,psychophysics,496,j,j,word_first,j,TRUE,方形,img/S_ambi40.png,square,square,1,exp1,match,166
1,0,2000,5,434.97,psychophysics,616,f,f,word_first,f,TRUE,方形,img/C_ambi40.png,circle,circle,1,exp1,mismatch,167
1,0,2000,5,434.97,psychophysics,639,f,f,word_first,f,TRUE,三角,img/S_ambi40.png,square,square,1,exp1,mismatch,168
1,0,2000,5,434.97,psychophysics,649,f,f,word_first,f,TRUE,圆形,img/T_ambi40.png,triangle,triangle,1,exp1,mismatch,169
1,0,2000,5,434.97,psychophysics,574,j,j,word_first,j,TRUE,圆形,img/C_ambi40.png,circle,circle,1,exp1,match,170
1,0,2000,5,434.97,psychophysics,517,j,j,word_first,j,TRUE,方形,img/S_ambi40.png,square,square,1,exp1,match,171
1,0,2000,5,434.97,psychophysics,609,f,f,word_first,f,TRUE,方形,img/T_ambi40.png,triangle,triangle,1,exp1,mismatch,172
1,0,2000,5,434.97,psychophysics,536,j,j,word_first,j,TRUE,三角,img/T_ambi40.png,triangle,triangle,1,exp1,match,173
1,0,2000,5,434.97,psychophysics,505,j,j,word_first,j,TRUE,三角,img/T_ambi40.png,triangle,triangle,1,exp1,match,174
1,0,2000,5,434.97,psychophysics,626,f,f,word_first,f,TRUE,三角,img/S_ambi40.png,square,square,1,exp1,mismatch,175
1,0,2000,5,434.97,psychophysics,598,f,f,word_first,f,TRUE,三角,img/C_ambi40.png,circle,circle,1,exp1,mismatch,176
1,0,2000,5,434.97,psychophysics,617,f,f,word_first,f,TRUE,圆形,img/S_ambi40.png,square,square,1,exp1,mismatch,177
1,0,2000,5,434.97,psychophysics,606,f,f,word_first,f,TRUE,方形,img/C_ambi40.png,circle,circle,1,exp1,mismatch,178
1,0,2000,5,434.97,psychophysics,556,j,j,word_first,j,TRUE,圆形,img/C_ambi40.png,circle,circle,1,exp1,match,179
1,0,2000,5,434.97,psychophysics,551,j,j,word_first,j,TRUE,方形,img/S_ambi40.png,square,square,1,exp1,match,180
1,0,2000,5,434.97,psychophysics,584,j,j,word_first,j,TRUE,方形,img/S_ambi40.png,square,square,1,exp1,match,181
1,0,2000,5,434.97,psychophysics,612,j,j,word_first,j,TRUE,三角,img/T_ambi40.png,triangle,triangle,1,exp1,match,182
1,0,2000,5,434.97,psychophysics,562,f,f,word_first,f,TRUE,三角,img/C_ambi40.png,circle,circle,1,exp1,mismatch,183
1,0,2000,5,434.97,psychophysics,493,j,j,word_first,j,TRUE,圆形,img/C_ambi40.png,circle,circle,1,exp1,match,184
1,0,2000,5,434.97,psychophysics,528,f,f,word_first,f,TRUE,圆形,img/T_ambi40.png,triangle,triangle,1,exp1,mismatch,185
1,0,2000,5,434.97,psychophysics,592,f,f,word_first,f,TRUE,方形,img/T_ambi40.png,triangle,triangle,1,exp1,mismatch,186
1,0,2000,5,434.97,psychophysics,601,f,f,word_first,f,TRUE,圆形,img/S_ambi40.png,square,square,1,exp1,mismatch,187
1,0,2000,5,434.97,psychophysics,621,f,f,word_first,f,TRUE,三角,img/S_ambi40.png,square,square,1,exp1,mismatch,188
1,0,2000,5,434.97,psychophysics,506,j,j,word_first,j,TRUE,圆形,img/C_ambi40.png,circle,circle,1,exp1,match,189
1,0,2000,5,434.97,psychophysics,522,j,j,word_first,j,TRUE,三角,img/T_ambi40.png,triangle,triangle,1,exp1,match,190
1,0,2000,5,434.97,psychophysics,552,j,j,word_first,j,TRUE,方形,img/S_ambi40.png,square,square,1,exp1,match,191
1,0,2000,5,434.97,psychophysics,785,f,f,word_first,f,TRUE,方形,img/C_ambi40.png,circle,circle,1,exp1,mismatch,192
1,0,2000,5,434.97,psychophysics,723,f,f,word_first,f,TRUE,圆形,img/S_ambi40.png,square,square,1,exp1,mismatch,193
1,0,2000,5,434.97,psychophysics,715,f,f,word_first,f,TRUE,方形,img/C_ambi40.png,circle,circle,1,exp1,mismatch,194
1,0,2000,5,434.97,psychophysics,560,j,j,word_first,j,TRUE,三角,img/T_ambi40.png,triangle,triangle,1,exp1,match,195
1,0,2000,5,434.97,psychophysics,587,f,f,word_first,f,TRUE,三角,img/S_ambi40.png,square,square,1,exp1,mismatch,196
1,0,2000,5,434.97,psychophysics,564,f,f,word_first,f,TRUE,三角,img/C_ambi40.png,circle,circle,1,exp1,mismatch,197
1,0,2000,5,434.97,psychophysics,560,j,j,word_first,j,TRUE,方形,img/S_ambi40.png,square,square,1,exp1,match,198
1,0,2000,5,434.97,psychophysics,576,j,j,word_first,j,TRUE,方形,img/S_ambi40.png,square,square,1,exp1,match,199
1,0,2000,5,434.97,psychophysics,543,j,j,word_first,j,TRUE,圆形,img/C_ambi40.png,circle,circle,1,exp1,match,200
1,0,2000,5,434.97,psychophysics,582,f,f,word_first,f,TRUE,方形,img/T_ambi40.png,triangle,triangle,1,exp1,mismatch,201
1,0,2000,5,434.97,psychophysics,511,j,j,word_first,j,TRUE,三角,img/T_ambi40.png,triangle,triangle,1,exp1,match,202
1,0,2000,5,434.97,psychophysics,535,j,j,word_first,j,TRUE,圆形,img/C_ambi40.png,circle,circle,1,exp1,match,203
1,0,2000,5,434.97,psychophysics,619,f,f,word_first,f,TRUE,圆形,img/T_ambi40.png,triangle,triangle,1,exp1,mismatch,204
1,0,2000,5,434.97,psychophysics,509,j,j,word_first,j,TRUE,方形,img/S_ambi40.png,square,square,1,exp1,match,205
1,0,2000,5,434.97,psychophysics,629,f,f,word_first,f,TRUE,方形,img/T_ambi40.png,triangle,triangle,1,exp1,mismatch,206
1,0,2000,5,434.97,psychophysics,652,f,f,word_first,f,TRUE,三角,img/S_ambi40.png,square,square,1,exp1,mismatch,207
1,0,2000,5,434.97,psychophysics,509,j,j,word_first,j,TRUE,方形,img/S_ambi40.png,square,square,1,exp1,match,208
1,0,2000,5,434.97,psychophysics,531,j,j,word_first,j,TRUE,圆形,img/C_ambi40.png,circle,circle,1,exp1,match,209
1,0,2000,5,434.97,psychophysics,474,j,j,word_first,j,TRUE,圆形,img/C_ambi40.png,circle,circle,1,exp1,match,210
1,0,2000,5,434.97,psychophysics,542,f,f,word_first,f,TRUE,三角,img/C_ambi40.png,circle,circle,1,exp1,mismatch,211
1,0,2000,5,434.97,psychophysics,572,f,f,word_first,f,TRUE,方形,img/C_ambi40.png,circle,circle,1,exp1,mismatch,212
1,0,2000,5,434.97,psychophysics,592,f,f,word_first,f,TRUE,圆形,img/S_ambi40.png,square,square,1,exp1,mismatch,213
1,0,2000,5,434.97,psychophysics,542,j,j,word_first,j,TRUE,三角,img/T_ambi40.png,triangle,triangle,1,exp1,match,214
1,0,2000,5,434.97,psychophysics,533,j,j,word_first,j,TRUE,三角,img/T_ambi40.png,triangle,triangle,1,exp1,match,215
1,0,2000,5,434.97,psychophysics,582,f,f,word_first,f,TRUE,圆形,img/T_ambi40.png,triangle,triangle,1,exp1,mismatch,216
1,0,2000,5,434.97,psychophysics,494,j,j,word_first,j,TRUE,圆形,img/C_ambi40.png,circle,circle,1,exp1,match,217
1,0,2000,5,434.97,psychophysics,594,j,j,word_first,j,TRUE,三角,img/T_ambi40.png,triangle,triangle,1,exp1,match,218
1,0,2000,5,434.97,psychophysics,554,j,j,word_first,j,TRUE,方形,img/S_ambi40.png,square,square,1,exp1,match,219
1,0,2000,5,434.97,psychophysics,464,j,j,word_first,j,TRUE,方形,img/S_ambi40.png,square,square,1,exp1,match,220
1,0,2000,5,434.97,psychophysics,458,j,j,word_first,j,TRUE,圆形,img/C_ambi40.png,circle,circle,1,exp1,match,221
1,0,2000,5,434.97,psychophysics,570,f,f,word_first,f,TRUE,圆形,img/S_ambi40.png,square,square,1,exp1,mismatch,222
1,0,2000,5,434.97,psychophysics,628,f,f,word_first,f,TRUE,方形,img/T_ambi40.png,triangle,triangle,1,exp1,mismatch,223
1,0,2000,5,434.97,psychophysics,525,j,j,word_first,j,TRUE,三角,img/T_ambi40.png,triangle,triangle,1,exp1,match,224
1,0,2000,5,434.97,psychophysics,560,f,f,word_first,f,TRUE,三角,img/C_ambi40.png,circle,circle,1,exp1,mismatch,225
1,0,2000,5,434.97,psychophysics,578,f,f,word_first,f,TRUE,圆形,img/T_ambi40.png,triangle,triangle,1,exp1,mismatch,226
1,0,2000,5,434.97,psychophysics,629,f,f,word_first,f,TRUE,三角,img/S_ambi40.png,square,square,1,exp1,mismatch,227
1,0,2000,5,434.97,psychophysics,678,f,f,word_first,f,TRUE,方形,img/C_ambi40.png,circle,circle,1,exp1,mismatch,228
1,0,2000,5,434.97,psychophysics,546,j,j,word_first,j,TRUE,方形,img/S_ambi40.png,square,square,1,exp1,match,229
1,0,2000,5,434.97,psychophysics,532,j,j,word_first,j,TRUE,三角,img/T_ambi40.png,triangle,triangle,1,exp1,match,230
1,0,2000,5,434.97,psychophysics,610,f,f,word_first,f,TRUE,圆形,img/T_ambi40.png,triangle,triangle,1,exp1,mismatch,231
1,0,2000,5,434.97,psychophysics,715,f,f,word_first,f,TRUE,三角,img/C_ambi40.png,circle,circle,1,exp1,mismatch,232
1,0,2000,5,434.97,psychophysics,587,j,j,word_first,j,TRUE,方形,img/S_ambi40.png,square,square,1,exp1,match,233
1,0,2000,5,434.97,psychophysics,566,j,j,word_first,j,TRUE,三角,img/T_ambi40.png,triangle,triangle,1,exp1,match,234
1,0,2000,5,434.97,psychophysics,518,j,j,word_first,j,TRUE,圆形,img/C_ambi40.png,circle,circle,1,exp1,match,235
1,0,2000,5,434.97,psychophysics,631,f,f,word_first,f,TRUE,三角,img/S_ambi40.png,square,square,1,exp1,mismatch,236
1,0,2000,5,434.97,psychophysics,556,j,j,word_first,j,TRUE,圆形,img/C_ambi40.png,circle,circle,1,exp1,match,237
1,0,2000,5,434.97,psychophysics,612,f,f,word_first,f,TRUE,圆形,img/S_ambi40.png,square,square,1,exp1,mismatch,238
1,0,2000,5,434.97,psychophysics,702,f,f,word_first,f,TRUE,方形,img/C_ambi40.png,circle,circle,1,exp1,mismatch,239
1,0,2000,5,434.97,psychophysics,657,f,f,word_first,f,TRUE,方形,img/T_ambi40.png,triangle,triangle,1,exp1,mismatch,240
1,0,2000,5,434.97,psychophysics,961,j,j,simultaneous,j,TRUE,圆形,img/C_ambi40.png,circle,circle,1,exp1,match,1
1,0,2000,5,434.97,psychophysics,697,j,j,simultaneous,j,TRUE,方形,img/S_ambi40.png,square,square,1,exp1,match,3
1,0,2000,5,434.97,psychophysics,799,f,f,simultaneous,f,TRUE,三角,img/C_ambi40.png,circle,circle,1,exp1,mismatch,4
1,0,2000,5,434.97,psychophysics,875,f,f,simultaneous,f,TRUE,方形,img/T_ambi40.png,triangle,triangle,1,exp1,mismatch,5
1,0,2000,5,434.97,psychophysics,823,f,f,simultaneous,f,TRUE,三角,img/S_ambi40.png,square,square,1,exp1,mismatch,6
1,0,2000,5,434.97,psychophysics,737,j,j,simultaneous,j,TRUE,方形,img/S_ambi40.png,square,square,1,exp1,match,7
1,0,2000,5,434.97,psychophysics,708,j,j,simultaneous,j,TRUE,三角,img/T_ambi40.png,triangle,triangle,1,exp1,match,8
1,0,2000,5,434.97,psychophysics,660,j,j,simultaneous,j,TRUE,圆形,img/C_ambi40.png,circle,circle,1,exp1,match,9
1,0,2000,5,434.97,psychophysics,767,f,f,simultaneous,f,TRUE,方形,img/C_ambi40.png,circle,circle,1,exp1,mismatch,10
1,0,2000,5,434.97,psychophysics,883,f,f,simultaneous,f,TRUE,圆形,img/S_ambi40.png,square,square,1,exp1,mismatch,11
1,0,2000,5,434.97,psychophysics,733,j,j,simultaneous,j,TRUE,三角,img/T_ambi40.png,triangle,triangle,1,exp1,match,12
1,0,2000,5,434.97,psychophysics,769,f,f,simultaneous,f,TRUE,圆形,img/T_ambi40.png,triangle,triangle,1,exp1,mismatch,13
1,0,2000,5,434.97,psychophysics,649,j,j,simultaneous,j,TRUE,圆形,img/C_ambi40.png,circle,circle,1,exp1,match,14
1,0,2000,5,434.97,psychophysics,735,f,f,simultaneous,f,TRUE,三角,img/C_ambi40.png,circle,circle,1,exp1,mismatch,15
1,0,2000,5,434.97,psychophysics,894,f,f,simultaneous,f,TRUE,方形,img/T_ambi40.png,triangle,triangle,1,exp1,mismatch,16
1,0,2000,5,434.97,psychophysics,676,j,j,simultaneous,j,TRUE,三角,img/T_ambi40.png,triangle,triangle,1,exp1,match,17
1,0,2000,5,434.97,psychophysics,621,j,j,simultaneous,j,TRUE,三角,img/T_ambi40.png,triangle,triangle,1,exp1,match,18
1,0,2000,5,434.97,psychophysics,731,f,f,simultaneous,f,TRUE,方形,img/C_ambi40.png,circle,circle,1,exp1,mismatch,19
1,0,2000,5,434.97,psychophysics,743,j,j,simultaneous,j,TRUE,方形,img/S_ambi40.png,square,square,1,exp1,match,20
1,0,2000,5,434.97,psychophysics,705,f,f,simultaneous,f,TRUE,圆形,img/S_ambi40.png,square,square,1,exp1,mismatch,21
1,0,2000,5,434.97,psychophysics,644,j,j,simultaneous,j,TRUE,方形,img/S_ambi40.png,square,square,1,exp1,match,22
1,0,2000,5,434.97,psychophysics,662,f,f,simultaneous,f,TRUE,三角,img/S_ambi40.png,square,square,1,exp1,mismatch,23
1,0,2000,5,434.97,psychophysics,661,j,j,simultaneous,j,TRUE,圆形,img/C_ambi40.png,circle,circle,1,exp1,match,24
1,0,2000,5,434.97,psychophysics,808,j,j,simultaneous,j,TRUE,方形,img/S_ambi40.png,square,square,1,exp1,match,25
1,0,2000,5,434.97,psychophysics,764,f,f,simultaneous,f,TRUE,方形,img/T_ambi40.png,triangle,triangle,1,exp1,mismatch,26
1,0,2000,5,434.97,psychophysics,638,j,j,simultaneous,j,TRUE,圆形,img/C_ambi40.png,circle,circle,1,exp1,match,27
1,0,2000,5,434.97,psychophysics,777,f,f,simultaneous,f,TRUE,方形,img/C_ambi40.png,circle,circle,1,exp1,mismatch,28
1,0,2000,5,434.97,psychophysics,914,f,f,simultaneous,f,TRUE,圆形,img/S_ambi40.png,square,square,1,exp1,mismatch,29
1,0,2000,5,434.97,psychophysics,799,f,f,simultaneous,f,TRUE,圆形,img/T_ambi40.png,triangle,triangle,1,exp1,mismatch,30
1,0,2000,5,434.97,psychophysics,694,j,j,simultaneous,j,TRUE,三角,img/T_ambi40.png,triangle,triangle,1,exp1,match,31
1,0,2000,5,434.97,psychophysics,723,f,f,simultaneous,f,TRUE,三角,img/S_ambi40.png,square,square,1,exp1,mismatch,32
1,0,2000,5,434.97,psychophysics,621,j,j,simultaneous,j,TRUE,三角,img/T_ambi40.png,triangle,triangle,1,exp1,match,33
1,0,2000,5,434.97,psychophysics,672,f,f,simultaneous,f,TRUE,三角,img/C_ambi40.png,circle,circle,1,exp1,mismatch,34
1,0,2000,5,434.97,psychophysics,636,j,j,simultaneous,j,TRUE,方形,img/S_ambi40.png,square,square,1,exp1,match,35
1,0,2000,5,434.97,psychophysics,599,j,j,simultaneous,j,TRUE,圆形,img/C_ambi40.png,circle,circle,1,exp1,match,36
1,0,2000,5,434.97,psychophysics,759,f,f,simultaneous,f,TRUE,圆形,img/T_ambi40.png,triangle,triangle,1,exp1,mismatch,37
1,0,2000,5,434.97,psychophysics,622,j,j,simultaneous,j,TRUE,三角,img/T_ambi40.png,triangle,triangle,1,exp1,match,38
1,0,2000,5,434.97,psychophysics,667,f,f,simultaneous,f,TRUE,三角,img/C_ambi40.png,circle,circle,1,exp1,mismatch,39
1,0,2000,5,434.97,psychophysics,729,f,f,simultaneous,f,TRUE,三角,img/S_ambi40.png,square,square,1,exp1,mismatch,40
1,0,2000,5,434.97,psychophysics,604,j,j,simultaneous,j,TRUE,圆形,img/C_ambi40.png,circle,circle,1,exp1,match,41
1,0,2000,5,434.97,psychophysics,670,f,f,simultaneous,f,TRUE,方形,img/T_ambi40.png,triangle,triangle,1,exp1,mismatch,42
1,0,2000,5,434.97,psychophysics,724,j,j,simultaneous,j,TRUE,方形,img/S_ambi40.png,square,square,1,exp1,match,43
1,0,2000,5,434.97,psychophysics,657,f,f,simultaneous,f,TRUE,圆形,img/S_ambi40.png,square,square,1,exp1,mismatch,44
1,0,2000,5,434.97,psychophysics,689,j,j,simultaneous,j,TRUE,三角,img/T_ambi40.png,triangle,triangle,1,exp1,match,45
1,0,2000,5,434.97,psychophysics,742,j,j,simultaneous,j,TRUE,方形,img/S_ambi40.png,square,square,1,exp1,match,46
1,0,2000,5,434.97,psychophysics,738,f,f,simultaneous,f,TRUE,方形,img/C_ambi40.png,circle,circle,1,exp1,mismatch,47
1,0,2000,5,434.97,psychophysics,654,j,j,simultaneous,j,TRUE,圆形,img/C_ambi40.png,circle,circle,1,exp1,match,48
1,0,2000,5,434.97,psychophysics,823,f,f,simultaneous,f,TRUE,圆形,img/S_ambi40.png,square,square,1,exp1,mismatch,49
1,0,2000,5,434.97,psychophysics,573,j,j,simultaneous,j,TRUE,方形,img/S_ambi40.png,square,square,1,exp1,match,50
1,0,2000,5,434.97,psychophysics,735,f,f,simultaneous,f,TRUE,三角,img/S_ambi40.png,square,square,1,exp1,mismatch,51
1,0,2000,5,434.97,psychophysics,711,j,j,simultaneous,j,TRUE,方形,img/S_ambi40.png,square,square,1,exp1,match,52
1,0,2000,5,434.97,psychophysics,806,f,f,simultaneous,f,TRUE,方形,img/T_ambi40.png,triangle,triangle,1,exp1,mismatch,53
1,0,2000,5,434.97,psychophysics,584,j,j,simultaneous,j,TRUE,圆形,img/C_ambi40.png,circle,circle,1,exp1,match,54
1,0,2000,5,434.97,psychophysics,771,j,j,simultaneous,j,TRUE,三角,img/T_ambi40.png,triangle,triangle,1,exp1,match,55
1,0,2000,5,434.97,psychophysics,789,f,f,simultaneous,f,TRUE,方形,img/C_ambi40.png,circle,circle,1,exp1,mismatch,56
1,0,2000,5,434.97,psychophysics,793,j,j,simultaneous,j,TRUE,三角,img/T_ambi40.png,triangle,triangle,1,exp1,match,57
1,0,2000,5,434.97,psychophysics,662,f,f,simultaneous,f,TRUE,三角,img/C_ambi40.png,circle,circle,1,exp1,mismatch,58
1,0,2000,5,434.97,psychophysics,654,j,j,simultaneous,j,TRUE,圆形,img/C_ambi40.png,circle,circle,1,exp1,match,59
1,0,2000,5,434.97,psychophysics,1017,f,f,simultaneous,f,TRUE,圆形,img/T_ambi40.png,triangle,triangle,1,exp1,mismatch,60
1,0,2000,5,434.97,psychophysics,995,f,f,simultaneous,f,TRUE,圆形,img/T_ambi40.png,triangle,triangle,1,exp1,mismatch,61
1,0,2000,5,434.97,psychophysics,768,f,f,simultaneous,f,TRUE,圆形,img/S_ambi40.png,square,square,1,exp1,mismatch,62
1,0,2000,5,434.97,psychophysics,685,j,j,simultaneous,j,TRUE,三角,img/T_ambi40.png,triangle,triangle,1,exp1,match,63
1,0,2000,5,434.97,psychophysics,658,j,j,simultaneous,j,TRUE,圆形,img/C_ambi40.png,circle,circle,1,exp1,match,64
1,0,2000,5,434.97,psychophysics,638,j,j,simultaneous,j,TRUE,三角,img/T_ambi40.png,triangle,triangle,1,exp1,match,65
1,0,2000,5,434.97,psychophysics,675,j,j,simultaneous,j,TRUE,方形,img/S_ambi40.png,square,square,1,exp1,match,66
1,0,2000,5,434.97,psychophysics,741,f,f,simultaneous,f,TRUE,方形,img/C_ambi40.png,circle,circle,1,exp1,mismatch,67
1,0,2000,5,434.97,psychophysics,612,j,j,simultaneous,j,TRUE,圆形,img/C_ambi40.png,circle,circle,1,exp1,match,68
1,0,2000,5,434.97,psychophysics,690,f,f,simultaneous,f,TRUE,三角,img/S_ambi40.png,square,square,1,exp1,mismatch,69
1,0,2000,5,434.97,psychophysics,611,j,j,simultaneous,j,TRUE,方形,img/S_ambi40.png,square,square,1,exp1,match,70
1,0,2000,5,434.97,psychophysics,642,f,f,simultaneous,f,TRUE,方形,img/T_ambi40.png,triangle,triangle,1,exp1,mismatch,71
1,0,2000,5,434.97,psychophysics,593,j,j,simultaneous,j,TRUE,方形,img/S_ambi40.png,square,square,1,exp1,match,73
1,0,2000,5,434.97,psychophysics,636,j,j,simultaneous,j,TRUE,圆形,img/C_ambi40.png,circle,circle,1,exp1,match,74
1,0,2000,5,434.97,psychophysics,604,j,j,simultaneous,j,TRUE,方形,img/S_ambi40.png,square,square,1,exp1,match,75
1,0,2000,5,434.97,psychophysics,610,j,j,simultaneous,j,TRUE,圆形,img/C_ambi40.png,circle,circle,1,exp1,match,76
1,0,2000,5,434.97,psychophysics,686,j,j,simultaneous,j,TRUE,三角,img/T_ambi40.png,triangle,triangle,1,exp1,match,77
1,0,2000,5,434.97,psychophysics,750,f,f,simultaneous,f,TRUE,三角,img/S_ambi40.png,square,square,1,exp1,mismatch,78
1,0,2000,5,434.97,psychophysics,829,f,f,simultaneous,f,TRUE,圆形,img/S_ambi40.png,square,square,1,exp1,mismatch,79
1,0,2000,5,434.97,psychophysics,640,j,j,simultaneous,j,TRUE,三角,img/T_ambi40.png,triangle,triangle,1,exp1,match,80
1,0,2000,5,434.97,psychophysics,673,f,f,simultaneous,f,TRUE,三角,img/C_ambi40.png,circle,circle,1,exp1,mismatch,81
1,0,2000,5,434.97,psychophysics,836,f,f,simultaneous,f,TRUE,方形,img/C_ambi40.png,circle,circle,1,exp1,mismatch,82
1,0,2000,5,434.97,psychophysics,824,f,f,simultaneous,f,TRUE,圆形,img/T_ambi40.png,triangle,triangle,1,exp1,mismatch,83
1,0,2000,5,434.97,psychophysics,821,f,f,simultaneous,f,TRUE,方形,img/T_ambi40.png,triangle,triangle,1,exp1,mismatch,84
1,0,2000,5,434.97,psychophysics,661,f,f,simultaneous,f,TRUE,三角,img/S_ambi40.png,square,square,1,exp1,mismatch,85
1,0,2000,5,434.97,psychophysics,744,j,j,simultaneous,j,TRUE,三角,img/T_ambi40.png,triangle,triangle,1,exp1,match,86
1,0,2000,5,434.97,psychophysics,660,j,j,simultaneous,j,TRUE,三角,img/T_ambi40.png,triangle,triangle,1,exp1,match,87
1,0,2000,5,434.97,psychophysics,704,j,j,simultaneous,j,TRUE,圆形,img/C_ambi40.png,circle,circle,1,exp1,match,88
1,0,2000,5,434.97,psychophysics,789,j,j,simultaneous,j,TRUE,方形,img/S_ambi40.png,square,square,1,exp1,match,89
1,0,2000,5,434.97,psychophysics,716,j,j,simultaneous,j,TRUE,圆形,img/C_ambi40.png,circle,circle,1,exp1,match,90
1,0,2000,5,434.97,psychophysics,676,f,f,simultaneous,f,TRUE,三角,img/C_ambi40.png,circle,circle,1,exp1,mismatch,91
1,0,2000,5,434.97,psychophysics,670,j,j,simultaneous,j,TRUE,方形,img/S_ambi40.png,square,square,1,exp1,match,92
1,0,2000,5,434.97,psychophysics,621,f,f,simultaneous,f,TRUE,圆形,img/S_ambi40.png,square,square,1,exp1,mismatch,93
1,0,2000,5,434.97,psychophysics,792,f,f,simultaneous,f,TRUE,方形,img/C_ambi40.png,circle,circle,1,exp1,mismatch,94
1,0,2000,5,434.97,psychophysics,756,f,f,simultaneous,f,TRUE,圆形,img/T_ambi40.png,triangle,triangle,1,exp1,mismatch,95
1,0,2000,5,434.97,psychophysics,676,f,f,simultaneous,f,TRUE,方形,img/T_ambi40.png,triangle,triangle,1,exp1,mismatch,96
1,0,2000,5,434.97,psychophysics,804,j,j,simultaneous,j,TRUE,三角,img/T_ambi40.png,triangle,triangle,1,exp1,match,97
1,0,2000,5,434.97,psychophysics,776,f,f,simultaneous,f,TRUE,方形,img/C_ambi40.png,circle,circle,1,exp1,mismatch,98
1,0,2000,5,434.97,psychophysics,709,j,j,simultaneous,j,TRUE,方形,img/S_ambi40.png,square,square,1,exp1,match,99
1,0,2000,5,434.97,psychophysics,655,j,j,simultaneous,j,TRUE,方形,img/S_ambi40.png,square,square,1,exp1,match,100
1,0,2000,5,434.97,psychophysics,663,f,f,simultaneous,f,TRUE,方形,img/T_ambi40.png,triangle,triangle,1,exp1,mismatch,101
1,0,2000,5,434.97,psychophysics,608,j,j,simultaneous,j,TRUE,圆形,img/C_ambi40.png,circle,circle,1,exp1,match,102
1,0,2000,5,434.97,psychophysics,836,f,f,simultaneous,f,TRUE,圆形,img/T_ambi40.png,triangle,triangle,1,exp1,mismatch,103
1,0,2000,5,434.97,psychophysics,712,f,f,simultaneous,f,TRUE,三角,img/S_ambi40.png,square,square,1,exp1,mismatch,104
1,0,2000,5,434.97,psychophysics,770,f,f,simultaneous,f,TRUE,三角,img/C_ambi40.png,circle,circle,1,exp1,mismatch,105
1,0,2000,5,434.97,psychophysics,767,f,f,simultaneous,f,TRUE,圆形,img/S_ambi40.png,square,square,1,exp1,mismatch,106
1,0,2000,5,434.97,psychophysics,685,j,j,simultaneous,j,TRUE,三角,img/T_ambi40.png,triangle,triangle,1,exp1,match,107
1,0,2000,5,434.97,psychophysics,635,j,j,simultaneous,j,TRUE,圆形,img/C_ambi40.png,circle,circle,1,exp1,match,108
1,0,2000,5,434.97,psychophysics,557,j,j,simultaneous,j,TRUE,三角,img/T_ambi40.png,triangle,triangle,1,exp1,match,109
1,0,2000,5,434.97,psychophysics,603,f,f,simultaneous,f,TRUE,三角,img/S_ambi40.png,square,square,1,exp1,mismatch,110
1,0,2000,5,434.97,psychophysics,693,f,f,simultaneous,f,TRUE,方形,img/C_ambi40.png,circle,circle,1,exp1,mismatch,111
1,0,2000,5,434.97,psychophysics,623,f,f,simultaneous,f,TRUE,圆形,img/T_ambi40.png,triangle,triangle,1,exp1,mismatch,112
1,0,2000,5,434.97,psychophysics,731,f,f,simultaneous,f,TRUE,三角,img/C_ambi40.png,circle,circle,1,exp1,mismatch,113
1,0,2000,5,434.97,psychophysics,649,j,j,simultaneous,j,TRUE,圆形,img/C_ambi40.png,circle,circle,1,exp1,match,114
1,0,2000,5,434.97,psychophysics,614,j,j,simultaneous,j,TRUE,方形,img/S_ambi40.png,square,square,1,exp1,match,115
1,0,2000,5,434.97,psychophysics,607,j,j,simultaneous,j,TRUE,方形,img/S_ambi40.png,square,square,1,exp1,match,116
1,0,2000,5,434.97,psychophysics,613,j,j,simultaneous,j,TRUE,圆形,img/C_ambi40.png,circle,circle,1,exp1,match,117
1,0,2000,5,434.97,psychophysics,623,j,j,simultaneous,j,TRUE,三角,img/T_ambi40.png,triangle,triangle,1,exp1,match,118
1,0,2000,5,434.97,psychophysics,749,f,f,simultaneous,f,TRUE,方形,img/T_ambi40.png,triangle,triangle,1,exp1,mismatch,119
1,0,2000,5,434.97,psychophysics,809,f,f,simultaneous,f,TRUE,圆形,img/S_ambi40.png,square,square,1,exp1,mismatch,120
1,0,2000,5,434.97,psychophysics,709,j,j,simultaneous,j,TRUE,方形,img/S_ambi40.png,square,square,1,exp1,match,121
1,0,2000,5,434.97,psychophysics,672,j,j,simultaneous,j,TRUE,圆形,img/C_ambi40.png,circle,circle,1,exp1,match,122
1,0,2000,5,434.97,psychophysics,652,j,j,simultaneous,j,TRUE,三角,img/T_ambi40.png,triangle,triangle,1,exp1,match,123
1,0,2000,5,434.97,psychophysics,587,j,j,simultaneous,j,TRUE,三角,img/T_ambi40.png,triangle,triangle,1,exp1,match,124
1,0,2000,5,434.97,psychophysics,620,f,f,simultaneous,f,TRUE,圆形,img/T_ambi40.png,triangle,triangle,1,exp1,mismatch,125
1,0,2000,5,434.97,psychophysics,702,f,f,simultaneous,f,TRUE,三角,img/C_ambi40.png,circle,circle,1,exp1,mismatch,126
1,0,2000,5,434.97,psychophysics,708,f,f,simultaneous,f,TRUE,圆形,img/S_ambi40.png,square,square,1,exp1,mismatch,127
1,0,2000,5,434.97,psychophysics,782,f,f,simultaneous,f,TRUE,方形,img/T_ambi40.png,triangle,triangle,1,exp1,mismatch,128
1,0,2000,5,434.97,psychophysics,675,j,j,simultaneous,j,TRUE,圆形,img/C_ambi40.png,circle,circle,1,exp1,match,129
1,0,2000,5,434.97,psychophysics,839,j,j,simultaneous,j,TRUE,方形,img/S_ambi40.png,square,square,1,exp1,match,130
1,0,2000,5,434.97,psychophysics,682,f,f,simultaneous,f,TRUE,三角,img/S_ambi40.png,square,square,1,exp1,mismatch,131
1,0,2000,5,434.97,psychophysics,791,f,f,simultaneous,f,TRUE,方形,img/C_ambi40.png,circle,circle,1,exp1,mismatch,132
1,0,2000,5,434.97,psychophysics,732,f,f,simultaneous,f,TRUE,圆形,img/S_ambi40.png,square,square,1,exp1,mismatch,133
1,0,2000,5,434.97,psychophysics,724,f,f,simultaneous,f,TRUE,三角,img/S_ambi40.png,square,square,1,exp1,mismatch,134
1,0,2000,5,434.97,psychophysics,690,f,f,simultaneous,f,TRUE,三角,img/C_ambi40.png,circle,circle,1,exp1,mismatch,135
1,0,2000,5,434.97,psychophysics,867,f,f,simultaneous,f,TRUE,方形,img/T_ambi40.png,triangle,triangle,1,exp1,mismatch,136
1,0,2000,5,434.97,psychophysics,614,j,j,simultaneous,j,TRUE,方形,img/S_ambi40.png,square,square,1,exp1,match,137
1,0,2000,5,434.97,psychophysics,629,j,j,simultaneous,j,TRUE,三角,img/T_ambi40.png,triangle,triangle,1,exp1,match,138
1,0,2000,5,434.97,psychophysics,659,j,j,simultaneous,j,TRUE,圆形,img/C_ambi40.png,circle,circle,1,exp1,match,140
1,0,2000,5,434.97,psychophysics,747,f,f,simultaneous,f,TRUE,方形,img/C_ambi40.png,circle,circle,1,exp1,mismatch,141
1,0,2000,5,434.97,psychophysics,780,f,f,simultaneous,f,TRUE,圆形,img/T_ambi40.png,triangle,triangle,1,exp1,mismatch,142
1,0,2000,5,434.97,psychophysics,653,j,j,simultaneous,j,TRUE,方形,img/S_ambi40.png,square,square,1,exp1,match,143
1,0,2000,5,434.97,psychophysics,669,j,j,simultaneous,j,TRUE,圆形,img/C_ambi40.png,circle,circle,1,exp1,match,144
1,0,2000,5,434.97,psychophysics,793,f,f,simultaneous,f,TRUE,圆形,img/T_ambi40.png,triangle,triangle,1,exp1,mismatch,145
1,0,2000,5,434.97,psychophysics,624,j,j,simultaneous,j,TRUE,圆形,img/C_ambi40.png,circle,circle,1,exp1,match,146
1,0,2000,5,434.97,psychophysics,729,f,f,simultaneous,f,TRUE,三角,img/C_ambi40.png,circle,circle,1,exp1,mismatch,147
1,0,2000,5,434.97,psychophysics,791,f,f,simultaneous,f,TRUE,三角,img/S_ambi40.png,square,square,1,exp1,mismatch,148
1,0,2000,5,434.97,psychophysics,657,j,j,simultaneous,j,TRUE,方形,img/S_ambi40.png,square,square,1,exp1,match,149
1,0,2000,5,434.97,psychophysics,831,f,f,simultaneous,f,TRUE,方形,img/T_ambi40.png,triangle,triangle,1,exp1,mismatch,150
1,0,2000,5,434.97,psychophysics,677,j,j,simultaneous,j,TRUE,三角,img/T_ambi40.png,triangle,triangle,1,exp1,match,151
1,0,2000,5,434.97,psychophysics,715,f,f,simultaneous,f,TRUE,圆形,img/S_ambi40.png,square,square,1,exp1,mismatch,152
1,0,2000,5,434.97,psychophysics,829,f,f,simultaneous,f,TRUE,方形,img/C_ambi40.png,circle,circle,1,exp1,mismatch,153
1,0,2000,5,434.97,psychophysics,615,j,j,simultaneous,j,TRUE,圆形,img/C_ambi40.png,circle,circle,1,exp1,match,154
1,0,2000,5,434.97,psychophysics,583,j,j,simultaneous,j,TRUE,方形,img/S_ambi40.png,square,square,1,exp1,match,155
1,0,2000,5,434.97,psychophysics,600,j,j,simultaneous,j,TRUE,三角,img/T_ambi40.png,triangle,triangle,1,exp1,match,156
1,0,2000,5,434.97,psychophysics,651,f,f,simultaneous,f,TRUE,方形,img/T_ambi40.png,triangle,triangle,1,exp1,mismatch,157
1,0,2000,5,434.97,psychophysics,846,f,f,simultaneous,f,TRUE,圆形,img/S_ambi40.png,square,square,1,exp1,mismatch,158
1,0,2000,5,434.97,psychophysics,696,f,f,simultaneous,f,TRUE,圆形,img/T_ambi40.png,triangle,triangle,1,exp1,mismatch,159
1,0,2000,5,434.97,psychophysics,768,f,f,simultaneous,f,TRUE,三角,img/S_ambi40.png,square,square,1,exp1,mismatch,160
1,0,2000,5,434.97,psychophysics,920,f,f,simultaneous,f,TRUE,方形,img/C_ambi40.png,circle,circle,1,exp1,mismatch,161
1,0,2000,5,434.97,psychophysics,636,j,j,simultaneous,j,TRUE,三角,img/T_ambi40.png,triangle,triangle,1,exp1,match,162
1,0,2000,5,434.97,psychophysics,652,j,j,simultaneous,j,TRUE,圆形,img/C_ambi40.png,circle,circle,1,exp1,match,163
1,0,2000,5,434.97,psychophysics,577,j,j,simultaneous,j,TRUE,方形,img/S_ambi40.png,square,square,1,exp1,match,164
1,0,2000,5,434.97,psychophysics,606,j,j,simultaneous,j,TRUE,方形,img/S_ambi40.png,square,square,1,exp1,match,165
1,0,2000,5,434.97,psychophysics,591,f,f,simultaneous,f,TRUE,三角,img/C_ambi40.png,circle,circle,1,exp1,mismatch,166
1,0,2000,5,434.97,psychophysics,611,j,j,simultaneous,j,TRUE,三角,img/T_ambi40.png,triangle,triangle,1,exp1,match,167
1,0,2000,5,434.97,psychophysics,687,j,j,simultaneous,j,TRUE,圆形,img/C_ambi40.png,circle,circle,1,exp1,match,168
1,0,2000,5,434.97,psychophysics,738,j,j,simultaneous,j,TRUE,三角,img/T_ambi40.png,triangle,triangle,1,exp1,match,169
1,0,2000,5,434.97,psychophysics,572,j,j,simultaneous,j,TRUE,圆形,img/C_ambi40.png,circle,circle,1,exp1,match,170
1,0,2000,5,434.97,psychophysics,511,j,j,simultaneous,j,TRUE,圆形,img/C_ambi40.png,circle,circle,1,exp1,match,171
1,0,2000,5,434.97,psychophysics,738,f,f,simultaneous,f,TRUE,三角,img/S_ambi40.png,square,square,1,exp1,mismatch,172
1,0,2000,5,434.97,psychophysics,692,f,f,simultaneous,f,TRUE,三角,img/C_ambi40.png,circle,circle,1,exp1,mismatch,173
1,0,2000,5,434.97,psychophysics,848,f,f,simultaneous,f,TRUE,方形,img/C_ambi40.png,circle,circle,1,exp1,mismatch,174
1,0,2000,5,434.97,psychophysics,771,f,f,simultaneous,f,TRUE,圆形,img/T_ambi40.png,triangle,triangle,1,exp1,mismatch,175
1,0,2000,5,434.97,psychophysics,607,j,j,simultaneous,j,TRUE,三角,img/T_ambi40.png,triangle,triangle,1,exp1,match,176
1,0,2000,5,434.97,psychophysics,607,j,j,simultaneous,j,TRUE,方形,img/S_ambi40.png,square,square,1,exp1,match,177
1,0,2000,5,434.97,psychophysics,621,j,j,simultaneous,j,TRUE,方形,img/S_ambi40.png,square,square,1,exp1,match,178
1,0,2000,5,434.97,psychophysics,733,f,f,simultaneous,f,TRUE,圆形,img/S_ambi40.png,square,square,1,exp1,mismatch,179
1,0,2000,5,434.97,psychophysics,946,f,f,simultaneous,f,TRUE,方形,img/T_ambi40.png,triangle,triangle,1,exp1,mismatch,180
1,0,2000,5,434.97,psychophysics,695,j,j,simultaneous,j,TRUE,圆形,img/C_ambi40.png,circle,circle,1,exp1,match,181
1,0,2000,5,434.97,psychophysics,651,j,j,simultaneous,j,TRUE,方形,img/S_ambi40.png,square,square,1,exp1,match,182
1,0,2000,5,434.97,psychophysics,684,f,f,simultaneous,f,TRUE,三角,img/S_ambi40.png,square,square,1,exp1,mismatch,183
1,0,2000,5,434.97,psychophysics,645,j,j,simultaneous,j,TRUE,三角,img/T_ambi40.png,triangle,triangle,1,exp1,match,184
1,0,2000,5,434.97,psychophysics,655,f,f,simultaneous,f,TRUE,方形,img/C_ambi40.png,circle,circle,1,exp1,mismatch,185
1,0,2000,5,434.97,psychophysics,648,f,f,simultaneous,f,TRUE,方形,img/T_ambi40.png,triangle,triangle,1,exp1,mismatch,186
1,0,2000,5,434.97,psychophysics,600,j,j,simultaneous,j,TRUE,三角,img/T_ambi40.png,triangle,triangle,1,exp1,match,187
1,0,2000,5,434.97,psychophysics,604,j,j,simultaneous,j,TRUE,圆形,img/C_ambi40.png,circle,circle,1,exp1,match,188
1,0,2000,5,434.97,psychophysics,676,f,f,simultaneous,f,TRUE,圆形,img/T_ambi40.png,triangle,triangle,1,exp1,mismatch,189
1,0,2000,5,434.97,psychophysics,711,f,f,simultaneous,f,TRUE,圆形,img/S_ambi40.png,square,square,1,exp1,mismatch,190
1,0,2000,5,434.97,psychophysics,709,f,f,simultaneous,f,TRUE,三角,img/C_ambi40.png,circle,circle,1,exp1,mismatch,191
1,0,2000,5,434.97,psychophysics,683,j,j,simultaneous,j,TRUE,方形,img/S_ambi40.png,square,square,1,exp1,match,192
1,0,2000,5,434.97,psychophysics,677,f,f,simultaneous,f,TRUE,圆形,img/T_ambi40.png,triangle,triangle,1,exp1,mismatch,193
1,0,2000,5,434.97,psychophysics,730,f,f,simultaneous,f,TRUE,圆形,img/S_ambi40.png,square,square,1,exp1,mismatch,194
1,0,2000,5,434.97,psychophysics,630,j,j,simultaneous,j,TRUE,方形,img/S_ambi40.png,square,square,1,exp1,match,195
1,0,2000,5,434.97,psychophysics,631,j,j,simultaneous,j,TRUE,圆形,img/C_ambi40.png,circle,circle,1,exp1,match,196
1,0,2000,5,434.97,psychophysics,629,f,f,simultaneous,f,TRUE,三角,img/S_ambi40.png,square,square,1,exp1,mismatch,197
1,0,2000,5,434.97,psychophysics,598,j,j,simultaneous,j,TRUE,方形,img/S_ambi40.png,square,square,1,exp1,match,198
1,0,2000,5,434.97,psychophysics,702,j,j,simultaneous,j,TRUE,三角,img/T_ambi40.png,triangle,triangle,1,exp1,match,199
1,0,2000,5,434.97,psychophysics,608,j,j,simultaneous,j,TRUE,圆形,img/C_ambi40.png,circle,circle,1,exp1,match,200
1,0,2000,5,434.97,psychophysics,612,j,j,simultaneous,j,TRUE,三角,img/T_ambi40.png,triangle,triangle,1,exp1,match,201
1,0,2000,5,434.97,psychophysics,702,f,f,simultaneous,f,TRUE,方形,img/T_ambi40.png,triangle,triangle,1,exp1,mismatch,202
1,0,2000,5,434.97,psychophysics,756,f,f,simultaneous,f,TRUE,方形,img/C_ambi40.png,circle,circle,1,exp1,mismatch,203
1,0,2000,5,434.97,psychophysics,758,f,f,simultaneous,f,TRUE,三角,img/C_ambi40.png,circle,circle,1,exp1,mismatch,204
1,0,2000,5,434.97,psychophysics,781,f,f,simultaneous,f,TRUE,三角,img/S_ambi40.png,square,square,1,exp1,mismatch,205
1,0,2000,5,434.97,psychophysics,668,j,j,simultaneous,j,TRUE,三角,img/T_ambi40.png,triangle,triangle,1,exp1,match,206
1,0,2000,5,434.97,psychophysics,655,j,j,simultaneous,j,TRUE,圆形,img/C_ambi40.png,circle,circle,1,exp1,match,207
1,0,2000,5,434.97,psychophysics,645,j,j,simultaneous,j,TRUE,方形,img/S_ambi40.png,square,square,1,exp1,match,208
1,0,2000,5,434.97,psychophysics,601,j,j,simultaneous,j,TRUE,方形,img/S_ambi40.png,square,square,1,exp1,match,210
1,0,2000,5,434.97,psychophysics,763,f,f,simultaneous,f,TRUE,方形,img/T_ambi40.png,triangle,triangle,1,exp1,mismatch,211
1,0,2000,5,434.97,psychophysics,772,f,f,simultaneous,f,TRUE,三角,img/C_ambi40.png,circle,circle,1,exp1,mismatch,213
1,0,2000,5,434.97,psychophysics,1121,f,f,simultaneous,f,TRUE,圆形,img/S_ambi40.png,square,square,1,exp1,mismatch,214
1,0,2000,5,434.97,psychophysics,847,f,f,simultaneous,f,TRUE,圆形,img/T_ambi40.png,triangle,triangle,1,exp1,mismatch,215
1,0,2000,5,434.97,psychophysics,650,j,j,simultaneous,j,TRUE,三角,img/T_ambi40.png,triangle,triangle,1,exp1,match,216
1,0,2000,5,434.97,psychophysics,656,j,j,simultaneous,j,TRUE,三角,img/T_ambi40.png,triangle,triangle,1,exp1,match,217
1,0,2000,5,434.97,psychophysics,694,f,f,simultaneous,f,TRUE,三角,img/S_ambi40.png,square,square,1,exp1,mismatch,218
1,0,2000,5,434.97,psychophysics,807,f,f,simultaneous,f,TRUE,三角,img/C_ambi40.png,circle,circle,1,exp1,mismatch,219
1,0,2000,5,434.97,psychophysics,794,f,f,simultaneous,f,TRUE,圆形,img/T_ambi40.png,triangle,triangle,1,exp1,mismatch,221
1,0,2000,5,434.97,psychophysics,661,j,j,simultaneous,j,TRUE,方形,img/S_ambi40.png,square,square,1,exp1,match,222
1,0,2000,5,434.97,psychophysics,826,j,j,simultaneous,j,TRUE,圆形,img/C_ambi40.png,circle,circle,1,exp1,match,223
1,0,2000,5,434.97,psychophysics,620,j,j,simultaneous,j,TRUE,三角,img/T_ambi40.png,triangle,triangle,1,exp1,match,224
1,0,2000,5,434.97,psychophysics,749,j,j,simultaneous,j,TRUE,方形,img/S_ambi40.png,square,square,1,exp1,match,225
1,0,2000,5,434.97,psychophysics,635,j,j,simultaneous,j,TRUE,圆形,img/C_ambi40.png,circle,circle,1,exp1,match,226
1,0,2000,5,434.97,psychophysics,709,f,f,simultaneous,f,TRUE,方形,img/T_ambi40.png,triangle,triangle,1,exp1,mismatch,227
1,0,2000,5,434.97,psychophysics,884,f,f,simultaneous,f,TRUE,方形,img/C_ambi40.png,circle,circle,1,exp1,mismatch,228
1,0,2000,5,434.97,psychophysics,701,f,f,simultaneous,f,TRUE,三角,img/C_ambi40.png,circle,circle,1,exp1,mismatch,229
1,0,2000,5,434.97,psychophysics,645,j,j,simultaneous,j,TRUE,三角,img/T_ambi40.png,triangle,triangle,1,exp1,match,230
1,0,2000,5,434.97,psychophysics,680,j,j,simultaneous,j,TRUE,方形,img/S_ambi40.png,square,square,1,exp1,match,231
1,0,2000,5,434.97,psychophysics,636,j,j,simultaneous,j,TRUE,圆形,img/C_ambi40.png,circle,circle,1,exp1,match,232
1,0,2000,5,434.97,psychophysics,698,f,f,simultaneous,f,TRUE,方形,img/T_ambi40.png,triangle,triangle,1,exp1,mismatch,233
1,0,2000,5,434.97,psychophysics,710,f,f,simultaneous,f,TRUE,三角,img/S_ambi40.png,square,square,1,exp1,mismatch,234
1,0,2000,5,434.97,psychophysics,609,j,j,simultaneous,j,TRUE,圆形,img/C_ambi40.png,circle,circle,1,exp1,match,235
1,0,2000,5,434.97,psychophysics,572,j,j,simultaneous,j,TRUE,方形,img/S_ambi40.png,square,square,1,exp1,match,236
1,0,2000,5,434.97,psychophysics,666,f,f,simultaneous,f,TRUE,圆形,img/S_ambi40.png,square,square,1,exp1,mismatch,237
1,0,2000,5,434.97,psychophysics,759,f,f,simultaneous,f,TRUE,圆形,img/T_ambi40.png,triangle,triangle,1,exp1,mismatch,238
1,0,2000,5,434.97,psychophysics,813,f,f,simultaneous,f,TRUE,方形,img/C_ambi40.png,circle,circle,1,exp1,mismatch,239
1,0,2000,5,434.97,psychophysics,677,j,j,simultaneous,j,TRUE,三角,img/T_ambi40.png,triangle,triangle,1,exp1,match,240
10,1,2000,5,634.76,psychophysics,856,f,f,word_first,f,TRUE,方形,img/S_ambi40.png,square,square,1,exp1,match,3
10,1,2000,5,634.76,psychophysics,742,j,j,word_first,j,TRUE,三角,img/C_ambi40.png,circle,circle,1,exp1,mismatch,4
10,1,2000,5,634.76,psychophysics,719,j,j,word_first,j,TRUE,圆形,img/T_ambi40.png,triangle,triangle,1,exp1,mismatch,5
10,1,2000,5,634.76,psychophysics,923,f,f,word_first,f,TRUE,圆形,img/C_ambi40.png,circle,circle,1,exp1,match,6
10,1,2000,5,634.76,psychophysics,728,f,f,word_first,f,TRUE,三角,img/T_ambi40.png,triangle,triangle,1,exp1,match,7
10,1,2000,5,634.76,psychophysics,836,f,f,word_first,f,TRUE,方形,img/S_ambi40.png,square,square,1,exp1,match,8
10,1,2000,5,634.76,psychophysics,548,f,f,word_first,f,TRUE,三角,img/T_ambi40.png,triangle,triangle,1,exp1,match,9
10,1,2000,5,634.76,psychophysics,539,f,f,word_first,f,TRUE,圆形,img/C_ambi40.png,circle,circle,1,exp1,match,10
10,1,2000,5,634.76,psychophysics,655,j,j,word_first,j,TRUE,方形,img/C_ambi40.png,circle,circle,1,exp1,mismatch,11
10,1,2000,5,634.76,psychophysics,1023,j,j,word_first,j,TRUE,方形,img/T_ambi40.png,triangle,triangle,1,exp1,mismatch,12
10,1,2000,5,634.76,psychophysics,736,j,j,word_first,j,TRUE,圆形,img/S_ambi40.png,square,square,1,exp1,mismatch,13
10,1,2000,5,634.76,psychophysics,700,j,j,word_first,j,TRUE,三角,img/C_ambi40.png,circle,circle,1,exp1,mismatch,14
10,1,2000,5,634.76,psychophysics,606,j,j,word_first,j,TRUE,方形,img/T_ambi40.png,triangle,triangle,1,exp1,mismatch,15
10,1,2000,5,634.76,psychophysics,711,f,f,word_first,f,TRUE,圆形,img/C_ambi40.png,circle,circle,1,exp1,match,16
10,1,2000,5,634.76,psychophysics,990,j,j,word_first,j,TRUE,方形,img/C_ambi40.png,circle,circle,1,exp1,mismatch,19
10,1,2000,5,634.76,psychophysics,726,j,j,word_first,j,TRUE,三角,img/S_ambi40.png,square,square,1,exp1,mismatch,20
10,1,2000,5,634.76,psychophysics,747,f,f,word_first,f,TRUE,三角,img/T_ambi40.png,triangle,triangle,1,exp1,match,21
10,1,2000,5,634.76,psychophysics,749,f,f,word_first,f,TRUE,圆形,img/C_ambi40.png,circle,circle,1,exp1,match,22
10,1,2000,5,634.76,psychophysics,1182,j,j,word_first,j,TRUE,圆形,img/T_ambi40.png,triangle,triangle,1,exp1,mismatch,23
10,1,2000,5,634.76,psychophysics,796,f,f,word_first,f,TRUE,三角,img/T_ambi40.png,triangle,triangle,1,exp1,match,24
10,1,2000,5,634.76,psychophysics,988,j,j,word_first,j,TRUE,圆形,img/T_ambi40.png,triangle,triangle,1,exp1,mismatch,25
10,1,2000,5,634.76,psychophysics,805,j,j,word_first,j,TRUE,圆形,img/S_ambi40.png,square,square,1,exp1,mismatch,26
10,1,2000,5,634.76,psychophysics,800,f,f,word_first,f,TRUE,方形,img/S_ambi40.png,square,square,1,exp1,match,27
10,1,2000,5,634.76,psychophysics,921,j,j,word_first,j,TRUE,三角,img/C_ambi40.png,circle,circle,1,exp1,mismatch,28
10,1,2000,5,634.76,psychophysics,991,f,f,word_first,f,TRUE,三角,img/T_ambi40.png,triangle,triangle,1,exp1,match,29
10,1,2000,5,634.76,psychophysics,724,j,j,word_first,j,TRUE,方形,img/C_ambi40.png,circle,circle,1,exp1,mismatch,30
10,1,2000,5,634.76,psychophysics,921,f,f,word_first,f,TRUE,圆形,img/C_ambi40.png,circle,circle,1,exp1,match,31
10,1,2000,5,634.76,psychophysics,1114,f,f,word_first,f,TRUE,三角,img/T_ambi40.png,triangle,triangle,1,exp1,match,33
10,1,2000,5,634.76,psychophysics,619,f,f,word_first,f,TRUE,圆形,img/C_ambi40.png,circle,circle,1,exp1,match,34
10,1,2000,5,634.76,psychophysics,775,j,j,word_first,j,TRUE,三角,img/S_ambi40.png,square,square,1,exp1,mismatch,35
10,1,2000,5,634.76,psychophysics,928,j,j,word_first,j,TRUE,方形,img/T_ambi40.png,triangle,triangle,1,exp1,mismatch,36
10,1,2000,5,634.76,psychophysics,723,f,f,word_first,f,TRUE,三角,img/T_ambi40.png,triangle,triangle,1,exp1,match,37
10,1,2000,5,634.76,psychophysics,748,j,j,word_first,j,TRUE,圆形,img/T_ambi40.png,triangle,triangle,1,exp1,mismatch,38
10,1,2000,5,634.76,psychophysics,767,j,j,word_first,j,TRUE,圆形,img/S_ambi40.png,square,square,1,exp1,mismatch,39
10,1,2000,5,634.76,psychophysics,616,f,f,word_first,f,TRUE,三角,img/T_ambi40.png,triangle,triangle,1,exp1,match,40
10,1,2000,5,634.76,psychophysics,698,j,j,word_first,j,TRUE,方形,img/C_ambi40.png,circle,circle,1,exp1,mismatch,41
10,1,2000,5,634.76,psychophysics,552,f,f,word_first,f,TRUE,圆形,img/C_ambi40.png,circle,circle,1,exp1,match,42
10,1,2000,5,634.76,psychophysics,769,f,f,word_first,f,TRUE,方形,img/S_ambi40.png,square,square,1,exp1,match,43
10,1,2000,5,634.76,psychophysics,602,j,j,word_first,j,TRUE,三角,img/S_ambi40.png,square,square,1,exp1,mismatch,44
10,1,2000,5,634.76,psychophysics,642,f,f,word_first,f,TRUE,圆形,img/C_ambi40.png,circle,circle,1,exp1,match,45
10,1,2000,5,634.76,psychophysics,686,j,j,word_first,j,TRUE,三角,img/C_ambi40.png,circle,circle,1,exp1,mismatch,47
10,1,2000,5,634.76,psychophysics,692,j,j,word_first,j,TRUE,方形,img/T_ambi40.png,triangle,triangle,1,exp1,mismatch,48
10,1,2000,5,634.76,psychophysics,598,f,f,word_first,f,TRUE,三角,img/T_ambi40.png,triangle,triangle,1,exp1,match,49
10,1,2000,5,634.76,psychophysics,677,j,j,word_first,j,TRUE,圆形,img/T_ambi40.png,triangle,triangle,1,exp1,mismatch,50
10,1,2000,5,634.76,psychophysics,747,f,f,word_first,f,TRUE,圆形,img/C_ambi40.png,circle,circle,1,exp1,match,52
10,1,2000,5,634.76,psychophysics,595,f,f,word_first,f,TRUE,三角,img/T_ambi40.png,triangle,triangle,1,exp1,match,53
10,1,2000,5,634.76,psychophysics,603,j,j,word_first,j,TRUE,方形,img/C_ambi40.png,circle,circle,1,exp1,mismatch,54
10,1,2000,5,634.76,psychophysics,812,j,j,word_first,j,TRUE,方形,img/T_ambi40.png,triangle,triangle,1,exp1,mismatch,55
10,1,2000,5,634.76,psychophysics,581,f,f,word_first,f,TRUE,圆形,img/C_ambi40.png,circle,circle,1,exp1,match,56
10,1,2000,5,634.76,psychophysics,941,f,f,word_first,f,TRUE,方形,img/S_ambi40.png,square,square,1,exp1,match,57
10,1,2000,5,634.76,psychophysics,522,f,f,word_first,f,TRUE,方形,img/S_ambi40.png,square,square,1,exp1,match,58
10,1,2000,5,634.76,psychophysics,726,j,j,word_first,j,TRUE,三角,img/S_ambi40.png,square,square,1,exp1,mismatch,59
10,1,2000,5,634.76,psychophysics,653,j,j,word_first,j,TRUE,三角,img/C_ambi40.png,circle,circle,1,exp1,mismatch,60
10,1,2000,5,634.76,psychophysics,794,f,f,word_first,f,TRUE,三角,img/T_ambi40.png,triangle,triangle,1,exp1,match,62
10,1,2000,5,634.76,psychophysics,843,f,f,word_first,f,TRUE,方形,img/S_ambi40.png,square,square,1,exp1,match,63
10,1,2000,5,634.76,psychophysics,580,f,f,word_first,f,TRUE,三角,img/T_ambi40.png,triangle,triangle,1,exp1,match,64
10,1,2000,5,634.76,psychophysics,649,j,j,word_first,j,TRUE,三角,img/C_ambi40.png,circle,circle,1,exp1,mismatch,65
10,1,2000,5,634.76,psychophysics,665,j,j,word_first,j,TRUE,方形,img/C_ambi40.png,circle,circle,1,exp1,mismatch,66
10,1,2000,5,634.76,psychophysics,635,f,f,word_first,f,TRUE,圆形,img/C_ambi40.png,circle,circle,1,exp1,match,67
10,1,2000,5,634.76,psychophysics,580,j,j,word_first,j,TRUE,方形,img/T_ambi40.png,triangle,triangle,1,exp1,mismatch,68
10,1,2000,5,634.76,psychophysics,631,j,j,word_first,j,TRUE,三角,img/S_ambi40.png,square,square,1,exp1,mismatch,69
10,1,2000,5,634.76,psychophysics,739,f,f,word_first,f,TRUE,方形,img/S_ambi40.png,square,square,1,exp1,match,70
10,1,2000,5,634.76,psychophysics,661,j,j,word_first,j,TRUE,圆形,img/T_ambi40.png,triangle,triangle,1,exp1,mismatch,71
10,1,2000,5,634.76,psychophysics,558,j,j,word_first,j,TRUE,圆形,img/S_ambi40.png,square,square,1,exp1,mismatch,72
10,1,2000,5,634.76,psychophysics,616,j,j,word_first,j,TRUE,圆形,img/S_ambi40.png,square,square,1,exp1,mismatch,73
10,1,2000,5,634.76,psychophysics,688,j,j,word_first,j,TRUE,方形,img/T_ambi40.png,triangle,triangle,1,exp1,mismatch,74
10,1,2000,5,634.76,psychophysics,653,j,j,word_first,j,TRUE,圆形,img/T_ambi40.png,triangle,triangle,1,exp1,mismatch,75
10,1,2000,5,634.76,psychophysics,877,j,j,word_first,j,TRUE,方形,img/C_ambi40.png,circle,circle,1,exp1,mismatch,76
10,1,2000,5,634.76,psychophysics,570,f,f,word_first,f,TRUE,三角,img/T_ambi40.png,triangle,triangle,1,exp1,match,77
10,1,2000,5,634.76,psychophysics,522,j,j,word_first,j,TRUE,三角,img/C_ambi40.png,circle,circle,1,exp1,mismatch,78
10,1,2000,5,634.76,psychophysics,711,j,j,word_first,j,TRUE,三角,img/S_ambi40.png,square,square,1,exp1,mismatch,80
10,1,2000,5,634.76,psychophysics,641,f,f,word_first,f,TRUE,圆形,img/C_ambi40.png,circle,circle,1,exp1,match,81
10,1,2000,5,634.76,psychophysics,515,f,f,word_first,f,TRUE,三角,img/T_ambi40.png,triangle,triangle,1,exp1,match,82
10,1,2000,5,634.76,psychophysics,467,f,f,word_first,f,TRUE,方形,img/S_ambi40.png,square,square,1,exp1,match,83
10,1,2000,5,634.76,psychophysics,688,f,f,word_first,f,TRUE,圆形,img/C_ambi40.png,circle,circle,1,exp1,match,84
10,1,2000,5,634.76,psychophysics,560,f,f,word_first,f,TRUE,圆形,img/C_ambi40.png,circle,circle,1,exp1,match,85
10,1,2000,5,634.76,psychophysics,533,f,f,word_first,f,TRUE,方形,img/S_ambi40.png,square,square,1,exp1,match,86
10,1,2000,5,634.76,psychophysics,512,f,f,word_first,f,TRUE,三角,img/T_ambi40.png,triangle,triangle,1,exp1,match,87
10,1,2000,5,634.76,psychophysics,671,f,f,word_first,f,TRUE,圆形,img/C_ambi40.png,circle,circle,1,exp1,match,88
10,1,2000,5,634.76,psychophysics,511,f,f,word_first,f,TRUE,方形,img/S_ambi40.png,square,square,1,exp1,match,89
10,1,2000,5,634.76,psychophysics,548,j,j,word_first,j,TRUE,方形,img/T_ambi40.png,triangle,triangle,1,exp1,mismatch,90
10,1,2000,5,634.76,psychophysics,700,j,j,word_first,j,TRUE,方形,img/C_ambi40.png,circle,circle,1,exp1,mismatch,91
10,1,2000,5,634.76,psychophysics,658,j,j,word_first,j,TRUE,圆形,img/S_ambi40.png,square,square,1,exp1,mismatch,92
10,1,2000,5,634.76,psychophysics,766,j,j,word_first,j,TRUE,三角,img/S_ambi40.png,square,square,1,exp1,mismatch,93
10,1,2000,5,634.76,psychophysics,619,j,j,word_first,j,TRUE,圆形,img/T_ambi40.png,triangle,triangle,1,exp1,mismatch,94
10,1,2000,5,634.76,psychophysics,596,j,j,word_first,j,TRUE,三角,img/C_ambi40.png,circle,circle,1,exp1,mismatch,95
10,1,2000,5,634.76,psychophysics,716,f,f,word_first,f,TRUE,三角,img/T_ambi40.png,triangle,triangle,1,exp1,match,96
10,1,2000,5,634.76,psychophysics,492,f,f,word_first,f,TRUE,三角,img/T_ambi40.png,triangle,triangle,1,exp1,match,97
10,1,2000,5,634.76,psychophysics,450,f,f,word_first,f,TRUE,三角,img/T_ambi40.png,triangle,triangle,1,exp1,match,98
10,1,2000,5,634.76,psychophysics,580,j,j,word_first,j,TRUE,圆形,img/S_ambi40.png,square,square,1,exp1,mismatch,99
10,1,2000,5,634.76,psychophysics,522,j,j,word_first,j,TRUE,圆形,img/T_ambi40.png,triangle,triangle,1,exp1,mismatch,100
10,1,2000,5,634.76,psychophysics,787,j,j,word_first,j,TRUE,方形,img/T_ambi40.png,triangle,triangle,1,exp1,mismatch,101
10,1,2000,5,634.76,psychophysics,646,f,f,word_first,f,TRUE,方形,img/S_ambi40.png,square,square,1,exp1,match,102
10,1,2000,5,634.76,psychophysics,651,j,j,word_first,j,TRUE,三角,img/C_ambi40.png,circle,circle,1,exp1,mismatch,103
10,1,2000,5,634.76,psychophysics,654,f,f,word_first,f,TRUE,圆形,img/C_ambi40.png,circle,circle,1,exp1,match,104
10,1,2000,5,634.76,psychophysics,583,f,f,word_first,f,TRUE,圆形,img/C_ambi40.png,circle,circle,1,exp1,match,105
10,1,2000,5,634.76,psychophysics,520,j,j,word_first,j,TRUE,三角,img/S_ambi40.png,square,square,1,exp1,mismatch,106
10,1,2000,5,634.76,psychophysics,685,j,j,word_first,j,TRUE,方形,img/C_ambi40.png,circle,circle,1,exp1,mismatch,107
10,1,2000,5,634.76,psychophysics,796,f,f,word_first,f,TRUE,方形,img/S_ambi40.png,square,square,1,exp1,match,108
10,1,2000,5,634.76,psychophysics,597,j,j,word_first,j,TRUE,方形,img/T_ambi40.png,triangle,triangle,1,exp1,mismatch,109
10,1,2000,5,634.76,psychophysics,965,j,j,word_first,j,TRUE,三角,img/S_ambi40.png,square,square,1,exp1,mismatch,110
10,1,2000,5,634.76,psychophysics,651,f,f,word_first,f,TRUE,方形,img/S_ambi40.png,square,square,1,exp1,match,111
10,1,2000,5,634.76,psychophysics,648,j,j,word_first,j,TRUE,圆形,img/S_ambi40.png,square,square,1,exp1,mismatch,112
10,1,2000,5,634.76,psychophysics,646,j,j,word_first,j,TRUE,三角,img/C_ambi40.png,circle,circle,1,exp1,mismatch,114
10,1,2000,5,634.76,psychophysics,541,f,f,word_first,f,TRUE,圆形,img/C_ambi40.png,circle,circle,1,exp1,match,115
10,1,2000,5,634.76,psychophysics,647,j,j,word_first,j,TRUE,方形,img/C_ambi40.png,circle,circle,1,exp1,mismatch,116
10,1,2000,5,634.76,psychophysics,520,f,f,word_first,f,TRUE,圆形,img/C_ambi40.png,circle,circle,1,exp1,match,117
10,1,2000,5,634.76,psychophysics,641,f,f,word_first,f,TRUE,三角,img/T_ambi40.png,triangle,triangle,1,exp1,match,118
10,1,2000,5,634.76,psychophysics,538,j,j,word_first,j,TRUE,圆形,img/T_ambi40.png,triangle,triangle,1,exp1,mismatch,119
10,1,2000,5,634.76,psychophysics,522,f,f,word_first,f,TRUE,三角,img/T_ambi40.png,triangle,triangle,1,exp1,match,120
10,1,2000,5,634.76,psychophysics,619,f,f,word_first,f,TRUE,圆形,img/C_ambi40.png,circle,circle,1,exp1,match,122
10,1,2000,5,634.76,psychophysics,883,j,j,word_first,j,TRUE,方形,img/T_ambi40.png,triangle,triangle,1,exp1,mismatch,123
10,1,2000,5,634.76,psychophysics,703,f,f,word_first,f,TRUE,方形,img/S_ambi40.png,square,square,1,exp1,match,124
10,1,2000,5,634.76,psychophysics,1026,f,f,word_first,f,TRUE,方形,img/S_ambi40.png,square,square,1,exp1,match,125
10,1,2000,5,634.76,psychophysics,549,j,j,word_first,j,TRUE,三角,img/C_ambi40.png,circle,circle,1,exp1,mismatch,126
10,1,2000,5,634.76,psychophysics,680,j,j,word_first,j,TRUE,圆形,img/T_ambi40.png,triangle,triangle,1,exp1,mismatch,128
10,1,2000,5,634.76,psychophysics,593,f,f,word_first,f,TRUE,三角,img/T_ambi40.png,triangle,triangle,1,exp1,match,129
10,1,2000,5,634.76,psychophysics,600,j,j,word_first,j,TRUE,方形,img/C_ambi40.png,circle,circle,1,exp1,mismatch,130
10,1,2000,5,634.76,psychophysics,792,f,f,word_first,f,TRUE,圆形,img/C_ambi40.png,circle,circle,1,exp1,match,131
10,1,2000,5,634.76,psychophysics,602,j,j,word_first,j,TRUE,圆形,img/S_ambi40.png,square,square,1,exp1,mismatch,132
10,1,2000,5,634.76,psychophysics,523,f,f,word_first,f,TRUE,三角,img/T_ambi40.png,triangle,triangle,1,exp1,match,133
10,1,2000,5,634.76,psychophysics,710,j,j,word_first,j,TRUE,方形,img/C_ambi40.png,circle,circle,1,exp1,mismatch,135
10,1,2000,5,634.76,psychophysics,693,f,f,word_first,f,TRUE,三角,img/T_ambi40.png,triangle,triangle,1,exp1,match,137
10,1,2000,5,634.76,psychophysics,964,j,j,word_first,j,TRUE,圆形,img/T_ambi40.png,triangle,triangle,1,exp1,mismatch,138
10,1,2000,5,634.76,psychophysics,810,f,f,word_first,f,TRUE,方形,img/S_ambi40.png,square,square,1,exp1,match,139
10,1,2000,5,634.76,psychophysics,653,j,j,word_first,j,TRUE,圆形,img/S_ambi40.png,square,square,1,exp1,mismatch,140
10,1,2000,5,634.76,psychophysics,618,j,j,word_first,j,TRUE,三角,img/C_ambi40.png,circle,circle,1,exp1,mismatch,141
10,1,2000,5,634.76,psychophysics,690,f,f,word_first,f,TRUE,圆形,img/C_ambi40.png,circle,circle,1,exp1,match,143
10,1,2000,5,634.76,psychophysics,928,f,f,word_first,f,TRUE,方形,img/S_ambi40.png,square,square,1,exp1,match,144
10,1,2000,5,634.76,psychophysics,699,j,j,word_first,j,TRUE,圆形,img/T_ambi40.png,triangle,triangle,1,exp1,mismatch,145
10,1,2000,5,634.76,psychophysics,733,f,f,word_first,f,TRUE,方形,img/S_ambi40.png,square,square,1,exp1,match,146
10,1,2000,5,634.76,psychophysics,965,j,j,word_first,j,TRUE,方形,img/C_ambi40.png,circle,circle,1,exp1,mismatch,147
10,1,2000,5,634.76,psychophysics,1055,f,f,word_first,f,TRUE,三角,img/T_ambi40.png,triangle,triangle,1,exp1,match,148
10,1,2000,5,634.76,psychophysics,1106,j,j,word_first,j,TRUE,圆形,img/S_ambi40.png,square,square,1,exp1,mismatch,149
10,1,2000,5,634.76,psychophysics,695,j,j,word_first,j,TRUE,三角,img/C_ambi40.png,circle,circle,1,exp1,mismatch,150
10,1,2000,5,634.76,psychophysics,560,f,f,word_first,f,TRUE,三角,img/T_ambi40.png,triangle,triangle,1,exp1,match,151
10,1,2000,5,634.76,psychophysics,790,f,f,word_first,f,TRUE,圆形,img/C_ambi40.png,circle,circle,1,exp1,match,152
10,1,2000,5,634.76,psychophysics,604,f,f,word_first,f,TRUE,圆形,img/C_ambi40.png,circle,circle,1,exp1,match,153
10,1,2000,5,634.76,psychophysics,660,j,j,word_first,j,TRUE,方形,img/T_ambi40.png,triangle,triangle,1,exp1,mismatch,154
10,1,2000,5,634.76,psychophysics,858,f,f,word_first,f,TRUE,方形,img/S_ambi40.png,square,square,1,exp1,match,156
10,1,2000,5,634.76,psychophysics,584,f,f,word_first,f,TRUE,三角,img/T_ambi40.png,triangle,triangle,1,exp1,match,157
10,1,2000,5,634.76,psychophysics,726,j,j,word_first,j,TRUE,圆形,img/T_ambi40.png,triangle,triangle,1,exp1,mismatch,158
10,1,2000,5,634.76,psychophysics,1219,j,j,word_first,j,TRUE,三角,img/S_ambi40.png,square,square,1,exp1,mismatch,159
10,1,2000,5,634.76,psychophysics,656,f,f,word_first,f,TRUE,方形,img/S_ambi40.png,square,square,1,exp1,match,160
10,1,2000,5,634.76,psychophysics,714,j,j,word_first,j,TRUE,三角,img/C_ambi40.png,circle,circle,1,exp1,mismatch,161
10,1,2000,5,634.76,psychophysics,724,j,j,word_first,j,TRUE,方形,img/C_ambi40.png,circle,circle,1,exp1,mismatch,162
10,1,2000,5,634.76,psychophysics,662,f,f,word_first,f,TRUE,三角,img/T_ambi40.png,triangle,triangle,1,exp1,match,163
10,1,2000,5,634.76,psychophysics,615,f,f,word_first,f,TRUE,圆形,img/C_ambi40.png,circle,circle,1,exp1,match,164
10,1,2000,5,634.76,psychophysics,749,j,j,word_first,j,TRUE,圆形,img/S_ambi40.png,square,square,1,exp1,mismatch,165
10,1,2000,5,634.76,psychophysics,644,f,f,word_first,f,TRUE,方形,img/S_ambi40.png,square,square,1,exp1,match,167
10,1,2000,5,634.76,psychophysics,667,f,f,word_first,f,TRUE,圆形,img/C_ambi40.png,circle,circle,1,exp1,match,168
10,1,2000,5,634.76,psychophysics,708,j,j,word_first,j,TRUE,圆形,img/S_ambi40.png,square,square,1,exp1,mismatch,169
10,1,2000,5,634.76,psychophysics,766,f,f,word_first,f,TRUE,方形,img/S_ambi40.png,square,square,1,exp1,match,170
10,1,2000,5,634.76,psychophysics,1040,j,j,word_first,j,TRUE,三角,img/S_ambi40.png,square,square,1,exp1,mismatch,171
10,1,2000,5,634.76,psychophysics,721,f,f,word_first,f,TRUE,三角,img/T_ambi40.png,triangle,triangle,1,exp1,match,172
10,1,2000,5,634.76,psychophysics,611,f,f,word_first,f,TRUE,方形,img/S_ambi40.png,square,square,1,exp1,match,173
10,1,2000,5,634.76,psychophysics,671,j,j,word_first,j,TRUE,方形,img/T_ambi40.png,triangle,triangle,1,exp1,mismatch,174
10,1,2000,5,634.76,psychophysics,981,f,f,word_first,f,TRUE,圆形,img/C_ambi40.png,circle,circle,1,exp1,match,175
10,1,2000,5,634.76,psychophysics,552,f,f,word_first,f,TRUE,圆形,img/C_ambi40.png,circle,circle,1,exp1,match,176
10,1,2000,5,634.76,psychophysics,663,j,j,word_first,j,TRUE,方形,img/C_ambi40.png,circle,circle,1,exp1,mismatch,177
10,1,2000,5,634.76,psychophysics,626,j,j,word_first,j,TRUE,三角,img/C_ambi40.png,circle,circle,1,exp1,mismatch,178
10,1,2000,5,634.76,psychophysics,664,j,j,word_first,j,TRUE,圆形,img/T_ambi40.png,triangle,triangle,1,exp1,mismatch,179
10,1,2000,5,634.76,psychophysics,787,f,f,word_first,f,TRUE,三角,img/T_ambi40.png,triangle,triangle,1,exp1,match,180
10,1,2000,5,634.76,psychophysics,1427,j,j,word_first,j,TRUE,圆形,img/S_ambi40.png,square,square,1,exp1,mismatch,181
10,1,2000,5,634.76,psychophysics,844,f,f,word_first,f,TRUE,圆形,img/C_ambi40.png,circle,circle,1,exp1,match,182
10,1,2000,5,634.76,psychophysics,688,j,j,word_first,j,TRUE,三角,img/C_ambi40.png,circle,circle,1,exp1,mismatch,183
10,1,2000,5,634.76,psychophysics,763,j,j,word_first,j,TRUE,圆形,img/T_ambi40.png,triangle,triangle,1,exp1,mismatch,184
10,1,2000,5,634.76,psychophysics,753,j,j,word_first,j,TRUE,三角,img/S_ambi40.png,square,square,1,exp1,mismatch,185
10,1,2000,5,634.76,psychophysics,765,f,f,word_first,f,TRUE,三角,img/T_ambi40.png,triangle,triangle,1,exp1,match,186
10,1,2000,5,634.76,psychophysics,530,f,f,word_first,f,TRUE,三角,img/T_ambi40.png,triangle,triangle,1,exp1,match,187
10,1,2000,5,634.76,psychophysics,561,j,j,word_first,j,TRUE,方形,img/T_ambi40.png,triangle,triangle,1,exp1,mismatch,188
10,1,2000,5,634.76,psychophysics,654,j,j,word_first,j,TRUE,方形,img/C_ambi40.png,circle,circle,1,exp1,mismatch,189
10,1,2000,5,634.76,psychophysics,569,f,f,word_first,f,TRUE,圆形,img/C_ambi40.png,circle,circle,1,exp1,match,190
10,1,2000,5,634.76,psychophysics,754,f,f,word_first,f,TRUE,方形,img/S_ambi40.png,square,square,1,exp1,match,191
10,1,2000,5,634.76,psychophysics,529,f,f,word_first,f,TRUE,方形,img/S_ambi40.png,square,square,1,exp1,match,192
10,1,2000,5,634.76,psychophysics,452,f,f,word_first,f,TRUE,方形,img/S_ambi40.png,square,square,1,exp1,match,193
10,1,2000,5,634.76,psychophysics,644,j,j,word_first,j,TRUE,圆形,img/T_ambi40.png,triangle,triangle,1,exp1,mismatch,194
10,1,2000,5,634.76,psychophysics,1084,f,f,word_first,f,TRUE,圆形,img/C_ambi40.png,circle,circle,1,exp1,match,195
10,1,2000,5,634.76,psychophysics,644,j,j,word_first,j,TRUE,方形,img/C_ambi40.png,circle,circle,1,exp1,mismatch,196
